"Time (s)","Acceleration x (m/s^2)","Acceleration y (m/s^2)","Acceleration z (m/s^2)"
9.610640000E-4,6.077769399E-1,5.306084156E0,8.760722160E0
2.196325200E-2,4.677968323E-1,5.281557560E0,8.420941353E0
5.219632520E-1,1.591227055E-1,5.650650501E0,8.096115112E0
1.021963252E0,9.762716293E-1,5.248058319E0,9.059226990E0
1.521963252E0,7.178468257E-2,4.895715237E0,8.535796165E0
2.021963252E0,1.148554832E-1,4.767699242E0,8.595019341E0
2.521963252E0,-6.717849374E-1,4.932205677E0,8.029116631E0
3.021963252E0,9.726824164E-1,5.256433010E0,8.687142372E0
3.521963252E0,5.371887088E-1,5.178068161E0,8.275577545E0
4.021963252E0,-8.494520187E-2,5.423930645E0,7.934599876E0
4.521963252E0,-6.191428304E-1,5.066802025E0,8.564510345E0
5.021963252E0,-8.452646136E-1,4.729413986E0,7.961519241E0
5.521963252E0,-1.501496136E-1,4.677370071E0,8.732007980E0
6.021963252E0,-1.064806059E-1,4.784449100E0,8.611170769E0
6.521963252E0,-7.357929647E-2,5.085346222E0,8.414958954E0
7.021963252E0,2.709871531E-1,5.134997368E0,7.923832417E0
7.521963252E0,8.745766878E-1,5.353342533E0,8.228319168E0
8.021963252E0,1.131206870E0,5.227719307E0,8.257032394E0
8.521963252E0,2.215753794E0,5.057230473E0,9.317651749E0
9.021963252E0,2.356332064E0,4.893920422E0,8.404789925E0
9.521963252E0,2.298306227E0,4.867001057E0,7.559525013E0
1.002196325E1,2.495115757E0,4.587639332E0,8.446663857E0
1.052196325E1,2.388036966E0,4.459024906E0,8.831310272E0
1.102196325E1,2.461018085E0,5.007579803E0,8.047660828E0
1.152196325E1,2.085345030E0,4.287938118E0,8.325826645E0
1.202196325E1,2.241476536E0,3.884149313E0,8.461020470E0
1.252196325E1,2.173879385E0,3.951148272E0,9.428917885E0
1.302196325E1,2.174477577E0,3.547957659E0,8.501100540E0
1.352196325E1,2.367099762E0,3.868596077E0,8.885746956E0
1.402196325E1,2.314457655E0,3.619144201E0,9.028717995E0
1.452196325E1,2.054238319E0,3.169293642E0,9.185447693E0
1.502196325E1,2.092523336E0,3.761517286E0,8.590232849E0
1.552196325E1,2.123031855E0,3.568894863E0,8.981459618E0
1.602196325E1,2.273181438E0,3.573082447E0,9.067601204E0
1.652196325E1,-1.121635556E0,3.552145243E0,9.089735031E0
1.702196325E1,3.290131092E-1,3.353540897E0,9.328418732E0
1.752196325E1,-1.465603858E-1,3.247658491E0,9.493523598E0
1.802196325E1,-2.009970993E-1,2.927618504E0,9.555737495E0
1.852196325E1,-5.264209956E-2,2.847458839E0,9.543772697E0
1.902196325E1,3.433700502E-1,2.819941521E0,9.375079155E0
1.952196325E1,5.724828243E-1,2.781656265E0,9.384650230E0
2.002196325E1,5.569294691E-1,2.761317253E0,9.392427444E0
2.052196325E1,5.515456200E-1,2.752942562E0,9.403793335E0
2.102196325E1,4.845465720E-1,2.645265341E0,9.432506561E0
2.152196325E1,3.906283081E-1,2.641676188E0,9.349954605E0
2.202196325E1,6.520441920E-2,2.513660192E0,9.598209381E0
2.252196325E1,4.187439755E-2,2.490330219E0,9.414560318E0
2.302196325E1,4.564309120E-1,2.710469961E0,9.400801659E0
2.352196325E1,3.475574851E-1,2.627319336E0,9.485149384E0
2.402196325E1,3.379862010E-1,2.699103832E0,9.318847656E0
2.452196325E1,4.336991012E-1,2.748156786E0,9.309874535E0
2.502196325E1,2.488535494E-1,2.657827854E0,9.568299294E0
2.552196325E1,5.347958803E-1,2.834298372E0,9.247062683E0
2.602196325E1,6.412764788E-1,2.778665304E0,9.372088432E0
2.652196325E1,8.482556343E-1,3.219542980E0,9.182456970E0
2.702196325E1,8.123632669E-1,3.200400352E0,9.187242508E0
2.752196325E1,6.526423693E-1,3.148954630E0,9.497711182E0
2.802196325E1,5.611169338E-1,3.080160856E0,9.404989243E0
2.852196325E1,4.498506486E-1,3.105883837E0,9.438488960E0
2.902196325E1,4.181457460E-1,3.091526747E0,9.204590797E0
2.952196325E1,3.912265003E-1,2.944966555E0,9.529416084E0
3.002196325E1,5.108676553E-1,3.096312523E0,9.235098839E0
3.052196325E1,3.702892959E-1,2.955734253E0,9.373284340E0
3.102196325E1,4.259224236E-1,2.925225735E0,9.722636223E0
3.152196325E1,3.828516304E-1,3.008376360E0,9.486345291E0
3.202196325E1,2.805584669E-1,2.931805849E0,9.839286804E0
3.252196325E1,3.511467278E-1,3.104089260E0,9.108279228E0
3.302196325E1,5.994020700E-1,3.043670416E0,8.639286041E0
3.352196325E1,2.787638307E-1,3.059821844E0,9.162715912E0
3.402196325E1,1.136590764E-1,2.951546669E0,9.379864693E0
3.452196325E1,1.082752272E-1,2.846262455E0,9.365508080E0
3.502196325E1,9.571290575E-3,2.512463808E0,9.834501266E0
3.552196325E1,2.691925503E-2,2.650051117E0,9.425926208E0
3.602196325E1,1.375873089E-1,2.714657307E0,9.457631111E0
3.652196325E1,1.016949639E-1,3.068794966E0,9.309276581E0
3.702196325E1,3.176472187E-1,3.062813044E0,9.481559753E0
3.752196325E1,4.558327198E-1,3.102294445E0,9.381659508E0
3.802196325E1,2.853440940E-1,2.928814888E0,9.334999084E0
3.852196325E1,3.750749528E-1,3.040679455E0,9.539586067E0
3.902196325E1,6.011967063E-1,2.813959360E0,9.474381447E0
3.952196325E1,1.019342422E0,3.107678413E0,9.411569595E0
4.002196325E1,2.506481707E-1,2.694318295E0,9.314660072E0
4.052196325E1,1.006181955E0,2.773879766E0,9.306285858E0
4.102196325E1,1.684547186E0,2.615953445E0,9.451649666E0
4.152196325E1,6.000002623E-1,2.982653379E0,9.620343208E0
4.202196325E1,9.206385016E-1,2.946761131E0,9.269794464E0
4.252196325E1,1.041476011E0,3.013760090E0,9.556933403E0
4.302196325E1,7.339983582E-1,2.769692183E0,9.877572060E0
4.352196325E1,7.357929349E-1,2.842673302E0,9.466006279E0
4.402196325E1,8.003991842E-1,2.806182861E0,9.298508644E0
4.452196325E1,7.818548083E-1,2.707478762E0,9.221938133E0
4.502196325E1,7.244270444E-1,2.738585472E0,9.041280746E0
4.552196325E1,6.711867452E-1,2.706880569E0,9.680164337E0
4.602196325E1,7.034898400E-1,2.788236618E0,9.361918449E0
4.652196325E1,6.891329288E-1,2.654238462E0,9.279366493E0
4.702196325E1,6.269195080E-1,2.499901533E0,9.668798447E0
4.752196325E1,7.501499057E-1,2.587837696E0,9.859625816E0
4.802196325E1,6.155536175E-1,2.597409010E0,9.504291534E0
4.852196325E1,6.209374666E-1,2.587837696E0,9.591629982E0
4.902196325E1,7.387840152E-1,2.726621389E0,9.326025963E0
4.952196325E1,6.352944374E-1,2.648256540E0,9.381061554E0
5.002196325E1,4.307080805E-1,2.595016241E0,9.322437286E0
5.052196325E1,5.252245665E-1,2.461616278E0,9.972088814E0
5.102196325E1,6.616154313E-1,2.590230465E0,9.537791252E0
5.152196325E1,5.006981492E-1,2.484946251E0,9.464211464E0
5.202196325E1,6.364908218E-1,2.410768747E0,9.969695091E0
5.252196325E1,6.047859192E-1,2.595016241E0,9.534799576E0
5.302196325E1,5.629115105E-1,2.601596355E0,9.458230019E0
5.352196325E1,8.614161611E-1,3.372683525E0,8.715856552E0
5.402196325E1,3.924229145E-1,3.501895905E0,9.432506561E0
5.452196325E1,6.640082598E-1,3.497110367E0,9.072386742E0
5.502196325E1,6.496513486E-1,3.574877024E0,9.206384659E0
5.552196325E1,8.614161611E-1,3.652643681E0,9.059226990E0
5.602196325E1,8.147560954E-1,3.495315790E0,8.981459618E0
5.652196325E1,6.221339107E-1,3.585644722E0,8.229515076E0
5.702196325E1,8.841479421E-1,3.492324591E0,9.196215630E0
5.752196325E1,8.967102766E-1,3.358326674E0,9.103493690E0
5.802196325E1,9.553344250E-1,3.525225878E0,9.103493690E0
5.852196325E1,9.415757060E-1,3.482155085E0,9.129216194E0
5.902196325E1,9.284151793E-1,3.516252756E0,8.920442581E0
5.952196325E1,1.075573802E0,3.499503136E0,8.974281311E0
6.002196325E1,9.631111026E-1,3.490530014E0,9.061020851E0
6.052196325E1,1.063609719E0,3.400799274E0,9.298508644E0
6.102196325E1,1.056431174E0,3.456432343E0,9.232706070E0
6.152196325E1,9.846464992E-1,3.442673683E0,9.028717995E0
6.202196325E1,1.091127157E0,3.495315790E0,9.043074608E0
6.252196325E1,1.066002488E0,3.458825111E0,9.060422897E0
6.302196325E1,1.083350420E0,3.362514019E0,9.132207870E0
6.352196325E1,9.607182741E-1,3.433102369E0,9.056235313E0
6.402196325E1,9.936196208E-1,3.426522017E0,9.019744873E0
6.452196325E1,6.400800347E-1,3.961317778E0,8.015955925E0
6.502196325E1,9.415757060E-1,3.863810301E0,8.943174362E0
6.552196325E1,6.287141442E-1,3.544368505E0,8.910871506E0
6.602196325E1,1.503889084E0,3.576671600E0,9.354740143E0
6.652196325E1,1.081555843E0,3.625724554E0,9.004789352E0
6.702196325E1,5.156532526E-1,3.308077335E0,9.035298347E0
6.752196325E1,5.437689424E-1,3.367299557E0,9.325428009E0
6.802196325E1,8.231309652E-1,3.455235958E0,8.907281876E0
6.852196325E1,6.652047038E-1,3.501895905E0,9.168100357E0
6.902196325E1,5.252245665E-1,3.396611691E0,9.148359299E0
6.952196325E1,6.059823632E-1,3.257827997E0,9.405587196E0
7.002196325E1,5.778666735E-1,3.171088219E0,9.348159790E0
7.052196325E1,6.825526357E-1,3.174079180E0,9.198010445E0
7.102196325E1,5.934200287E-1,3.044866800E0,9.278169632E0
7.152196325E1,5.802595019E-1,2.957528830E0,9.332008362E0
7.202196325E1,6.329016089E-1,2.773879766E0,9.424132347E0
7.252196325E1,6.382854581E-1,2.756531715E0,9.388239861E0
7.302196325E1,6.604190469E-1,2.723032236E0,9.408578873E0
7.352196325E1,5.395814776E-1,2.675175667E0,9.421739578E0
7.402196325E1,6.879364848E-1,2.780459881E0,9.414560318E0
7.452196325E1,6.382854581E-1,2.723032236E0,9.455238342E0
7.502196325E1,6.412764788E-1,2.695514679E0,9.298508644E0
7.552196325E1,5.407779217E-1,2.602194548E0,9.515657425E0
7.602196325E1,5.533402562E-1,2.519043922E0,9.502496719E0
7.652196325E1,5.659025311E-1,2.531606436E0,9.512666702E0
7.702196325E1,7.645068169E-1,2.791227579E0,9.482157707E0
7.752196325E1,6.424728632E-1,2.769692183E0,9.461220741E0
7.802196325E1,6.257231236E-1,2.833101988E0,9.309276581E0
7.852196325E1,4.630111754E-1,2.879163742E0,9.236295700E0
7.902196325E1,5.587241054E-1,2.584248543E0,9.494720459E0
7.952196325E1,5.515456200E-1,2.682952404E0,9.462417603E0
8.002196325E1,5.599204898E-1,2.619542599E0,9.468997002E0
8.052196325E1,5.760720372E-1,2.691327333E0,9.407382011E0
8.102196325E1,4.606183469E-1,2.585444927E0,9.559925079E0
8.152196325E1,4.803591371E-1,2.483749866E0,9.573084831E0
8.202196325E1,5.551348329E-1,2.592623234E0,9.424730301E0
8.252196325E1,1.914258115E-2,2.705085993E0,9.558728218E0
8.302196325E1,-2.021935135E-1,2.868396044E0,9.102297783E0
8.352196325E1,-3.559323549E-1,2.615953445E0,9.523433685E0
8.402196325E1,-4.241278172E-1,2.761317253E0,9.291928291E0
8.452196325E1,-4.366901219E-1,2.611167669E0,9.491728783E0
8.502196325E1,-4.289134443E-1,2.703889608E0,8.693722725E0
8.552196325E1,1.375873089E-1,2.408375978E0,9.569496155E0
8.602196325E1,7.334001660E-1,2.683550596E0,9.259027481E0
8.652196325E1,5.778666735E-1,2.721237659E0,9.440283775E0
8.702196325E1,5.024927258E-1,2.501097918E0,9.520442963E0
8.752196325E1,4.701896608E-1,2.453839540E0,9.499505997E0
8.802196325E1,5.042873621E-1,2.525624275E0,9.388239861E0
8.852196325E1,4.612165689E-1,2.514258385E0,9.457631111E0
8.902196325E1,3.990031779E-1,2.265404940E0,9.742377281E0
8.952196325E1,3.846462369E-1,2.198405743E0,9.552147865E0
9.002196325E1,5.294120312E-1,2.465803623E0,9.249456406E0
9.052196325E1,4.402793646E-1,2.076970100E0,9.416953087E0
9.102196325E1,2.955136001E-1,2.073380709E0,9.644869804E0
9.152196325E1,2.536391914E-1,2.009970903E0,9.660423279E0
9.202196325E1,4.582255483E-1,2.106880426E0,9.540781975E0
9.252196325E1,4.277170599E-1,2.057827473E0,9.456435204E0
9.302196325E1,3.505485058E-1,1.973480463E0,9.609575272E0
9.352196325E1,2.841476798E-1,2.375474691E0,9.700503349E0
9.402196325E1,5.730810165E-1,2.161915302E0,9.445069313E0
9.452196325E1,4.701896608E-1,2.542374134E0,9.365508080E0
9.502196325E1,3.732803464E-1,2.240878344E0,9.456435204E0
9.552196325E1,4.881358147E-1,2.241476536E0,9.601799011E0
9.602196325E1,2.937189937E-1,2.184048891E0,9.504291534E0
9.652196325E1,5.072783828E-1,2.731407166E0,9.403793335E0
9.702196325E1,6.251249313E-1,2.804388046E0,9.631709099E0
9.752196325E1,6.017948985E-1,2.844467878E0,9.261420250E0
9.802196325E1,5.611169338E-1,2.803191662E0,9.382855415E0
9.852196325E1,5.694918036E-1,2.682952404E0,9.390632629E0
9.902196325E1,7.190431952E-1,2.758326292E0,9.471988678E0
9.952196325E1,6.424728632E-1,2.673381090E0,9.228518486E0
1.000219633E2,6.777670383E-1,2.882753134E0,9.223732948E0
1.005219633E2,6.107679605E-1,2.707478762E0,9.491728783E0
1.010219633E2,7.070791125E-1,2.714657307E0,9.540781975E0
1.015219633E2,6.095715761E-1,2.581257343E0,9.601799011E0
1.020219633E2,1.070788145E0,3.031108141E0,8.491529465E0
1.025219633E2,2.889333367E-1,2.448455811E0,9.815358162E0
1.030219633E2,1.347757339E0,2.510669231E0,8.896514893E0
1.035219633E2,5.473581553E-1,2.150549412E0,9.636494637E0
1.040219633E2,6.442674994E-1,2.199602127E0,9.559925079E0
1.045219633E2,5.742774606E-1,1.938186288E0,9.698708534E0
1.050219633E2,6.221339107E-1,1.994417667E0,9.542576790E0
1.055219633E2,6.346961856E-1,1.955534339E0,9.592227936E0
1.060219633E2,6.586244106E-1,1.956132531E0,9.744770050E0
1.065219633E2,6.125625968E-1,1.786840320E0,9.588638306E0
1.070219633E2,6.496513486E-1,1.861616015E0,9.535996437E0
1.075219633E2,5.934200287E-1,1.858624935E0,9.435498238E0
1.080219633E2,4.821537733E-1,1.756331801E0,9.308079720E0
1.085219633E2,5.898307562E-1,1.828116536E0,9.407382011E0
1.090219633E2,6.317051649E-1,1.800599098E0,9.605986595E0
1.095219633E2,6.496513486E-1,1.821536183E0,9.596415520E0
1.100219633E2,6.556333899E-1,1.835893154E0,9.775279045E0
1.105219633E2,6.191428304E-1,1.823330879E0,9.558728218E0
1.110219633E2,6.969096065E-1,1.886740685E0,9.681360245E0
1.115219633E2,6.329016089E-1,1.980060697E0,9.620942116E0
1.120219633E2,6.257231236E-1,1.888535261E0,9.440881729E0
1.125219633E2,6.861419082E-1,1.872981906E0,9.550951958E0
1.130219633E2,6.765705943E-1,1.910668850E0,9.660423279E0
1.135219633E2,6.376872063E-1,1.842473388E0,9.729216576E0
1.140219633E2,6.364908218E-1,1.950748682E0,9.523433685E0
1.145219633E2,7.166503668E-1,1.898704767E0,9.682557106E0
1.150219633E2,6.891329288E-1,1.901695848E0,9.673583984E0
1.155219633E2,6.604190469E-1,1.844268084E0,9.620343208E0
1.160219633E2,6.861419082E-1,1.904686809E0,9.634700775E0
1.165219633E2,6.681957245E-1,1.913061738E0,9.650852203E0
1.170219633E2,6.729813814E-1,1.920240164E0,9.520442963E0
1.175219633E2,6.879364848E-1,1.958525300E0,9.605986595E0
1.180219633E2,7.004988194E-1,1.838884234E0,9.850054741E0
1.185219633E2,6.526423693E-1,1.880758643E0,9.558130264E0
1.190219633E2,7.016952634E-1,1.983051777E0,9.610772133E0
1.195219633E2,6.759724021E-1,1.905883193E0,9.655637741E0
1.200219633E2,6.400800347E-1,2.006381750E0,9.448060036E0
1.205219633E2,6.568298340E-1,1.926820397E0,9.647860527E0
1.210219633E2,6.185446382E-1,1.939382792E0,9.455238342E0
1.215219633E2,5.850451589E-1,1.899901152E0,9.665806770E0
1.220219633E2,6.478567123E-1,1.871187329E0,9.647860527E0
1.225219633E2,6.568298340E-1,1.996810555E0,9.761520386E0
1.230219633E2,5.874379873E-1,1.950748682E0,9.655637741E0
1.235219633E2,6.412764788E-1,1.956132531E0,9.832706451E0
1.240219633E2,6.352944374E-1,1.938186288E0,9.769296646E0
1.245219633E2,6.376872063E-1,1.935195327E0,9.728020668E0
1.250219633E2,5.742774606E-1,1.899901152E0,9.635298729E0
1.255219633E2,6.717849374E-1,2.021337032E0,9.459425926E0
1.260219633E2,5.952146053E-1,2.038684845E0,9.397810936E0
1.265219633E2,5.754738450E-1,1.926820397E0,9.558728218E0
1.270219633E2,5.994020700E-1,1.976471543E0,9.481559753E0
1.275219633E2,6.669993401E-1,1.941177368E0,9.722636223E0
1.280219633E2,6.334998012E-1,1.905883193E0,9.697511673E0
1.285219633E2,6.191428304E-1,1.947757602E0,9.705288887E0
1.290219633E2,6.951149702E-1,1.932204247E0,9.830911636E0
1.295219633E2,5.856433511E-1,1.939980984E0,9.620343208E0
1.300219633E2,6.903293133E-1,1.966900229E0,9.333803177E0
1.305219633E2,6.334998012E-1,1.934597135E0,9.826126099E0
1.310219633E2,5.886343718E-1,1.892124534E0,9.802796364E0
1.315219633E2,6.251249313E-1,1.939980984E0,9.483952522E0
1.320219633E2,6.490531564E-1,1.916052699E0,9.400801659E0
1.325219633E2,6.855437160E-1,1.933400750E0,9.649057388E0
1.330219633E2,6.490531564E-1,1.864607096E0,1.000020409E1
1.335219633E2,6.430711150E-1,1.869990945E0,9.670592308E0
1.340219633E2,6.508477330E-1,1.862812400E0,9.627521515E0
1.345219633E2,6.412764788E-1,1.883749604E0,9.395418167E0
1.350219633E2,7.483552694E-1,1.907677889E0,9.414560318E0
1.355219633E2,6.604190469E-1,1.794616938E0,9.794421196E0
1.360219633E2,6.251249313E-1,1.886740685E0,9.446864128E0
1.365219633E2,6.508477330E-1,1.850848317E0,9.501300812E0
1.370219633E2,6.807580590E-1,1.858624935E0,9.649655342E0
1.375219633E2,6.460621357E-1,1.890329838E0,9.534201622E0
1.380219633E2,7.004988194E-1,1.807777524E0,9.763913155E0
1.385219633E2,1.065404296E0,1.678565025E0,9.577870369E0
1.390219633E2,1.007976532E0,1.850848317E0,9.832706451E0
1.395219633E2,8.979067206E-1,1.801197290E0,9.530014038E0
1.400219633E2,8.871390224E-1,1.702493310E0,9.738788605E0
1.405219633E2,8.865407705E-1,1.701895118E0,9.600004196E0
1.410219633E2,8.757730722E-1,1.628315806E0,9.625727654E0
1.415219633E2,8.997012973E-1,1.536192179E0,9.687342644E0
1.420219633E2,9.158528447E-1,1.622333765E0,9.764511108E0
1.425219633E2,7.956135273E-1,1.657029629E0,9.513862610E0
1.430219633E2,8.709874153E-1,1.588834286E0,9.675378799E0
1.435219633E2,8.488538265E-1,1.622333765E0,9.451649666E0
1.440219633E2,9.188438654E-1,1.590030670E0,9.588638306E0
1.445219633E2,8.835497499E-1,1.534397483E0,9.698708534E0
1.450219633E2,8.883354068E-1,1.590628862E0,9.637093544E0
1.455219633E2,8.327022791E-1,1.611566067E0,9.574879646E0
1.460219633E2,8.021938205E-1,1.470987678E0,9.612566948E0
1.465219633E2,7.734799385E-1,1.499701619E0,9.646664619E0
1.470219633E2,8.679963946E-1,1.484746456E0,9.907482147E0
1.475219633E2,7.932206988E-1,1.539183140E0,9.641280174E0
1.480219633E2,7.627122402E-1,1.393819213E0,9.635298729E0
1.485219633E2,7.668996453E-1,1.437488198E0,9.687342644E0
1.490219633E2,7.501499057E-1,1.370489120E0,9.829715729E0
1.495219633E2,7.274180651E-1,1.403390527E0,9.667003632E0
1.500219633E2,7.483552694E-1,1.349551916E0,9.665806770E0
1.505219633E2,9.349954724E-1,1.392622828E0,9.652647018E0
1.510219633E2,9.188438654E-1,1.360917926E0,9.570094109E0
1.515219633E2,8.626125455E-1,1.357926846E0,9.775876999E0
1.520219633E2,9.726824164E-1,1.416550994E0,9.672985077E0
1.525219633E2,9.906286001E-1,1.314257860E0,9.749555588E0
1.530219633E2,1.027717352E0,1.329213023E0,9.499505997E0
1.535219633E2,9.888339639E-1,1.293918848E0,9.566504478E0
1.540219633E2,9.361918569E-1,1.453041553E0,9.412167549E0
1.545219633E2,9.607182741E-1,1.320838094E0,9.517452240E0
1.550219633E2,9.314061999E-1,1.336391449E0,9.986445427E0
1.555219633E2,8.404789567E-1,1.349551916E0,9.720842361E0
1.560219633E2,6.586244106E-1,1.409970760E0,9.812367439E0
1.565219633E2,7.579265833E-1,1.349551916E0,9.821938515E0
1.570219633E2,6.711867452E-1,1.374676585E0,9.515657425E0
1.575219633E2,8.470591903E-1,1.481755376E0,9.414560318E0
1.580219633E2,9.266205430E-1,1.353141189E0,9.757930756E0
1.585219633E2,9.032905698E-1,1.372283816E0,9.791430473E0
1.590219633E2,8.165507317E-1,1.344766378E0,9.883553505E0
1.595219633E2,7.292127013E-1,1.325623751E0,9.837491989E0
1.600219633E2,8.805587292E-1,1.441675663E0,9.778269768E0
1.605219633E2,8.691928387E-1,1.398604870E0,9.660423279E0
1.610219633E2,9.188438654E-1,1.408774376E0,9.670592308E0
1.615219633E2,8.422735929E-1,1.371685624E0,9.799206734E0
1.620219633E2,8.775677085E-1,1.400997639E0,9.762716293E0
1.625219633E2,8.793623447E-1,1.487139225E0,9.657432556E0
1.630219633E2,7.944171429E-1,1.442273855E0,9.720842361E0
1.635219633E2,6.807580590E-1,1.402194023E0,9.684351921E0
1.640219633E2,4.893322289E-1,1.520638824E0,9.582656860E0
1.645219633E2,5.347958803E-1,1.496112347E0,9.854840279E0
1.650219633E2,4.965106845E-1,1.548754454E0,9.635298729E0
1.655219633E2,4.516452849E-1,1.542174220E0,9.605986595E0
1.660219633E2,8.338986635E-1,1.430907965E0,9.567701340E0
1.665219633E2,8.069794178E-1,1.384247899E0,9.655637741E0
1.670219633E2,8.823533654E-1,1.418345571E0,9.775279045E0
1.675219633E2,7.716853023E-1,1.410568953E0,9.606584549E0
1.680219633E2,8.099704385E-1,1.451246977E0,9.568299294E0
1.685219633E2,7.483552694E-1,1.348355532E0,9.844072342E0
1.690219633E2,7.788637877E-1,1.472782373E0,9.713065147E0
1.695219633E2,8.297112584E-1,1.493121386E0,9.690931320E0
1.700219633E2,8.356932998E-1,1.570888042E0,9.638289452E0
1.705219633E2,1.241276741E0,1.599601984E0,9.690931320E0
1.710219633E2,1.116850019E0,1.561915040E0,9.549157143E0
1.715219633E2,9.894321561E-1,1.550549030E0,9.689137459E0
1.720219633E2,1.148554921E0,1.721635938E0,9.726225853E0
1.725219633E2,1.084546804E0,1.627119422E0,9.679565430E0
1.730219633E2,1.088136077E0,1.585245013E0,9.538987160E0
1.735219633E2,1.154536963E0,1.805384636E0,9.605986595E0
1.740219633E2,9.619147182E-1,1.698904037E0,9.721440315E0
1.745219633E2,1.134197950E0,1.746760488E0,9.704092026E0
1.750219633E2,1.201196909E0,1.770688772E0,9.601799011E0
1.755219633E2,1.178465128E0,1.869392633E0,9.605986595E0
1.760219633E2,9.601200819E-1,1.878963947E0,9.716055870E0
1.765219633E2,7.818548083E-1,1.989632010E0,9.617352486E0
1.770219633E2,7.645068169E-1,2.075773716E0,9.258428574E0
1.775219633E2,1.137787223E0,1.948953986E0,9.627521515E0
1.780219633E2,1.174277663E0,2.062613010E0,9.540781975E0
1.785219633E2,1.335195065E0,2.040479422E0,9.767501831E0
1.790219633E2,1.290927768E0,2.079961061E0,9.577870369E0
1.795219633E2,1.228714466E0,2.099103689E0,9.525228500E0
1.800219633E2,1.173679471E0,2.050050735E0,9.677771568E0
1.805219633E2,1.126421213E0,2.193022013E0,9.299705505E0
1.810219633E2,1.045065284E0,2.026122570E0,9.751948357E0
1.815219633E2,9.906286001E-1,2.233700037E0,9.285347939E0
1.820219633E2,9.092726111E-1,2.181057930E0,9.515657425E0
1.825219633E2,8.344969153E-1,2.238485575E0,9.555737495E0
1.830219633E2,7.788637877E-1,2.105684042E0,9.664012909E0
1.835219633E2,8.392825127E-1,2.218744755E0,9.414560318E0
1.840219633E2,1.103689432E0,2.114058733E0,9.588638306E0
1.845219633E2,1.200000525E0,2.094916344E0,9.640084267E0
1.850219633E2,1.171286702E0,2.056032896E0,9.488738060E0
1.855219633E2,1.271187067E0,2.145165443E0,9.521639824E0
1.860219633E2,1.104287624E0,2.151745796E0,9.379864693E0
1.865219633E2,9.559326172E-1,1.914258122E0,9.683155060E0
1.870219633E2,9.846464992E-1,2.222334146E0,9.266803741E0
1.875219633E2,1.082752228E0,2.172683001E0,9.402596474E0
1.880219633E2,1.043270707E0,2.271985054E0,9.344570160E0
1.885219633E2,1.007976532E0,2.154736757E0,9.573084831E0
1.890219633E2,9.571290612E-1,2.050050735E0,9.671789169E0
1.895219633E2,1.013360381E0,2.073380709E0,9.630513191E0
1.900219633E2,1.018146038E0,2.043470621E0,9.448060036E0
1.905219633E2,1.084546804E0,2.236092806E0,9.512067795E0
1.910219633E2,1.001994491E0,2.041675806E0,9.520442963E0
1.915219633E2,1.078564763E0,2.085345030E0,9.443274498E0
1.920219633E2,1.018146038E0,2.051845312E0,9.745368004E0
1.925219633E2,9.966106415E-1,2.072184324E0,9.515657425E0
1.930219633E2,9.732806087E-1,2.018345833E0,9.472586632E0
1.935219633E2,1.049252748E0,1.974676847E0,9.726225853E0
1.940219633E2,9.583254457E-1,1.990828395E0,9.501300812E0
1.945219633E2,9.409775138E-1,2.117049932E0,9.811769485E0
1.950219633E2,9.110672474E-1,2.035095692E0,9.466006279E0
1.955219633E2,8.195417523E-1,2.197807550E0,9.515657425E0
1.960219633E2,8.279166222E-1,2.161317110E0,9.805787086E0
1.965219633E2,7.334001660E-1,2.059023857E0,9.586843491E0
1.970219633E2,7.034898400E-1,2.086541414E0,9.695717812E0
1.975219633E2,8.931210637E-1,2.113460541E0,9.643074989E0
1.980219633E2,9.619147182E-1,2.908475876E0,9.308079720E0
1.985219633E2,1.289133191E0,3.867997885E0,8.845068932E0
1.990219633E2,1.325623751E0,3.614358664E0,9.793225288E0
1.995219633E2,1.274178028E0,3.585644722E0,9.148359299E0
2.000219633E2,1.381855130E0,3.689732552E0,9.093922615E0
2.005219633E2,1.293918848E0,3.604787350E0,8.912666321E0
2.010219633E2,1.240678549E0,3.605385542E0,9.094520569E0
2.015219633E2,1.242473125E0,3.633501291E0,8.946166039E0
2.020219633E2,1.123430252E0,3.681357622E0,9.225527763E0
2.025219633E2,9.678967595E-1,3.589233875E0,9.054440498E0
2.030219633E2,1.107278705E0,3.592823267E0,8.825926781E0
2.035219633E2,1.128215909E0,3.582653761E0,9.167501450E0
2.040219633E2,1.272981644E0,3.616751432E0,8.723034859E0
2.045219633E2,1.122832060E0,3.641875982E0,9.233304024E0
2.050219633E2,9.984052777E-1,3.576073408E0,8.893523216E0
2.055219633E2,1.290927768E0,3.648456335E0,9.145368576E0
2.060219633E2,1.113260746E0,3.495315790E0,9.174081802E0
2.065219633E2,1.242473125E0,3.166302681E0,9.440881729E0
2.070219633E2,1.007976532E0,2.839084148E0,8.629714966E0
2.075219633E2,1.274178028E0,3.145365477E0,9.114859581E0
2.080219633E2,1.505683661E0,2.951546669E0,9.069993973E0
2.085219633E2,1.445264935E0,2.834896564E0,9.100502968E0
2.090219633E2,1.188036442E0,2.743371248E0,9.498309135E0
2.095219633E2,1.172483087E0,2.883949518E0,9.059226990E0
2.100219633E2,1.266999602E0,2.671586514E0,9.288937569E0
2.105219633E2,1.137188911E0,2.622533560E0,9.469595909E0
2.110219633E2,1.205982566E0,2.523829699E0,9.394221306E0
2.115219633E2,1.303490162E0,2.371885538E0,9.577272415E0
2.120219633E2,1.240678549E0,2.551945448E0,9.339784622E0
2.125219633E2,1.138983607E0,2.486740828E0,9.363713264E0
2.130219633E2,6.424728632E-1,2.465803623E0,8.969495773E0
2.135219633E2,1.092921734E0,2.790031195E0,9.473783493E0
2.140219633E2,1.099501967E0,2.736192703E0,9.364311218E0
2.145219633E2,1.116850019E0,2.756531715E0,9.157930374E0
2.150219633E2,9.990034699E-1,2.571686029E0,9.556933403E0
2.155219633E2,1.057627559E0,2.736192703E0,9.498309135E0
2.160219633E2,1.030110121E0,2.515454769E0,9.576076508E0
2.165219633E2,8.979067206E-1,2.710469961E0,9.429515839E0
2.170219633E2,9.457631707E-1,2.441875458E0,9.499505997E0
2.175219633E2,1.019342422E0,2.748754978E0,9.337990761E0
2.180219633E2,9.176474810E-1,2.663809776E0,9.396016121E0
2.185219633E2,9.439685345E-1,2.590828657E0,9.357730865E0
2.190219633E2,9.696913958E-1,2.662613392E0,9.242277145E0
2.195219633E2,1.008574724E0,2.585444927E0,9.483952522E0
2.200219633E2,7.884350419E-1,2.851048231E0,9.388239861E0
2.205219633E2,5.934200287E-1,2.692523718E0,9.400203705E0
2.210219633E2,7.100701332E-1,2.709871531E0,9.360722542E0
2.215219633E2,6.424728632E-1,2.539981127E0,9.539586067E0
2.220219633E2,1.008574724E0,2.576471806E0,9.355937004E0
2.225219633E2,9.284151793E-1,2.372483730E0,9.509077072E0
2.230219633E2,9.924231768E-1,2.589034081E0,9.192028046E0
2.235219633E2,9.343972206E-1,2.601596355E0,9.501300812E0
2.240219633E2,8.793623447E-1,2.437688112E0,9.349954605E0
2.245219633E2,1.025922656E0,2.813959360E0,9.552147865E0
2.250219633E2,7.417750359E-1,2.552543640E0,9.531210899E0
2.255219633E2,7.082754970E-1,2.779263496E0,9.165707588E0
2.260219633E2,8.183453679E-1,2.529811859E0,9.431310654E0
2.265219633E2,7.304090858E-1,2.719442844E0,9.400801659E0
2.270219633E2,7.322037220E-1,2.571686029E0,9.361918449E0
2.275219633E2,7.609176040E-1,2.623729944E0,9.346364975E0
2.280219633E2,8.853443861E-1,2.495115757E0,9.848857880E0
2.285219633E2,8.931210637E-1,2.592025042E0,9.269794464E0
2.290219633E2,9.218349457E-1,2.582453728E0,9.378668785E0
2.295219633E2,9.427721500E-1,2.446661234E0,9.345169067E0
2.300219633E2,9.571290612E-1,2.485544443E0,9.597013474E0
2.305219633E2,9.541380405E-1,2.531606436E0,9.359525681E0
2.310219633E2,9.888339639E-1,2.579462767E0,9.474381447E0
2.315219633E2,9.559326172E-1,2.560320139E0,9.452845573E0
2.320219633E2,9.888339639E-1,2.581257343E0,9.509077072E0
2.325219633E2,1.018146038E0,2.487339020E0,9.160921097E0
2.330219633E2,9.732806087E-1,2.317448616E0,9.597013474E0
2.335219633E2,1.006780148E0,2.432304144E0,9.345169067E0
2.340219633E2,1.025324464E0,2.467598438E0,9.363713264E0
2.345219633E2,1.078564763E0,2.532802820E0,9.346364975E0
2.350219633E2,1.118046403E0,2.502892494E0,9.625128746E0
2.355219633E2,1.306481123E0,2.417947292E0,9.341579437E0
2.360219633E2,1.220339537E0,2.382055044E0,9.586843491E0
2.365219633E2,1.266999602E0,2.318047047E0,9.644869804E0
2.370219633E2,1.108475089E0,2.260020971E0,8.861818314E0
2.375219633E2,1.168893814E0,2.063809633E0,1.030648518E1
2.380219633E2,1.222134113E0,2.287538528E0,9.643074989E0
2.385219633E2,1.314257860E0,2.365305185E0,9.309874535E0
2.390219633E2,1.475175142E0,2.614757061E0,1.013599682E1
2.395219633E2,1.264606714E0,2.445464849E0,9.470791817E0
2.400219633E2,1.223928809E0,2.490330219E0,9.301499367E0
2.405219633E2,1.268195987E0,2.355733871E0,9.330213547E0
2.410219633E2,1.261615753E0,2.307877541E0,9.626923561E0
2.415219633E2,1.236491084E0,2.422732830E0,9.320642471E0
2.420219633E2,9.631111026E-1,2.231905222E0,9.579665184E0
2.425219633E2,9.888339639E-1,2.367697954E0,9.422935486E0
2.430219633E2,1.061216831E0,2.264806747E0,9.608379364E0
2.435219633E2,1.006780148E0,2.333600283E0,9.397212982E0
2.440219633E2,9.379864931E-1,2.218744755E0,9.780064583E0
2.445219633E2,1.379462242E0,2.005185366E0,9.378069878E0
2.450219633E2,1.165902853E0,2.105684042E0,9.437292099E0
2.455219633E2,1.129412293E0,2.061416626E0,9.501300812E0
2.460219633E2,1.012762189E0,1.909472466E0,9.363713264E0
2.465219633E2,1.204187989E0,1.749751568E0,9.549157143E0
2.470219633E2,1.289133191E0,1.812563181E0,9.647860527E0
2.475219633E2,1.707278967E0,2.166700840E0,9.443872452E0
2.480219633E2,1.840678811E0,2.276172638E0,9.674779892E0
2.485219633E2,1.582253933E0,2.181057930E0,9.495916367E0
2.490219633E2,1.927418590E0,2.359323025E0,9.180662155E0
2.495219633E2,9.439685345E-1,1.800599098E0,9.760921478E0
2.500219633E2,7.752745152E-1,1.850250125E0,9.494720459E0
2.505219633E2,1.343569875E0,1.960319996E0,9.610772133E0
2.510219633E2,1.198205948E0,1.781456470E0,9.510871887E0
2.515219633E2,1.169492126E0,1.832902193E0,9.710074425E0
2.520219633E2,1.118644595E0,1.631905079E0,9.583852768E0
2.525219633E2,1.142572761E0,1.729412556E0,9.582656860E0
2.530219633E2,1.190429211E0,1.637887120E0,9.623932838E0
2.535219633E2,1.193420291E0,1.524826288E0,9.697511673E0
2.540219633E2,1.215553880E0,1.497906923E0,9.654440880E0
2.545219633E2,1.129412293E0,1.573280931E0,9.744770050E0
2.550219633E2,1.222134113E0,1.531406522E0,9.813564301E0
2.555219633E2,1.183250785E0,1.558325768E0,9.535996437E0
2.560219633E2,1.201196909E0,1.527817249E0,9.631709099E0
2.565219633E2,1.243071318E0,1.467398524E0,9.669994354E0
2.570219633E2,1.277767301E0,1.463211060E0,9.763913155E0
2.575219633E2,1.228116274E0,1.408176184E0,9.683155060E0
2.580219633E2,1.064207911E0,1.485344648E0,9.563513756E0
2.585219633E2,1.135992527E0,1.408774376E0,9.684949875E0
2.590219633E2,1.092921734E0,1.464407444E0,9.600004196E0
2.595219633E2,1.097707391E0,1.441675663E0,9.644869804E0
2.600219633E2,1.107278705E0,1.380060434E0,9.692726135E0
2.605219633E2,1.042074203E0,1.308275819E0,9.717850685E0
2.610219633E2,9.409775138E-1,1.336391449E0,9.248857498E0
2.615219633E2,1.006181955E0,1.239482164E0,9.625727654E0
2.620219633E2,1.089930773E0,1.231107235E0,9.603593826E0
2.625219633E2,1.074975610E0,1.247258782E0,9.631709099E0
2.630219633E2,1.208973646E0,1.275972724E0,9.701699257E0
2.635219633E2,1.202393413E0,1.246062398E0,9.726225853E0
2.640219633E2,1.207777262E0,1.274178028E0,9.588638306E0
2.645219633E2,1.383051515E0,1.284347534E0,9.448657990E0
2.650219633E2,1.384247899E0,1.240678549E0,9.376873970E0
2.655219633E2,1.360917926E0,1.247258782E0,9.705288887E0
2.660219633E2,1.317248821E0,1.167697430E0,9.762716293E0
2.665219633E2,1.338186026E0,1.204786181E0,9.720842361E0
2.670219633E2,1.351346612E0,1.167697430E0,9.692128181E0
2.675219633E2,1.250249863E0,1.150349498E0,9.770493507E0
2.680219633E2,1.246062398E0,1.188036442E0,9.606584549E0
2.685219633E2,1.333400369E0,1.240678549E0,9.598808289E0
2.690219633E2,1.290329576E0,1.268195987E0,9.580862045E0
2.695219633E2,1.359123230E0,1.219143152E0,9.644271851E0
2.700219633E2,1.354337573E0,1.229910851E0,9.694520950E0
2.705219633E2,1.295115232E0,1.253839016E0,9.616155624E0
2.710219633E2,1.300499082E0,1.202393413E0,9.625128746E0
2.715219633E2,1.386640668E0,1.228714466E0,9.730413437E0
2.720219633E2,1.347757339E0,1.174277663E0,9.622735977E0
2.725219633E2,1.350748420E0,1.143769264E0,9.787840843E0
2.730219633E2,1.363908887E0,1.133001566E0,9.571290970E0
2.735219633E2,1.301695466E0,1.162911773E0,9.649057388E0
2.740219633E2,1.113260746E0,1.204187989E0,9.467801094E0
2.745219633E2,1.067198873E0,1.154536963E0,9.740582466E0
2.750219633E2,1.100698471E0,1.149751306E0,9.802198410E0
2.755219633E2,1.083350420E0,1.156331539E0,9.651450157E0
2.760219633E2,1.017547846E0,1.221535921E0,9.662218094E0
2.765219633E2,9.379864931E-1,1.129412293E0,1.001336479E1
2.770219633E2,1.097707391E0,1.257428288E0,9.531210899E0
2.775219633E2,1.009771109E0,1.138983607E0,9.722636223E0
2.780219633E2,9.822536707E-1,1.145563841E0,9.751350403E0
2.785219633E2,8.949156404E-1,1.134197950E0,9.678369522E0
2.790219633E2,1.027119160E0,1.176072359E0,9.665208817E0
2.795219633E2,9.750752449E-1,1.148554921E0,9.774082184E0
2.800219633E2,8.841479421E-1,1.211964726E0,9.667003632E0
2.805219633E2,8.536394835E-1,1.215553880E0,9.708877563E0
2.810219633E2,8.267202377E-1,1.202991605E0,9.708279610E0
2.815219633E2,8.003991842E-1,1.189831018E0,9.708877563E0
2.820219633E2,8.386843204E-1,1.171286702E0,9.711869240E0
2.825219633E2,8.614161611E-1,1.116251707E0,9.794421196E0
2.830219633E2,8.644071817E-1,1.212562919E0,9.695717812E0
2.835219633E2,8.213363886E-1,1.225125194E0,9.773484230E0
2.840219633E2,8.458628058E-1,1.229910851E0,9.664012909E0
2.845219633E2,8.931210637E-1,1.242473125E0,9.718449593E0
2.850219633E2,8.691928387E-1,1.295713425E0,9.673583984E0
2.855219633E2,8.536394835E-1,1.179063320E0,9.682557106E0
2.860219633E2,8.578268886E-1,1.134197950E0,9.707083702E0
2.865219633E2,8.297112584E-1,1.214357495E0,9.675378799E0
2.870219633E2,8.003991842E-1,1.189831018E0,9.719645500E0
2.875219633E2,8.578268886E-1,1.162911773E0,9.732208252E0
2.880219633E2,8.027920127E-1,1.208973646E0,9.718449593E0
2.885219633E2,8.099704385E-1,1.190429211E0,9.718449593E0
2.890219633E2,8.727820516E-1,1.147358418E0,9.717850685E0
2.895219633E2,8.566305041E-1,1.156929731E0,9.745368004E0
2.900219633E2,8.865407705E-1,1.204786181E0,9.735198975E0
2.905219633E2,8.327022791E-1,1.185643673E0,9.726225853E0
2.910219633E2,7.866404653E-1,1.183250785E0,9.717850685E0
2.915219633E2,8.548358679E-1,1.191625714E0,9.711869240E0
2.920219633E2,7.836494446E-1,1.171286702E0,9.718449593E0
2.925219633E2,8.231309652E-1,1.197607756E0,9.682557106E0
2.930219633E2,8.602197170E-1,1.140179992E0,9.731011391E0
2.935219633E2,8.871390224E-1,1.135992527E0,9.696913719E0
2.940219633E2,8.297112584E-1,1.116850019E0,9.770493507E0
2.945219633E2,8.231309652E-1,1.188036442E0,9.711869240E0
2.950219633E2,7.752745152E-1,1.134197950E0,9.707083702E0
2.955219633E2,7.860422134E-1,1.137787223E0,9.598209381E0
2.960219633E2,8.171489239E-1,1.121635556E0,9.734002113E0
2.965219633E2,7.740781307E-1,1.140179992E0,9.693922997E0
2.970219633E2,7.830511928E-1,1.084546804E0,9.679565430E0
2.975219633E2,8.727820516E-1,1.141974568E0,9.780662537E0
2.980219633E2,7.878368497E-1,1.102493048E0,9.729216576E0
2.985219633E2,8.297112584E-1,1.156929731E0,9.723235130E0
2.990219633E2,7.836494446E-1,1.124626637E0,9.781859398E0
2.995219633E2,7.878368497E-1,1.143769264E0,9.675378799E0
3.000219633E2,7.770691514E-1,1.116251707E0,9.821340561E0
3.005219633E2,7.621139884E-1,1.044467092E0,9.689137459E0
3.010219633E2,8.392825127E-1,1.144965649E0,9.684351921E0
3.015219633E2,8.392825127E-1,1.106680512E0,9.828518867E0
3.020219633E2,8.374879360E-1,1.128215909E0,9.654440880E0
3.025219633E2,8.985049129E-1,1.102493048E0,9.711270332E0
3.030219633E2,7.543373108E-1,1.094716311E0,9.739984512E0
3.035219633E2,7.016952634E-1,9.487541914E-1,9.859625816E0
3.040219633E2,7.148557901E-1,9.744769931E-1,9.887143135E0
3.045219633E2,3.505485058E-1,1.329213023E0,9.092725754E0
3.050219633E2,-7.776673418E-3,1.295115232E0,9.763913155E0
3.055219633E2,-6.209374666E-1,1.346560955E0,9.735198975E0
3.060219633E2,-7.465606928E-1,1.274178028E0,9.864411354E0
3.065219633E2,-5.850451589E-1,1.293918848E0,9.817152977E0
3.070219633E2,-5.994020700E-1,1.255035520E0,9.692726135E0
3.075219633E2,-5.377869010E-1,1.274776220E0,9.702297211E0
3.080219633E2,-5.407779217E-1,1.221535921E0,9.708279610E0
3.085219633E2,-5.216353536E-1,1.199402332E0,9.759725571E0
3.090219633E2,-4.229314029E-1,1.491924882E0,9.692128181E0
3.095219633E2,-3.433700502E-1,1.276570916E0,9.778867722E0
3.100219633E2,-2.356930375E-1,1.253839016E0,9.607781410E0
3.105219633E2,-4.007977843E-1,1.229910851E0,9.870991707E0
3.110219633E2,-3.188436031E-1,1.265205026E0,9.895518303E0
3.115219633E2,-1.686939895E-1,1.213759303E0,9.852447510E0
3.120219633E2,-2.614158690E-1,1.279561877E0,9.561718941E0
3.125219633E2,3.708875179E-2,1.220339537E0,9.818349838E0
3.130219633E2,-8.913264424E-2,1.243071318E0,9.909276962E0
3.135219633E2,-1.878365725E-1,1.255633712E0,9.775279045E0
3.140219633E2,-2.057827413E-1,1.234696507E0,9.857233047E0
3.145219633E2,1.794617064E-2,1.278963685E0,9.654440880E0
3.150219633E2,-8.255238086E-2,1.195214868E0,9.732208252E0
3.155219633E2,-2.691925503E-2,1.316052437E0,9.737591743E0
3.160219633E2,-1.405783296E-1,1.226321578E0,9.856635094E0
3.165219633E2,-1.794616925E-3,1.116850019E0,9.750154495E0
3.170219633E2,2.512463741E-2,1.312463164E0,9.606584549E0
3.175219633E2,2.440679073E-1,1.168893814E0,9.697511673E0
3.180219633E2,3.445664644E-1,1.142572761E0,9.716654778E0
3.185219633E2,9.571290761E-2,1.264606714E0,9.864411354E0
3.190219633E2,2.458625287E-1,1.249053478E0,9.804591179E0
3.195219633E2,5.521438122E-1,9.858429432E-1,9.418149948E0
3.200219633E2,6.089733839E-1,1.228714466E0,9.622138023E0
3.205219633E2,2.440679073E-1,1.046859860E0,9.739984512E0
3.210219633E2,2.889333367E-1,1.604985833E0,9.622138023E0
3.215219633E2,5.491527915E-1,1.436890006E0,9.448657990E0
3.220219633E2,9.774680734E-1,8.488538265E-1,1.002114105E1
3.225219633E2,9.559326172E-1,1.065404296E0,9.986445427E0
3.230219633E2,1.018146038E0,9.954141974E-1,9.410373688E0
3.235219633E2,8.979067206E-1,1.216750264E0,9.392427444E0
3.240219633E2,7.627122402E-1,7.764709592E-1,9.985847473E0
3.245219633E2,1.001396298E0,1.063609719E0,1.064925671E1
3.250219633E2,9.696913958E-1,1.314856052E0,1.010249710E1
3.255219633E2,8.536394835E-1,9.170492887E-1,9.572486877E0
3.260219633E2,9.343972206E-1,1.266999602E0,1.002951622E1
3.265219633E2,8.105686903E-1,1.223330617E0,9.689137459E0
3.270219633E2,1.019342422E0,1.285543919E0,9.787840843E0
3.275219633E2,7.513462901E-1,1.027717352E0,9.855438232E0
3.280219633E2,9.080761671E-1,1.246062398E0,9.610772133E0
3.285219633E2,9.056833982E-1,1.370489120E0,9.367302895E0
3.290219633E2,9.302098155E-1,1.018146038E0,9.850652695E0
3.295219633E2,9.176474810E-1,1.204786181E0,9.636494637E0
3.300219633E2,9.361918569E-1,1.073180914E0,9.964909554E0
3.305219633E2,1.057627559E0,1.590030670E0,9.759725571E0
3.310219633E2,9.696913958E-1,1.293320656E0,9.687342644E0
3.315219633E2,7.387840152E-1,1.336391449E0,9.577870369E0
3.320219633E2,1.030110121E0,1.448255897E0,9.787840843E0
3.325219633E2,1.080359459E0,1.456630826E0,9.790233612E0
3.330219633E2,8.422735929E-1,1.441675663E0,9.808777809E0
3.335219633E2,1.007976532E0,1.429711580E0,9.933204651E0
3.340219633E2,8.805587292E-1,1.327418327E0,9.537791252E0
3.345219633E2,9.571290612E-1,1.183250785E0,9.540781975E0
3.350219633E2,8.021938205E-1,1.374676585E0,9.699306488E0
3.355219633E2,1.003190875E0,1.281356573E0,9.625128746E0
3.360219633E2,9.798609018E-1,1.354337573E0,9.716654778E0
3.365219633E2,9.637092948E-1,1.049850941E0,9.847661972E0
3.370219633E2,1.314856052E0,1.092323542E0,9.694520950E0
3.375219633E2,1.571486235E0,1.019342422E0,9.677771568E0
3.380219633E2,8.823533654E-1,1.235892892E0,1.032443142E1
3.385219633E2,9.714859724E-1,1.434497118E0,9.897911072E0
3.390219633E2,1.034895778E0,1.331605792E0,9.684949875E0
3.395219633E2,1.044467092E0,1.176072359E0,9.778269768E0
3.400219633E2,9.349954724E-1,1.457827210E0,9.984052658E0
3.405219633E2,8.889335990E-1,1.046261668E0,9.620343208E0
3.410219633E2,8.548358679E-1,1.220339537E0,9.828518867E0
3.415219633E2,8.650053740E-1,1.324427366E0,9.726225853E0
3.420219633E2,8.949156404E-1,1.235892892E0,9.742377281E0
3.425219633E2,8.554341197E-1,1.012762189E0,9.676574707E0
3.430219633E2,9.104689956E-1,1.226321578E0,9.699306488E0
3.435219633E2,9.954141974E-1,1.185045362E0,9.855438232E0
3.440219633E2,9.906286001E-1,1.042074203E0,9.749555588E0
3.445219633E2,1.020538807E0,1.049850941E0,9.898509026E0
3.450219633E2,6.095715761E-1,1.195214868E0,9.847661972E0
3.455219633E2,8.578268886E-1,1.216750264E0,9.646664619E0
3.460219633E2,7.956135273E-1,1.084546804E0,9.777072906E0
3.465219633E2,8.554341197E-1,9.427721500E-1,9.711270332E0
3.470219633E2,8.913264275E-1,8.745766878E-1,9.672985077E0
3.475219633E2,7.908278704E-1,1.178465128E0,9.574281693E0
3.480219633E2,8.422735929E-1,1.130608678E0,9.850652695E0
3.485219633E2,8.135597110E-1,9.236295223E-1,9.893125534E0
3.490219633E2,8.009973764E-1,9.110672474E-1,9.630513191E0
3.495219633E2,8.841479421E-1,8.614161611E-1,9.841081619E0
3.500219633E2,1.025922656E0,1.102493048E0,9.588638306E0
3.505219633E2,6.669993401E-1,1.490130305E0,8.738588333E0
3.510219633E2,8.679963946E-1,1.491326690E0,9.506086349E0
3.515219633E2,9.409775138E-1,1.083350420E0,1.005464077E1
3.520219633E2,2.650051117E-1,7.830511928E-1,1.004207802E1
3.525219633E2,3.541377485E-1,1.161715388E0,9.706484795E0
3.530219633E2,2.632105052E-1,1.092323542E0,9.763913155E0
3.535219633E2,2.422732860E-1,9.493523836E-1,9.946365356E0
3.540219633E2,2.901297510E-1,1.089332461E0,9.810572624E0
3.545219633E2,4.097708762E-1,8.817551732E-1,9.893125534E0
3.550219633E2,2.566302419E-1,1.068993568E0,9.827920914E0
3.555219633E2,2.811566591E-1,1.081555843E0,9.652647018E0
3.560219633E2,3.062812984E-1,8.099704385E-1,9.625727654E0
3.565219633E2,2.171486616E-1,1.076770186E0,9.850054741E0
3.570219633E2,3.098705411E-1,9.218349457E-1,9.815358162E0
3.575219633E2,2.219343036E-1,8.823533654E-1,9.702297211E0
3.580219633E2,2.805584669E-1,8.039883971E-1,9.943374634E0
3.585219633E2,2.667997181E-1,9.810572863E-1,9.720842361E0
3.590219633E2,2.285145670E-1,9.104689956E-1,9.628718376E0
3.595219633E2,2.811566591E-1,9.619147182E-1,9.736993790E0
3.600219633E2,3.128615618E-1,1.097707391E0,1.022034359E1
3.605219633E2,1.052841991E-1,7.645068169E-1,9.211171150E0
3.610219633E2,2.859423161E-1,8.027920127E-1,9.369096756E0
3.615219633E2,2.667997181E-1,9.535398483E-1,9.817152977E0
3.620219633E2,2.117647976E-1,9.840483069E-1,9.619147301E0
3.625219633E2,3.337987661E-1,7.770691514E-1,9.928419113E0
3.630219633E2,2.219343036E-1,6.233302951E-1,9.707083702E0
3.635219633E2,2.524427772E-1,5.790630579E-1,9.877572060E0
3.640219633E2,-5.443671346E-2,7.046862841E-1,9.617352486E0
3.645219633E2,-1.752742529E-1,6.251249313E-1,9.661021233E0
3.650219633E2,-7.776673883E-2,6.287141442E-1,9.794421196E0
3.655219633E2,-1.663011760E-1,4.295116663E-1,9.954142570E0
3.660219633E2,-8.315058798E-2,5.282155871E-1,9.689735413E0
3.665219633E2,7.776673883E-2,5.826523304E-1,9.864411354E0
3.670219633E2,2.620140910E-1,5.850451589E-1,9.724431038E0
3.675219633E2,3.002992272E-1,8.386843204E-1,9.821938515E0
3.680219633E2,3.146561682E-1,8.123632669E-1,9.726225853E0
3.685219633E2,2.997010350E-1,8.051848412E-1,9.880562782E0
3.690219633E2,3.014956415E-1,1.063609719E0,1.004985523E1
3.695219633E2,2.548356056E-1,1.095912814E0,9.780064583E0
3.700219633E2,1.549352705E-1,8.841479421E-1,9.702297211E0
3.705219633E2,1.280160099E-1,7.686942816E-1,9.480362892E0
3.710219633E2,1.974078715E-1,7.501499057E-1,9.762716293E0
3.715219633E2,2.757728100E-1,7.980063558E-1,9.909276962E0
3.720219633E2,3.505485058E-1,1.051047325E0,9.767501831E0
3.725219633E2,2.835494876E-1,9.445667267E-1,9.898509026E0
3.730219633E2,1.591227055E-1,7.962117195E-1,9.802796364E0
3.735219633E2,2.279163599E-1,9.583254457E-1,9.760921478E0
3.740219633E2,2.315055877E-1,8.584251404E-1,9.753145218E0
3.745219633E2,2.380858511E-1,7.429714203E-1,9.775876999E0
3.750219633E2,2.524427772E-1,6.047859192E-1,9.865009308E0
3.755219633E2,2.452643216E-1,1.022931695E0,9.719645500E0
3.760219633E2,2.488535494E-1,7.381857634E-1,9.973284721E0
3.765219633E2,8.255238086E-2,8.578268886E-1,9.876375198E0
3.770219633E2,2.362912297E-1,9.158528447E-1,9.773484230E0
3.775219633E2,1.896311939E-1,6.364908218E-1,9.716055870E0
3.780219633E2,1.950150430E-1,7.262216806E-1,9.757930756E0
3.785219633E2,2.757728100E-1,7.082754970E-1,9.725627899E0
3.790219633E2,1.950150430E-1,6.287141442E-1,9.707083702E0
3.795219633E2,2.087737769E-1,5.587241054E-1,9.542576790E0
3.800219633E2,4.354937077E-1,5.012963414E-1,1.013599682E1
3.805219633E2,4.929214716E-1,4.384847581E-1,9.562915802E0
3.810219633E2,6.975077987E-1,4.366901219E-1,9.646664619E0
3.815219633E2,7.752745152E-1,5.916253924E-1,9.986445427E0
3.820219633E2,9.732806087E-1,5.916253924E-1,9.698708534E0
3.825219633E2,9.762716293E-1,4.342973232E-1,9.818349838E0
3.830219633E2,9.140582681E-1,5.515456200E-1,9.797411919E0
3.835219633E2,1.059422255E0,7.112665176E-1,9.707083702E0
3.840219633E2,9.158528447E-1,5.712863803E-1,9.671789169E0
3.845219633E2,8.458628058E-1,7.531409264E-1,9.817152977E0
3.850219633E2,1.040279627E0,5.850451589E-1,9.863214493E0
3.855219633E2,9.367900491E-1,7.543373108E-1,9.971489906E0
3.860219633E2,9.284151793E-1,7.016952634E-1,9.802796364E0
3.865219633E2,1.011565804E0,7.304090858E-1,9.714859962E0
3.870219633E2,1.082752228E0,8.135597110E-1,9.760921478E0
3.875219633E2,8.997012973E-1,7.674978375E-1,9.714859962E0
3.880219633E2,9.397810698E-1,8.039883971E-1,9.863214493E0
3.885219633E2,8.500502706E-1,7.878368497E-1,9.542576790E0
3.890219633E2,1.013360381E0,7.848458290E-1,9.652647018E0
3.895219633E2,8.997012973E-1,6.185446382E-1,9.811769485E0
3.900219633E2,1.003789067E0,7.190431952E-1,9.834501266E0
3.905219633E2,1.032503009E0,8.051848412E-1,9.930213928E0
3.910219633E2,1.028913736E0,7.944171429E-1,9.440881729E0
3.915219633E2,1.087537885E0,8.261220455E-1,9.786644936E0
3.920219633E2,1.086341500E0,7.405785918E-1,9.693922997E0
3.925219633E2,1.170688510E0,7.166503668E-1,9.911071777E0
3.930219633E2,9.487541914E-1,7.812566161E-1,9.893723488E0
3.935219633E2,1.043270707E0,7.064808607E-1,9.705288887E0
3.940219633E2,1.082752228E0,7.513462901E-1,9.748359680E0
3.945219633E2,1.060618639E0,7.052844763E-1,9.706484795E0
3.950219633E2,1.008574724E0,7.196413875E-1,9.796216011E0
3.955219633E2,1.178465128E0,7.130611539E-1,9.756135941E0
3.960219633E2,1.146760225E0,7.848458290E-1,9.927223206E0
3.965219633E2,1.083350420E0,7.543373108E-1,9.845269203E0
3.970219633E2,5.994020700E-1,8.147560954E-1,9.611370087E0
3.975219633E2,6.921239495E-1,8.099704385E-1,9.845269203E0
3.980219633E2,6.448656917E-1,7.914260626E-1,9.740582466E0
3.985219633E2,6.616154313E-1,7.046862841E-1,9.877572060E0
3.990219633E2,7.782655358E-1,7.944171429E-1,9.542576790E0
3.995219633E2,7.956135273E-1,7.447660565E-1,1.011505985E1
4.000219633E2,1.019342422E0,8.075776696E-1,9.766305923E0
4.005219633E2,1.089930773E0,8.745766878E-1,9.677771568E0
4.010219633E2,1.097707391E0,7.836494446E-1,9.811769485E0
4.015219633E2,1.105484009E0,8.434699774E-1,9.756733894E0
4.020219633E2,1.077966571E0,8.039883971E-1,9.851848602E0
4.025219633E2,1.134197950E0,8.087740541E-1,9.832706451E0
4.030219633E2,9.798609018E-1,8.039883971E-1,9.796216011E0
4.035219633E2,9.014959335E-1,8.123632669E-1,9.724431038E0
4.040219633E2,9.990034699E-1,8.554341197E-1,9.732806206E0
4.045219633E2,7.357929349E-1,7.932206988E-1,9.847063065E0
4.050219633E2,6.699903607E-1,7.657032609E-1,9.791430473E0
4.055219633E2,1.663011760E-1,1.000199914E0,9.714859962E0
4.060219633E2,5.455635786E-1,8.721838593E-1,9.682557106E0
4.065219633E2,2.524427772E-1,8.919246197E-1,9.741779327E0
4.070219633E2,3.559323549E-1,8.745766878E-1,9.749555588E0
4.075219633E2,1.896311939E-1,8.602197170E-1,9.775876999E0
4.080219633E2,3.272185028E-1,8.602197170E-1,9.728020668E0
4.085219633E2,2.691925466E-1,8.673982024E-1,9.783653259E0
4.090219633E2,2.458625287E-1,8.901300430E-1,9.866206169E0
4.095219633E2,2.775674164E-1,8.919246197E-1,9.753145218E0
4.100219633E2,2.309073806E-1,8.697910309E-1,9.772287369E0
4.105219633E2,2.889333367E-1,8.997012973E-1,9.795019150E0
4.110219633E2,2.602194548E-1,9.104689956E-1,9.823733330E0
4.115219633E2,3.074777126E-1,8.709874153E-1,9.858428955E0
4.120219633E2,3.188436031E-1,8.727820516E-1,9.834501266E0
4.125219633E2,2.602194548E-1,9.188438654E-1,9.781859398E0
4.130219633E2,3.236292601E-1,9.224331379E-1,9.753145218E0
4.135219633E2,2.931207716E-1,9.320043921E-1,9.828518867E0
4.140219633E2,2.422732860E-1,8.632107973E-1,9.765707016E0
4.145219633E2,2.422732860E-1,8.338986635E-1,9.780064583E0
4.150219633E2,2.679961324E-1,8.231309652E-1,9.874580383E0
4.155219633E2,2.620140910E-1,9.541380405E-1,9.664012909E0
4.160219633E2,2.404786795E-1,9.158528447E-1,9.803992271E0
4.165219633E2,2.440679073E-1,9.206385016E-1,9.743574142E0
4.170219633E2,2.901297510E-1,8.997012973E-1,9.729216576E0
4.175219633E2,2.709871531E-1,8.165507317E-1,9.891928673E0
4.180219633E2,2.470589429E-1,8.673982024E-1,9.732806206E0
4.185219633E2,2.901297510E-1,8.913264275E-1,9.676574707E0
4.190219633E2,2.075773627E-1,8.709874153E-1,9.744770050E0
4.195219633E2,2.410768867E-1,8.889335990E-1,9.738788605E0
4.200219633E2,2.506481707E-1,8.931210637E-1,9.831509590E0
4.205219633E2,2.362912297E-1,8.614161611E-1,9.724431038E0
4.210219633E2,2.901297510E-1,8.697910309E-1,9.790233612E0
4.215219633E2,2.596212626E-1,8.721838593E-1,9.795019150E0
4.220219633E2,2.572284341E-1,9.014959335E-1,9.777072906E0
4.225219633E2,2.518445849E-1,8.835497499E-1,9.759127617E0
4.230219633E2,2.315055877E-1,8.614161611E-1,9.775876999E0
4.235219633E2,2.548356056E-1,8.919246197E-1,9.737591743E0
4.240219633E2,2.470589429E-1,8.817551732E-1,9.732208252E0
4.245219633E2,2.506481707E-1,8.602197170E-1,9.745368004E0
4.250219633E2,2.859423161E-1,8.913264275E-1,9.806983948E0
4.255219633E2,2.614158690E-1,8.967102766E-1,9.785448074E0
4.260219633E2,2.458625287E-1,8.865407705E-1,9.761520386E0
4.265219633E2,2.261217386E-1,9.032905698E-1,9.694520950E0
4.270219633E2,2.404786795E-1,8.913264275E-1,9.737591743E0
4.275219633E2,-1.310070455E-1,1.067198873E0,9.278169632E0
4.280219633E2,-6.843472719E-1,8.937192559E-1,9.799804688E0
4.285219633E2,-7.770691514E-1,9.176474810E-1,9.778269768E0
4.290219633E2,-8.775677085E-1,9.589236975E-1,9.590433121E0
4.295219633E2,-8.961120844E-1,9.343972206E-1,9.735198975E0
4.300219633E2,-6.155536175E-1,8.279166222E-1,9.876375198E0
4.305219633E2,-7.417750359E-1,8.410771489E-1,9.777072906E0
4.310219633E2,-6.873382926E-1,8.069794178E-1,9.855438232E0
4.315219633E2,-6.957131624E-1,8.165507317E-1,9.790233612E0
4.320219633E2,-7.160521746E-1,8.171489239E-1,9.827920914E0
4.325219633E2,-6.616154313E-1,8.201399446E-1,9.893125534E0
4.330219633E2,-7.064808607E-1,8.404789567E-1,9.761520386E0
4.335219633E2,-6.975077987E-1,8.727820516E-1,9.780662537E0
4.340219633E2,-7.130611539E-1,7.812566161E-1,9.821938515E0
4.345219633E2,-6.921239495E-1,7.962117195E-1,9.701699257E0
4.350219633E2,-6.717849374E-1,7.477570772E-1,9.925428391E0
4.355219633E2,-6.957131624E-1,7.525427341E-1,9.905089378E0
4.360219633E2,-7.166503668E-1,7.645068169E-1,9.747162819E0
4.365219633E2,-7.734799385E-1,7.561319470E-1,9.681360245E0
4.370219633E2,-8.967102766E-1,6.526423693E-1,9.943374634E0
4.375219633E2,-7.022934556E-1,6.364908218E-1,9.850054741E0
4.380219633E2,-5.102694035E-1,5.204389095E-1,1.002473068E1
4.385219633E2,-7.046862841E-1,6.586244106E-1,9.890732765E0
4.390219633E2,-9.762716293E-1,3.571287692E-1,9.667003632E0
4.395219633E2,-8.219345808E-1,6.185446382E-1,9.952945709E0
4.400219633E2,-7.944171429E-1,2.285145670E-1,1.001815033E1
4.405219633E2,-7.914260626E-1,3.349951804E-1,9.954142570E0
4.410219633E2,-6.586244106E-1,3.457628787E-1,9.835697174E0
4.415219633E2,-5.036891699E-1,5.970092416E-1,9.510273933E0
4.420219633E2,-6.861419082E-1,2.452643216E-1,1.000678444E1
4.425219633E2,-1.244267747E-1,3.349951804E-1,9.811769485E0
4.430219633E2,-1.435693651E-1,4.031906128E-1,9.940981865E0
4.435219633E2,4.049852192E-1,5.024927258E-1,9.628718376E0
4.440219633E2,4.498506486E-1,2.985046208E-1,9.834501266E0
4.445219633E2,4.642075896E-1,5.886343718E-1,9.810572624E0
4.450219633E2,4.271188378E-1,4.785645306E-1,9.786644936E0
4.455219633E2,4.193421602E-1,6.269195080E-1,9.502496719E0
4.460219633E2,4.845465720E-1,6.161518097E-1,9.467801094E0
4.465219633E2,4.845465720E-1,5.491527915E-1,9.517452240E0
4.470219633E2,4.289134443E-1,4.803591371E-1,9.860223770E0
4.475219633E2,3.864408433E-1,7.405785918E-1,9.826724052E0
4.480219633E2,3.589234054E-1,4.630111754E-1,9.864411354E0
4.485219633E2,3.062812984E-1,7.429714203E-1,9.828518867E0
4.490219633E2,2.554338276E-1,4.671986103E-1,9.795019150E0
4.495219633E2,2.997010350E-1,6.107679605E-1,9.922437668E0
4.500219633E2,2.805584669E-1,4.103690982E-1,9.641280174E0
4.505219633E2,2.793620527E-1,5.156532526E-1,9.614361763E0
4.510219633E2,3.320041299E-1,4.432703853E-1,9.706484795E0
4.515219633E2,3.002992272E-1,5.138586760E-1,9.156135559E0
4.520219633E2,3.284149170E-1,5.820540786E-1,9.591629982E0
4.525219633E2,2.985046208E-1,5.330012441E-1,9.689137459E0
4.530219633E2,2.488535494E-1,5.467599630E-1,9.653842926E0
4.535219633E2,3.415754437E-1,5.856433511E-1,9.635298729E0
4.540219633E2,3.475574851E-1,3.888336718E-1,9.671789169E0
4.545219633E2,4.271188378E-1,5.359922647E-1,9.812367439E0
4.550219633E2,3.906283081E-1,4.677968323E-1,9.682557106E0
4.555219633E2,3.792623878E-1,5.072783828E-1,9.928419113E0
4.560219633E2,2.727817893E-1,4.893322289E-1,1.014736271E1
4.565219633E2,3.242274821E-1,4.863412082E-1,9.986445427E0
4.570219633E2,2.069791555E-1,5.778666735E-1,9.880562782E0
4.575219633E2,2.153540403E-1,4.336991012E-1,9.667003632E0
4.580219633E2,2.662015259E-1,5.874379873E-1,9.909874916E0
4.585219633E2,2.620140910E-1,7.405785918E-1,9.855438232E0
4.590219633E2,3.176472187E-1,4.462614357E-1,9.981060982E0
4.595219633E2,2.883351147E-1,5.198407173E-1,9.814162254E0
4.600219633E2,3.625126183E-1,6.095715761E-1,9.833304405E0
4.605219633E2,4.151547253E-1,5.491527915E-1,9.938589096E0
4.610219633E2,3.744767308E-1,4.773681164E-1,9.888339996E0
4.615219633E2,3.349951804E-1,5.108676553E-1,9.857233047E0
4.620219633E2,4.528416991E-1,3.888336718E-1,9.834501266E0
4.625219633E2,3.415754437E-1,7.064808607E-1,9.703494072E0
4.630219633E2,4.127618968E-1,5.120640397E-1,9.828518867E0
4.635219633E2,4.468596280E-1,5.132604837E-1,1.014556789E1
4.640219633E2,3.810569942E-1,5.102694035E-1,9.890732765E0
4.645219633E2,2.811566591E-1,3.607180119E-1,9.872786522E0
4.650219633E2,2.901297510E-1,2.985046208E-1,1.017428207E1
4.655219633E2,2.410768867E-1,2.859423161E-1,9.671789169E0
4.660219633E2,3.984049559E-1,2.793620527E-1,9.990633011E0
4.665219633E2,1.609173268E-1,1.357926875E-1,9.818947792E0
4.670219633E2,3.026920557E-1,5.443671346E-2,9.991230965E0
4.675219633E2,5.144568533E-2,1.495514214E-1,9.963713646E0
4.680219633E2,2.297109663E-1,1.663011760E-1,9.955338478E0
4.685219633E2,2.452643216E-1,4.372883439E-1,9.792626381E0
4.690219633E2,2.679961324E-1,3.672982752E-1,9.585647583E0
4.695219633E2,4.534398913E-1,3.732803464E-1,9.933204651E0
4.700219633E2,2.739782035E-1,6.251249313E-1,9.649057388E0
4.705219633E2,3.427718580E-1,7.848458290E-1,9.754341125E0
4.710219633E2,2.153540403E-1,1.068993568E0,9.725627899E0
4.715219633E2,1.567298770E-1,1.116850019E0,9.754341125E0
4.720219633E2,3.702892959E-1,1.061216831E0,9.897911072E0
4.725219633E2,2.297109663E-1,1.194616675E0,9.760921478E0
4.730219633E2,3.696911037E-1,1.128215909E0,9.580862045E0
4.735219633E2,3.332005441E-1,1.021137118E0,9.824930191E0
4.740219633E2,6.496513486E-1,1.186840057E0,9.674779892E0
4.745219633E2,5.467599630E-1,1.113858938E0,9.764511108E0
4.750219633E2,6.442674994E-1,1.477568030E0,9.754341125E0
4.755219633E2,8.057830334E-1,1.727617979E0,9.672985077E0
4.760219633E2,7.339983582E-1,1.336989641E0,9.553942680E0
4.765219633E2,8.985049129E-1,1.338784218E0,9.721440315E0
4.770219633E2,8.865407705E-1,1.151545882E0,9.747162819E0
4.775219633E2,1.103689432E0,1.102493048E0,9.930213928E0
4.780219633E2,7.896314859E-1,1.328614831E0,9.899705887E0
4.785219633E2,9.936196208E-1,1.330409408E0,9.449854851E0
4.790219633E2,1.464407444E0,1.219143152E0,9.744770050E0
4.795219633E2,1.074975610E0,9.104689956E-1,9.869794846E0
4.800219633E2,1.463211060E0,1.116850019E0,9.823135376E0
4.805219633E2,1.390828133E0,9.224331379E-1,9.904491425E0
4.810219633E2,1.386042476E0,1.191625714E0,9.631709099E0
4.815219633E2,1.553540111E0,8.901300430E-1,9.736993790E0
4.820219633E2,1.453639746E0,8.362914920E-1,9.708877563E0
4.825219633E2,1.396211982E0,1.014556766E0,9.689137459E0
4.830219633E2,1.520040631E0,8.644071817E-1,9.949356079E0
4.835219633E2,1.530210137E0,9.409775138E-1,9.701699257E0
4.840219633E2,1.550549030E0,9.427721500E-1,9.598808289E0
4.845219633E2,1.413560033E0,1.100698471E0,9.261420250E0
4.850219633E2,1.372283816E0,1.028913736E0,9.501300812E0
4.855219633E2,1.027717352E0,1.031904817E0,9.960124016E0
4.860219633E2,1.986042738E0,9.954141974E-1,9.610772133E0
4.865219633E2,1.788036704E0,9.876375198E-1,9.809376717E0
4.870219633E2,1.446461320E0,9.810572863E-1,9.716055870E0
4.875219633E2,1.370489120E0,9.924231768E-1,9.729216576E0
4.880219633E2,1.330409408E0,8.841479421E-1,9.798010826E0
4.885219633E2,1.127617717E0,9.828519225E-1,9.864411354E0
4.890219633E2,1.137188911E0,9.343972206E-1,9.756135941E0
4.895219633E2,1.058824062E0,1.021137118E0,9.681360245E0
4.900219633E2,1.089332461E0,9.876375198E-1,9.771091461E0
4.905219633E2,1.046859860E0,9.828519225E-1,9.786644936E0
4.910219633E2,1.036690354E0,1.054636598E0,9.668199539E0
4.915219633E2,1.082752228E0,1.004985452E0,9.692128181E0
4.920219633E2,8.440681696E-1,1.044467092E0,9.708877563E0
4.925219633E2,1.022333503E0,1.021137118E0,9.798010826E0
4.930219633E2,7.848458290E-1,1.110269666E0,9.716055870E0
4.935219633E2,-2.039881349E-1,1.319641709E0,9.978070259E0
4.940219633E2,9.397810698E-1,1.013360381E0,9.772287369E0
4.945219633E2,1.549352705E-1,1.233500123E0,9.628718376E0
4.950219633E2,3.188436031E-1,1.128215909E0,9.744770050E0
4.955219633E2,2.763710022E-1,1.105484009E0,9.745368004E0
4.960219633E2,3.577269912E-1,1.061216831E0,9.767501831E0
4.965219633E2,2.901297510E-1,1.121037364E0,9.789635658E0
4.970219633E2,2.955136001E-1,1.140778184E0,9.765707016E0
4.975219633E2,2.745763958E-1,1.078564763E0,9.740582466E0
4.980219633E2,2.566302419E-1,1.130608678E0,9.783055305E0
4.985219633E2,3.224328458E-1,1.082752228E0,9.799804688E0
4.990219633E2,3.032902777E-1,1.142572761E0,9.725627899E0
4.995219633E2,3.828516304E-1,1.180259824E0,9.783653259E0
5.000219633E2,3.762713671E-1,1.247258782E0,9.761520386E0
5.005219633E2,4.325026870E-1,1.333400369E0,9.718449593E0
5.010219633E2,4.079762697E-1,1.325623751E0,9.826724052E0
5.015219633E2,3.888336718E-1,1.381256819E0,9.706484795E0
5.020219633E2,3.906283081E-1,1.326820135E0,9.689137459E0
5.025219633E2,5.324030519E-1,1.460818172E0,9.635298729E0
5.030219633E2,5.371887088E-1,1.413560033E0,9.693922997E0
5.035219633E2,4.223332107E-1,1.435693622E0,9.717850685E0
5.040219633E2,4.773681164E-1,1.446461320E0,9.713065147E0
5.045219633E2,4.630111754E-1,1.440479279E0,9.669994354E0
5.050219633E2,4.510470629E-1,1.410568953E0,9.728020668E0
5.055219633E2,4.390829504E-1,1.383051515E0,9.682557106E0
5.060219633E2,4.701896608E-1,1.326820135E0,9.773484230E0
5.065219633E2,4.103690982E-1,1.365105271E0,9.711869240E0
5.070219633E2,5.359922647E-1,1.466202021E0,9.823733330E0
5.075219633E2,5.778666735E-1,1.304686546E0,9.753145218E0
5.080219633E2,3.924229145E-1,1.384846091E0,9.634700775E0
5.085219633E2,4.528416991E-1,1.292124271E0,9.769296646E0
5.090219633E2,4.558327198E-1,1.325623751E0,9.705288887E0
5.095219633E2,4.193421602E-1,1.327418327E0,9.716055870E0
5.100219633E2,4.103690982E-1,1.357328653E0,9.670592308E0
5.105219633E2,4.133601189E-1,1.319043517E0,9.706484795E0
5.110219633E2,3.601198196E-1,1.289133191E0,9.654440880E0
5.115219633E2,3.990031779E-1,1.178465128E0,9.817152977E0
5.120219633E2,3.816552162E-1,1.171286702E0,9.735796928E0
5.125219633E2,3.858426511E-1,1.191625714E0,9.750154495E0
5.130219633E2,3.876372576E-1,1.228116274E0,9.754940033E0
5.135219633E2,3.714857101E-1,1.236491084E0,9.732208252E0
5.140219633E2,3.409772217E-1,1.153340459E0,9.765707016E0
5.145219633E2,-4.438686073E-1,1.243071318E0,1.012283611E1
5.150219633E2,-6.089733839E-1,1.283749342E0,9.662218094E0
5.155219633E2,-6.855437160E-1,1.269990563E0,9.692128181E0
5.160219633E2,-7.130611539E-1,1.306481123E0,9.692128181E0
5.165219633E2,-6.574280262E-1,1.355534077E0,9.701699257E0
5.170219633E2,-6.329016089E-1,1.284347534E0,9.768698692E0
5.175219633E2,-7.387840152E-1,1.275972724E0,9.700503349E0
5.180219633E2,-7.244270444E-1,1.246062398E0,9.730413437E0
5.185219633E2,-5.216353536E-1,1.182054400E0,9.805787086E0
5.190219633E2,-6.191428304E-1,1.255035520E0,9.796216011E0
5.195219633E2,-5.324030519E-1,1.240678549E0,9.932008743E0
5.200219633E2,-5.754738450E-1,1.326820135E0,9.623932838E0
5.205219633E2,-6.813562512E-1,1.274776220E0,9.665806770E0
5.210219633E2,-7.932206988E-1,1.269990563E0,9.847661972E0
5.215219633E2,-2.548356056E-1,1.817348838E0,9.641280174E0
5.220219633E2,1.914258152E-1,2.870190859E0,9.352945328E0
5.225219633E2,-1.274178028E-1,2.568096876E0,9.612566948E0
5.230219633E2,-3.529413417E-2,2.489732027E0,9.644271851E0
5.235219633E2,-1.076770201E-2,2.411965132E0,9.663414001E0
5.240219633E2,-5.084748194E-2,2.425125837E0,9.615557671E0
5.245219633E2,9.930214286E-2,2.378465652E0,9.496515274E0
5.250219633E2,2.548356056E-1,2.350948334E0,9.201001167E0
5.255219633E2,6.717849374E-1,2.662015200E0,9.090931892E0
5.260219633E2,3.397808075E-1,2.389831543E0,9.574281693E0
5.265219633E2,1.483550072E-1,1.959123492E0,9.587442398E0
5.270219633E2,1.130608693E-1,2.595614433E0,9.393025398E0
5.275219633E2,-2.823530734E-1,1.610967875E0,1.012642574E1
5.280219633E2,8.255238086E-2,2.676970243E0,9.522237778E0
5.285219633E2,-3.649054468E-2,1.630708575E0,1.009651470E1
5.290219633E2,1.022333503E0,2.394019127E0,9.311669350E0
5.295219633E2,1.193420291E0,2.252244234E0,9.295517921E0
5.300219633E2,1.166501045E0,2.132603168E0,9.410373688E0
5.305219633E2,1.048056364E0,2.209173441E0,8.782855988E0
5.310219633E2,1.284347534E0,2.137388945E0,9.346364975E0
5.315219633E2,9.762716293E-1,2.094317913E0,9.148957253E0
5.320219633E2,1.222134113E0,2.003988981E0,9.699306488E0
5.325219633E2,1.013360381E0,1.880758643E0,9.325428009E0
5.330219633E2,1.168893814E0,2.312663078E0,9.700503349E0
5.335219633E2,1.049850941E0,1.879562140E0,9.577870369E0
5.340219633E2,1.059422255E0,1.994417667E0,9.615557671E0
5.345219633E2,1.010967612E0,2.051845312E0,9.397810936E0
5.350219633E2,1.178465128E0,2.080559254E0,9.586843491E0
5.355219633E2,1.135992527E0,1.965703845E0,9.464211464E0
5.360219633E2,1.164706469E0,1.910668850E0,9.594022751E0
5.365219633E2,1.259821177E0,1.945963025E0,9.430712700E0
5.370219633E2,1.231705427E0,1.925624013E0,9.512666702E0
5.375219633E2,1.193420291E0,2.059622049E0,9.359525681E0
5.380219633E2,1.204187989E0,1.976471543E0,9.433703423E0
5.385219633E2,1.131206870E0,1.902892232E0,9.683155060E0
5.390219633E2,1.797608018E0,2.522035122E0,9.438488960E0
5.395219633E2,1.288534999E0,2.981456995E0,9.183652878E0
5.400219633E2,1.426122308E0,2.827120066E0,9.491130829E0
5.405219633E2,1.417747378E0,2.801397085E0,9.395418167E0
5.410219633E2,1.308275819E0,2.933600664E0,9.299705505E0
5.415219633E2,1.306481123E0,2.888735056E0,9.440283775E0
5.420219633E2,1.310070395E0,2.860021353E0,9.354740143E0
5.425219633E2,1.094118118E0,3.002394199E0,9.391230583E0
5.430219633E2,1.360319614E0,3.013760090E0,9.306883812E0
5.435219633E2,1.377069473E0,2.951546669E0,9.279366493E0
5.440219633E2,1.410568953E0,3.175873756E0,9.279366493E0
5.445219633E2,1.162911773E0,3.223730326E0,9.516854286E0
5.450219633E2,1.156331539E0,2.836691141E0,9.439086914E0
5.455219633E2,5.886343718E-1,2.702095032E0,9.622138023E0
5.460219633E2,5.521438122E-1,3.069393158E0,9.247062683E0
5.465219633E2,1.070788130E-1,2.932404041E0,9.419346809E0
5.470219633E2,5.802595019E-1,2.721835852E0,9.464810371E0
5.475219633E2,4.486542344E-1,2.973082066E0,9.665806770E0
5.480219633E2,5.407779217E-1,2.997608662E0,9.529416084E0
5.485219633E2,7.501499057E-1,2.793620348E0,9.424132347E0
5.490219633E2,1.169492126E0,2.602194548E0,9.314660072E0
5.495219633E2,1.403390527E0,2.513660192E0,9.256634712E0
5.500219633E2,1.513460279E0,2.636890650E0,9.486943245E0
5.505219633E2,1.692921996E0,2.515454769E0,9.430712700E0
5.510219633E2,1.547558069E0,2.423331022E0,9.330213547E0
5.515219633E2,1.628913999E0,2.539382935E0,9.401998520E0
5.520219633E2,1.580459356E0,2.605185747E0,9.512666702E0
5.525219633E2,1.504487276E0,2.509472847E0,9.503094673E0
5.530219633E2,1.594816327E0,2.622533560E0,9.333803177E0
5.535219633E2,1.590628862E0,2.578266382E0,9.237491608E0
5.540219633E2,2.170888424E0,2.121835470E0,9.184849739E0
5.545219633E2,1.708475351E0,2.298904419E0,9.314660072E0
5.550219633E2,1.772483349E0,2.447259426E0,9.488738060E0
5.555219633E2,1.828116536E0,2.517249346E0,9.291928291E0
5.560219633E2,1.777269006E0,2.325823545E0,9.330213547E0
5.565219633E2,1.631905079E0,2.149951220E0,9.233304024E0
5.570219633E2,1.166501045E0,2.502892494E0,9.519845009E0
5.575219633E2,1.065404296E0,2.298306227E0,9.562915802E0
5.580219633E2,1.028913736E0,2.266601324E0,9.759725571E0
5.585219633E2,9.822536707E-1,2.370688915E0,9.515657425E0
5.590219633E2,1.001994491E0,2.066202402E0,9.483952522E0
5.595219633E2,9.601200819E-1,2.265404940E0,9.577272415E0
5.600219633E2,8.901300430E-1,2.169093609E0,9.522237778E0
5.605219633E2,9.774680734E-1,2.185245275E0,9.641280174E0
5.610219633E2,9.343972206E-1,2.003988981E0,9.562915802E0
5.615219633E2,9.954141974E-1,2.062613010E0,9.440881729E0
5.620219633E2,9.122636318E-1,2.137987137E0,9.789635658E0
5.625219633E2,9.296116233E-1,2.090130568E0,9.440881729E0
5.630219633E2,9.032905698E-1,2.163111687E0,9.373284340E0
5.635219633E2,9.535398483E-1,2.072184324E0,9.486943245E0
5.640219633E2,9.619147182E-1,2.054836512E0,9.489934921E0
5.645219633E2,9.008977413E-1,2.199602127E0,9.569496155E0
5.650219633E2,1.007976532E0,1.928615093E0,9.531210899E0
5.655219633E2,9.924231768E-1,2.108675003E0,9.553942680E0
5.660219633E2,9.858429432E-1,2.035095692E0,9.598808289E0
5.665219633E2,9.822536707E-1,2.137987137E0,9.701699257E0
5.670219633E2,9.571290612E-1,2.023131609E0,9.529416084E0
5.675219633E2,8.817551732E-1,2.132603168E0,9.459425926E0
5.680219633E2,9.158528447E-1,2.154736757E0,9.607781410E0
5.685219633E2,9.302098155E-1,2.097907305E0,9.625727654E0
5.690219633E2,9.296116233E-1,2.180459738E0,9.556933403E0
5.695219633E2,9.104689956E-1,2.137987137E0,9.574879646E0
5.700219633E2,9.332008362E-1,2.166102648E0,9.663414001E0
5.705219633E2,1.046859860E0,2.099103689E0,9.607781410E0
5.710219633E2,9.314061999E-1,2.252842426E0,9.489934921E0
5.715219633E2,9.415757060E-1,2.171486616E0,9.625128746E0
5.720219633E2,9.391828775E-1,2.015953064E0,9.708279610E0
5.725219633E2,1.001396298E0,2.333600283E0,9.844072342E0
5.730219633E2,9.092726111E-1,2.027318954E0,9.780064583E0
5.735219633E2,7.896314859E-1,2.153540373E0,9.677771568E0
5.740219633E2,9.080761671E-1,2.094916344E0,9.220144272E0
5.745219633E2,8.931210637E-1,2.026122570E0,9.626923561E0
5.750219633E2,8.458628058E-1,2.087737799E0,9.476774216E0
5.755219633E2,4.582255483E-1,2.039881229E0,9.821340561E0
5.760219633E2,3.493520916E-1,2.270190477E0,9.687940598E0
5.765219633E2,7.932206988E-1,2.292324066E0,9.553344727E0
5.770219633E2,4.582255483E-1,2.364108801E0,9.448657990E0
5.775219633E2,4.719842672E-1,2.090130568E0,9.576076508E0
5.780219633E2,4.917250574E-1,2.148754835E0,9.708279610E0
5.785219633E2,3.553341627E-1,2.096112728E0,9.884152412E0
5.790219633E2,2.841476798E-1,2.016551256E0,9.746564865E0
5.795219633E2,4.145565331E-1,2.080559254E0,9.890133858E0
5.800219633E2,2.757728100E-1,2.121237278E0,9.604789734E0
5.805219633E2,3.714857101E-1,2.036890268E0,9.582057953E0
5.810219633E2,2.392822653E-1,2.370090723E0,9.536594391E0
5.815219633E2,1.884347796E-1,1.841277003E0,9.673583984E0
5.820219633E2,5.042873621E-1,2.173879385E0,9.640084267E0
5.825219633E2,5.934200287E-1,1.912463546E0,9.708877563E0
5.830219633E2,4.959124923E-1,2.064407825E0,9.644869804E0
5.835219633E2,4.127618968E-1,2.195414782E0,9.609575272E0
5.840219633E2,5.569294691E-1,1.981257200E0,9.689137459E0
5.845219633E2,5.682953596E-1,2.103889227E0,9.871589661E0
5.850219633E2,4.947160780E-1,1.998605132E0,9.462417603E0
5.855219633E2,5.371887088E-1,2.158325911E0,9.612566948E0
5.860219633E2,4.486542344E-1,1.832902193E0,9.555737495E0
5.865219633E2,5.617151260E-1,2.128415823E0,8.957531929E0
5.870219633E2,4.414757788E-1,2.054836512E0,9.294919968E0
5.875219633E2,6.209374666E-1,2.030908108E0,9.022735596E0
5.880219633E2,7.160521746E-1,2.469393015E0,9.046664238E0
5.885219633E2,4.145565331E-1,1.941775560E0,9.644869804E0
5.890219633E2,6.185446382E-1,1.945963025E0,9.467203140E0
5.895219633E2,3.912265003E-1,2.073380709E0,9.357730865E0
5.900219633E2,4.941178858E-1,1.868196249E0,9.801001549E0
5.905219633E2,8.099704385E-1,1.702493310E0,1.042014408E1
5.910219633E2,9.750752449E-1,1.949552298E0,9.321240425E0
5.915219633E2,5.760720372E-1,1.913061738E0,9.396016121E0
5.920219633E2,8.315058947E-1,1.755135417E0,9.909874916E0
5.925219633E2,9.984052777E-1,1.862812400E0,9.266803741E0
5.930219633E2,7.627122402E-1,1.869990945E0,9.278169632E0
5.935219633E2,8.470591903E-1,1.837687731E0,9.165707588E0
5.940219633E2,8.853443861E-1,1.447059512E0,9.869794846E0
5.945219633E2,7.483552694E-1,1.502692580E0,9.634700775E0
5.950219633E2,8.105686903E-1,1.681556106E0,9.450452805E0
5.955219633E2,8.997012973E-1,1.596610904E0,9.829715729E0
5.960219633E2,9.158528447E-1,1.748555183E0,9.820143700E0
5.965219633E2,9.457631707E-1,1.666600943E0,9.708279610E0
5.970219633E2,1.240678549E0,1.623530149E0,9.574879646E0
5.975219633E2,1.233500123E0,1.582852125E0,9.933803558E0
5.980219633E2,1.246062398E0,1.681556106E0,9.623932838E0
5.985219633E2,1.436890006E0,1.668395638E0,9.569496155E0
5.990219633E2,1.376471281E0,1.759322882E0,9.547362328E0
5.995219633E2,1.397408366E0,1.501496196E0,9.536594391E0
6.000219633E2,1.223330617E0,1.741974831E0,9.601799011E0
6.005219633E2,1.389631748E0,1.518245935E0,9.533005714E0
6.010219633E2,1.384247899E0,1.651047587E0,9.567701340E0
6.015219633E2,1.367498159E0,1.576271892E0,9.653842926E0
6.020219633E2,1.371685624E0,1.596610904E0,9.772287369E0
6.025219633E2,1.502692580E0,1.514058471E0,9.540781975E0
6.030219633E2,1.400399446E0,1.566700578E0,9.602995872E0
6.035219633E2,1.642672777E0,1.463211060E0,9.683155060E0
6.040219633E2,1.617548108E0,1.520638824E0,9.634700775E0
6.045219633E2,1.896910191E0,1.483550072E0,9.387641907E0
6.050219633E2,1.968694806E0,1.488335729E0,9.567701340E0
6.055219633E2,2.188236237E0,1.472782373E0,1.035494041E1
6.060219633E2,1.634896040E0,1.487139225E0,9.711270332E0
6.065219633E2,1.604985833E0,1.625324726E0,1.031127071E1
6.070219633E2,1.886740685E0,1.561316729E0,9.558728218E0
6.075219633E2,1.944168448E0,1.476969719E0,9.845867157E0
6.080219633E2,1.907677889E0,1.623530149E0,9.872786522E0
6.085219633E2,1.747956991E0,1.500898004E0,9.974481583E0
6.090219633E2,1.681556106E0,1.628913999E0,9.499505997E0
6.095219633E2,1.349551916E0,1.592423439E0,9.660423279E0
6.100219633E2,6.329016089E-1,1.716850281E0,9.569496155E0
6.105219633E2,1.015753269E0,1.548754454E0,9.519845009E0
6.110219633E2,5.665007830E-1,1.665404558E0,9.655637741E0
6.115219633E2,6.921239495E-1,1.657029629E0,9.646664619E0
6.120219633E2,6.711867452E-1,1.670190215E0,9.667003632E0
6.125219633E2,6.735795736E-1,1.662413478E0,9.687940598E0
6.130219633E2,6.909275651E-1,1.684547186E0,9.719645500E0
6.135219633E2,6.687939167E-1,1.692921996E0,9.705288887E0
6.140219633E2,6.987041831E-1,1.625923038E0,9.640084267E0
6.145219633E2,6.574280262E-1,1.592423439E0,9.614361763E0
6.150219633E2,6.640082598E-1,1.657627940E0,9.674779892E0
6.155219633E2,6.669993401E-1,1.660618901E0,9.669994354E0
6.160219633E2,8.530412912E-1,2.280958176E0,9.559925079E0
6.165219633E2,1.714457393E0,2.917448997E0,9.228518486E0
6.170219633E2,2.389233351E0,2.654836655E0,9.060422897E0
6.175219633E2,2.070987940E0,2.504687071E0,9.396016121E0
6.180219633E2,2.027917147E0,2.646461725E0,9.123234749E0
6.185219633E2,1.654038668E0,2.127817631E0,9.553942680E0
6.190219633E2,1.369890928E0,2.166102648E0,9.418149948E0
6.195219633E2,1.027717352E0,2.064407825E0,9.562915802E0
6.200219633E2,1.049252748E0,2.099701881E0,9.483354568E0
6.205219633E2,9.942178130E-1,2.078166485E0,9.561718941E0
6.210219633E2,9.762716293E-1,2.048256159E0,9.627521515E0
6.215219633E2,1.001396298E0,2.023131609E0,9.556933403E0
6.220219633E2,1.018146038E0,2.024327993E0,9.518648148E0
6.225219633E2,1.006780148E0,2.091326952E0,9.592227936E0
6.230219633E2,1.030110121E0,2.114058733E0,9.566504478E0
6.235219633E2,1.018146038E0,2.075175524E0,9.553942680E0
6.240219633E2,1.017547846E0,2.039881229E0,9.706484795E0
6.245219633E2,9.894321561E-1,2.087737799E0,9.563513756E0
6.250219633E2,9.744769931E-1,2.043470621E0,9.588638306E0
6.255219633E2,1.004985452E0,1.975275040E0,9.679565430E0
6.260219633E2,1.001396298E0,1.994417667E0,9.582057953E0
6.265219633E2,9.457631707E-1,2.020738840E0,9.598808289E0
6.270219633E2,9.463613629E-1,2.035095692E0,9.584450722E0
6.275219633E2,9.655039310E-1,2.026122570E0,9.562915802E0
6.280219633E2,9.655039310E-1,2.041675806E0,9.531210899E0
6.285219633E2,9.714859724E-1,1.997408748E0,9.582057953E0
6.290219633E2,9.589236975E-1,1.960319996E0,9.590433121E0
6.295219633E2,1.004985452E0,2.097907305E0,9.632308006E0
6.300219633E2,1.118046403E0,2.282752752E0,9.496515274E0
6.305219633E2,1.116850019E0,2.221735716E0,9.440283775E0
6.310219633E2,8.745766878E-1,2.147558212E0,9.440881729E0
6.315219633E2,4.516452849E-1,2.187039852E0,9.582656860E0
6.320219633E2,-1.734796464E-1,2.260020971E0,9.644271851E0
6.325219633E2,4.558327198E-1,2.199602127E0,9.403793335E0
6.330219633E2,-2.967100143E-1,2.237887383E0,9.702297211E0
6.335219633E2,8.494520187E-2,2.224128723E0,9.641280174E0
6.340219633E2,7.058826834E-2,2.285743713E0,9.635298729E0
6.345219633E2,1.016949639E-1,2.180459738E0,9.607781410E0
6.350219633E2,2.751746029E-2,2.231307030E0,9.555737495E0
6.355219633E2,2.392822690E-2,2.204986095E0,9.479166985E0
6.360219633E2,1.447657645E-1,2.236092806E0,9.552147865E0
6.365219633E2,2.422732860E-1,2.140978098E0,9.671789169E0
6.370219633E2,1.208375469E-1,2.194816589E0,9.887143135E0
6.375219633E2,5.144568533E-2,2.173879385E0,9.595218658E0
6.380219633E2,1.998006850E-1,2.086541414E0,9.631709099E0
6.385219633E2,-2.033899166E-2,2.215753794E0,9.254241943E0
6.390219633E2,1.052841991E-1,2.169692039E0,9.603593826E0
6.395219633E2,8.315058798E-2,2.228316069E0,9.359525681E0
6.400219633E2,-5.742774159E-2,2.134397745E0,9.526425362E0
6.405219633E2,3.266202807E-1,2.188834429E0,9.979267120E0
6.410219633E2,-3.050848842E-2,2.247458696E0,9.510871887E0
6.415219633E2,-4.965107143E-2,2.062613010E0,9.684351921E0
6.420219633E2,-4.007977992E-2,2.180459738E0,9.704092026E0
6.425219633E2,-1.004985496E-1,2.115255117E0,9.748359680E0
6.430219633E2,-1.663011760E-1,2.102692842E0,9.600004196E0
6.435219633E2,-8.793623000E-2,2.088335991E0,9.257232666E0
6.440219633E2,1.902294010E-1,2.027917147E0,9.641280174E0
6.445219633E2,1.375873089E-1,1.962114573E0,9.811769485E0
6.450219633E2,1.208375469E-1,2.056631088E0,9.512067795E0
6.455219633E2,1.088734269E-1,1.963909149E0,9.467203140E0
6.460219633E2,1.615155339E-1,2.056032896E0,9.363713264E0
6.465219633E2,1.962114573E-1,2.057827473E0,9.518648148E0
6.470219633E2,2.500499785E-1,2.093121529E0,9.536594391E0
6.475219633E2,3.272185028E-1,2.030309916E0,9.318847656E0
6.480219633E2,3.332005441E-1,2.250449657E0,9.526425362E0
6.485219633E2,4.079762697E-1,2.190030813E0,9.576076508E0
6.490219633E2,4.271188378E-1,2.220539331E0,9.534201622E0
6.495219633E2,4.767699242E-1,2.061416626E0,9.489934921E0
6.500219633E2,6.556333899E-1,2.274377823E0,9.596415520E0
6.505219633E2,8.003991842E-1,2.303689957E0,9.531808853E0
6.510219633E2,8.249256015E-1,1.927418590E0,9.775876999E0
6.515219633E2,6.448656917E-1,2.135594130E0,9.151947975E0
6.520219633E2,6.664010882E-1,2.388036966E0,9.453444481E0
6.525219633E2,6.777670383E-1,2.357528448E0,9.600004196E0
6.530219633E2,3.577269912E-1,2.635095835E0,9.912865639E0
6.535219633E2,5.347958803E-1,2.556730986E0,9.866804123E0
6.540219633E2,4.372883439E-1,2.719442844E0,1.026640511E1
6.545219633E2,6.987041831E-1,2.839084148E0,9.227920532E0
6.550219633E2,6.394818425E-1,2.657229662E0,9.498309135E0
6.555219633E2,8.554341197E-1,2.676372051E0,9.676574707E0
6.560219633E2,8.602197170E-1,2.930011272E0,9.416953087E0
6.565219633E2,9.954141974E-1,2.641676188E0,9.888339996E0
6.570219633E2,9.206385016E-1,2.702095032E0,9.500701904E0
6.575219633E2,1.013360381E0,2.740380049E0,9.103493690E0
6.580219633E2,1.042074203E0,2.848655462E0,9.036494255E0
6.585219633E2,9.894321561E-1,2.490330219E0,9.357132912E0
6.590219633E2,1.058824062E0,2.347957134E0,9.622735977E0
6.595219633E2,1.027717352E0,2.520838737E0,9.282357216E0
6.600219633E2,9.487541914E-1,2.301895380E0,9.750154495E0
6.605219633E2,9.667003751E-1,2.374876499E0,9.358927727E0
6.610219633E2,9.702895880E-1,2.070389748E0,9.418149948E0
6.615219633E2,9.218349457E-1,2.360519648E0,1.009771156E1
6.620219633E2,9.798609018E-1,1.939980984E0,9.553344727E0
6.625219633E2,1.027119160E0,2.266601324E0,9.772287369E0
6.630219633E2,9.559326172E-1,2.142772675E0,9.608379364E0
6.635219633E2,9.391828775E-1,2.151745796E0,9.717850685E0
6.640219633E2,9.559326172E-1,2.173879385E0,9.535996437E0
6.645219633E2,8.853443861E-1,2.089532375E0,9.568299294E0
6.650219633E2,1.001994491E0,1.864607096E0,9.704092026E0
6.655219633E2,9.810572863E-1,2.227119684E0,9.558130264E0
6.660219633E2,9.409775138E-1,1.989632010E0,9.515657425E0
6.665219633E2,9.140582681E-1,2.126022816E0,9.761520386E0
6.670219633E2,8.374879360E-1,2.008176327E0,9.652647018E0
6.675219633E2,8.530412912E-1,2.032702923E0,9.754341125E0
6.680219633E2,8.536394835E-1,2.161317110E0,9.646066666E0
6.685219633E2,7.686942816E-1,1.939382792E0,9.392427444E0
6.690219633E2,8.632107973E-1,1.789831281E0,9.695717812E0
6.695219633E2,8.662018180E-1,2.023131609E0,9.489934921E0
6.700219633E2,7.830511928E-1,2.021337032E0,9.526425362E0
6.705219633E2,2.955136001E-1,1.657627940E0,9.573084831E0
6.710219633E2,3.302095234E-1,1.681556106E0,9.662218094E0
6.715219633E2,3.032902777E-1,1.683350682E0,9.746564865E0
6.720219633E2,3.092723191E-1,1.678565025E0,9.707083702E0
6.725219633E2,4.671986103E-1,1.880758643E0,9.754940033E0
6.730219633E2,4.917250574E-1,1.598405480E0,9.836296082E0
6.735219633E2,5.964110494E-1,1.879562140E0,9.527023315E0
6.740219633E2,5.330012441E-1,1.603191137E0,9.699306488E0
6.745219633E2,5.563312769E-1,1.984846354E0,9.971489906E0
6.750219633E2,6.412764788E-1,1.837687731E0,9.651450157E0
6.755219633E2,4.851447940E-1,1.818545222E0,1.000020409E1
6.760219633E2,5.252245665E-1,1.758126378E0,9.795019150E0
6.765219633E2,6.448656917E-1,1.992623091E0,9.520442963E0
6.770219633E2,6.855437160E-1,2.027318954E0,9.656235695E0
6.775219633E2,6.622136831E-1,2.084746838E0,9.425926208E0
6.780219633E2,6.448656917E-1,1.973480463E0,1.013898754E1
6.785219633E2,4.965106845E-1,2.047059774E0,9.719645500E0
6.790219633E2,4.450650215E-1,2.167897224E0,9.395418167E0
6.795219633E2,6.442674994E-1,1.667199135E0,1.010847950E1
6.800219633E2,4.995017350E-1,1.906481385E0,1.009172916E1
6.805219633E2,5.551348329E-1,1.982453585E0,9.890133858E0
6.810219633E2,5.377869010E-1,1.893320918E0,9.898509026E0
6.815219633E2,5.964110494E-1,2.163111687E0,9.689137459E0
6.820219633E2,5.443671346E-1,1.872981906E0,9.457631111E0
6.825219633E2,5.024927258E-1,1.740778446E0,9.582057953E0
6.830219633E2,5.120640397E-1,1.865205288E0,9.553942680E0
6.835219633E2,2.285145670E-1,1.603191137E0,9.828518867E0
6.840219633E2,3.708875179E-2,1.993819475E0,9.711270332E0
6.845219633E2,5.054838061E-1,1.795813441E0,9.810572624E0
6.850219633E2,6.999006122E-2,1.740778446E0,1.000798035E1
6.855219633E2,6.400800496E-2,1.855633974E0,9.765707016E0
6.860219633E2,1.704886109E-1,1.426122308E0,9.646066666E0
6.865219633E2,-1.710868180E-1,1.781456470E0,9.760921478E0
6.870219633E2,-4.127619043E-2,1.436890006E0,9.429515839E0
6.875219633E2,-1.950150430E-1,1.458425403E0,9.442078590E0
6.880219633E2,-1.950150430E-1,1.585245013E0,9.754341125E0
6.885219633E2,-1.369891018E-1,1.558923960E0,9.817152977E0
6.890219633E2,-2.165504545E-1,1.472782373E0,9.784850121E0
6.895219633E2,-2.428714931E-1,1.743769526E0,9.987641335E0
6.900219633E2,4.007977992E-2,1.442273855E0,9.694520950E0
6.905219633E2,1.016949639E-1,1.545763373E0,9.600004196E0
6.910219633E2,5.982056856E-1,1.463211060E0,9.743574142E0
6.915219633E2,4.516452849E-1,1.782054663E0,9.705288887E0
6.920219633E2,5.611169338E-1,1.454836130E0,9.749555588E0
6.925219633E2,5.539384484E-1,1.651047587E0,9.609575272E0
6.930219633E2,6.029912829E-1,1.622333765E0,9.525228500E0
6.935219633E2,5.898307562E-1,1.615753531E0,9.501300812E0
6.940219633E2,6.203392744E-1,1.718046665E0,9.727422714E0
6.945219633E2,5.706881881E-1,1.642672777E0,9.663414001E0
6.950219633E2,6.233302951E-1,1.343569875E0,1.003430176E1
6.955219633E2,6.000002623E-1,1.844268084E0,9.989436150E0
6.960219633E2,6.556333899E-1,1.464407444E0,9.783055305E0
6.965219633E2,8.183453679E-1,1.774278045E0,9.132805824E0
6.970219633E2,8.051848412E-1,1.505683661E0,9.058030128E0
6.975219633E2,9.637092948E-1,1.459621787E0,1.009890842E1
6.980219633E2,9.732806087E-1,1.726421595E0,1.007976532E1
6.985219633E2,1.190429211E0,1.539781332E0,1.005763149E1
6.990219633E2,1.115055323E0,1.566102386E0,9.697511673E0
6.995219633E2,1.097707391E0,1.624128342E0,9.760921478E0
7.000219633E2,1.027717352E0,1.149751306E0,9.855438232E0
7.005219633E2,9.553344250E-1,1.598405480E0,9.676574707E0
7.010219633E2,8.937192559E-1,1.191625714E0,9.454640388E0
7.015219633E2,8.739784956E-1,1.420140266E0,9.600004196E0
7.020219633E2,8.745766878E-1,1.246062398E0,9.534799576E0
7.025219633E2,7.980063558E-1,1.357328653E0,9.617950439E0
7.030219633E2,8.356932998E-1,1.152144074E0,9.549157143E0
7.035219633E2,7.244270444E-1,1.264606714E0,9.751948357E0
7.040219633E2,8.817551732E-1,1.253839016E0,9.835697174E0
7.045219633E2,1.076770186E0,1.182054400E0,9.671789169E0
7.050219633E2,1.046261668E0,1.277767301E0,9.654440880E0
7.055219633E2,1.054636598E0,1.137787223E0,9.628718376E0
7.060219633E2,1.095912814E0,1.183848977E0,9.694520950E0
7.065219633E2,9.792626500E-1,1.185045362E0,9.750154495E0
7.070219633E2,1.734198213E0,1.737189293E0,9.544371605E0
7.075219633E2,1.549352646E0,1.786840320E0,9.640084267E0
7.080219633E2,1.783251047E0,1.989033818E0,9.493523598E0
7.085219633E2,1.856830359E0,1.986042738E0,9.499505997E0
7.090219633E2,1.822134495E0,1.983051777E0,9.515059471E0
7.095219633E2,1.686341763E0,1.920838356E0,9.631709099E0
7.100219633E2,1.558923960E0,1.998605132E0,9.498309135E0
7.105219633E2,1.591825247E0,1.962114573E0,9.515657425E0
7.110219633E2,1.682752490E0,2.057827473E0,9.139386177E0
7.115219633E2,1.647458434E0,2.023131609E0,9.486345291E0
7.120219633E2,1.472184181E0,1.938186288E0,9.491728783E0
7.125219633E2,1.510469317E0,1.853241086E0,9.774082184E0
7.130219633E2,1.639681697E0,1.973480463E0,9.440881729E0
7.135219633E2,1.491924882E0,1.916052699E0,9.574281693E0
7.140219633E2,1.327418327E0,1.842473388E0,9.481559753E0
7.145219633E2,1.352542996E0,1.829911113E0,9.579067230E0
7.150219633E2,1.411765337E0,1.836491346E0,9.561718941E0
7.155219633E2,1.430907965E0,1.800599098E0,9.620942116E0
7.160219633E2,1.155135155E0,1.628913999E0,9.443872452E0
7.165219633E2,2.889333367E-1,1.975275040E0,9.708279610E0
7.170219633E2,1.208973646E0,1.680957913E0,9.661021233E0
7.175219633E2,7.609176040E-1,1.829911113E0,9.650852203E0
7.180219633E2,7.788637877E-1,1.820339799E0,9.588638306E0
7.185219633E2,7.094719410E-1,1.837687731E0,9.626923561E0
7.190219633E2,7.334001660E-1,1.808973908E0,9.661021233E0
7.195219633E2,7.166503668E-1,1.767697692E0,9.562915802E0
7.200219633E2,7.387840152E-1,1.782054663E0,9.637093544E0
7.205219633E2,7.178468108E-1,1.826920033E0,9.610772133E0
7.210219633E2,6.939185858E-1,1.796411633E0,9.646664619E0
7.215219633E2,7.226324677E-1,1.795813441E0,9.665208817E0
7.220219633E2,7.579265833E-1,1.799402595E0,9.606584549E0
7.225219633E2,7.064808607E-1,1.792822361E0,9.606584549E0
7.230219633E2,6.987041831E-1,1.762912035E0,9.646066666E0
7.235219633E2,7.381857634E-1,1.730608940E0,9.662218094E0
7.240219633E2,7.034898400E-1,1.779063582E0,9.580862045E0
7.245219633E2,8.135597110E-1,1.895115495E0,9.857233047E0
7.250219633E2,7.932206988E-1,1.934597135E0,9.626923561E0
7.255219633E2,9.894321561E-1,2.118844509E0,9.726225853E0
7.260219633E2,9.942178130E-1,2.070389748E0,9.564710617E0
7.265219633E2,8.578268886E-1,1.909472466E0,9.591629982E0
7.270219633E2,1.040279627E0,2.030908108E0,9.687940598E0
7.275219633E2,9.272187948E-1,2.003988981E0,9.525228500E0
7.280219633E2,9.314061999E-1,1.969891191E0,9.540781975E0
7.285219633E2,8.536394835E-1,1.860419631E0,9.652647018E0
7.290219633E2,1.038485050E0,1.996810555E0,9.262018204E0
7.295219633E2,9.427721500E-1,1.933400750E0,9.534799576E0
7.300219633E2,8.578268886E-1,1.874178290E0,9.537791252E0
7.305219633E2,8.745766878E-1,1.853839397E0,9.587442398E0
7.310219633E2,8.135597110E-1,1.841277003E0,9.643074989E0
7.315219633E2,7.262216806E-1,1.737189293E0,9.610772133E0
7.320219633E2,9.188438654E-1,1.874178290E0,9.590433121E0
7.325219633E2,8.213363886E-1,1.911267042E0,9.628718376E0
7.330219633E2,7.704889178E-1,1.890329838E0,9.689735413E0
7.335219633E2,7.196413875E-1,1.856830359E0,9.620942116E0
7.340219633E2,7.070791125E-1,1.875972986E0,9.583852768E0
7.345219633E2,6.957131624E-1,1.875972986E0,9.656235695E0
7.350219633E2,7.591229677E-1,1.892124534E0,9.629914284E0
7.355219633E2,7.256234884E-1,1.872981906E0,9.548559189E0
7.360219633E2,6.478567123E-1,1.893320918E0,9.562915802E0
7.365219633E2,7.381857634E-1,1.828116536E0,9.651450157E0
7.370219633E2,7.052844763E-1,1.834696770E0,9.577272415E0
7.375219633E2,6.759724021E-1,1.815554142E0,9.568299294E0
7.380219633E2,6.185446382E-1,1.810170293E0,9.655637741E0
7.385219633E2,6.921239495E-1,1.778465390E0,9.658628464E0
7.390219633E2,5.742774606E-1,1.775474429E0,9.622735977E0
7.395219633E2,5.724828243E-1,1.785045743E0,9.644271851E0
7.400219633E2,4.881358147E-1,1.791625977E0,9.453444481E0
7.405219633E2,6.364908218E-1,1.768894196E0,9.671789169E0
7.410219633E2,5.180460811E-1,1.729412556E0,9.500701904E0
7.415219633E2,5.587241054E-1,1.719841242E0,9.731011391E0
7.420219633E2,2.033899166E-2,1.798206210E0,9.933204651E0
7.425219633E2,-5.994020700E-1,1.824527264E0,9.571290970E0
7.430219633E2,-7.974081635E-1,1.764108539E0,9.711869240E0
7.435219633E2,-6.281159520E-1,1.730608940E0,9.735198975E0
7.440219633E2,-7.226324677E-1,1.814955950E0,9.759725571E0
7.445219633E2,-7.160521746E-1,1.868196249E0,9.625128746E0
7.450219633E2,-6.448656917E-1,1.864607096E0,9.652647018E0
7.455219633E2,-6.412764788E-1,1.773679733E0,9.614361763E0
7.460219633E2,-6.681957245E-1,1.745564103E0,9.682557106E0
7.465219633E2,-5.665007830E-1,1.808973908E0,9.636494637E0
7.470219633E2,-5.246263742E-1,1.821536183E0,9.703494072E0
7.475219633E2,-5.706881881E-1,1.810170293E0,9.693922997E0
7.480219633E2,-5.234299302E-1,1.804188251E0,9.820143700E0
7.485219633E2,-6.334998012E-1,1.808973908E0,9.729216576E0
7.490219633E2,-3.960121572E-1,1.846062660E0,9.749555588E0
7.495219633E2,-4.881358147E-1,1.849053741E0,9.401998520E0
7.500219633E2,-6.759724021E-1,1.953739643E0,9.577870369E0
7.505219633E2,-4.277170599E-1,1.834696770E0,9.697511673E0
7.510219633E2,-1.027119160E0,1.767697692E0,1.000319481E1
7.515219633E2,-7.351947427E-1,1.853241086E0,9.606584549E0
7.520219633E2,-7.244270444E-1,1.719841242E0,1.020419216E1
7.525219633E2,-5.970092416E-1,1.901097536E0,9.421140671E0
7.530219633E2,-5.856433511E-1,1.860419631E0,9.662218094E0
7.535219633E2,-4.115654826E-1,1.755135417E0,9.252447128E0
7.540219633E2,-2.823530734E-1,1.942971945E0,9.552147865E0
7.545219633E2,-3.397808075E-1,1.740180254E0,9.543772697E0
7.550219633E2,-1.782652885E-1,1.841277003E0,9.606584549E0
7.555219633E2,-3.379862010E-1,1.824527264E0,9.486943245E0
7.560219633E2,-4.307080805E-2,1.783251047E0,9.405587196E0
7.565219633E2,-1.435693540E-2,1.920240164E0,9.687940598E0
7.570219633E2,4.785645287E-3,1.869392633E0,9.266803741E0
7.575219633E2,-7.058826834E-2,1.939980984E0,9.614361763E0
7.580219633E2,5.563312769E-2,1.812563181E0,9.445667267E0
7.585219633E2,1.692921966E-1,2.009970903E0,9.680164337E0
7.590219633E2,1.531406492E-1,1.886740685E0,9.558130264E0
7.595219633E2,-7.776673418E-3,2.131406784E0,9.928419113E0
7.600219633E2,-0.000000000E0,1.987239242E0,1.001635551E1
7.605219633E2,2.991028363E-3,2.100898266E0,9.987641335E0
7.610219633E2,-7.178468257E-2,1.942971945E0,9.887143135E0
7.615219633E2,-2.871387079E-2,2.009970903E0,1.006421185E1
7.620219633E2,2.392822690E-2,2.214557409E0,9.829715729E0
7.625219633E2,-4.486542568E-2,2.222334146E0,1.007677460E1
7.630219633E2,5.623133108E-2,2.194816589E0,9.287740707E0
7.635219633E2,-1.591227055E-1,2.073979139E0,9.463015556E0
7.640219633E2,9.212367237E-2,2.126621008E0,9.684949875E0
7.645219633E2,-2.273181453E-2,2.153540373E0,9.890133858E0
7.650219633E2,1.405783296E-1,2.025524378E0,9.386445045E0
7.655219633E2,2.883351147E-1,2.187039852E0,9.399007797E0
7.660219633E2,4.325026870E-1,2.233101845E0,9.354740143E0
7.665219633E2,4.642075896E-1,2.172683001E0,9.568299294E0
7.670219633E2,7.477570772E-1,2.102094650E0,9.493523598E0
7.675219633E2,1.113858938E0,2.562114954E0,9.760921478E0
7.680219633E2,4.995017350E-1,2.157129526E0,9.920642853E0
7.685219633E2,7.166503668E-1,2.180459738E0,9.419944763E0
7.690219633E2,5.802595019E-1,2.085345030E0,1.011206818E1
7.695219633E2,4.384847581E-1,2.088335991E0,9.827920914E0
7.700219633E2,6.634100676E-1,2.167897224E0,9.263215065E0
7.705219633E2,5.790630579E-1,2.043470621E0,9.923633575E0
7.710219633E2,-1.782652885E-1,2.132603168E0,9.797411919E0
7.715219633E2,2.679961324E-1,2.188834429E0,9.287740707E0
7.720219633E2,3.290131092E-1,2.084746838E0,9.571290970E0
7.725219633E2,2.404786795E-1,2.114058733E0,9.699306488E0
7.730219633E2,3.589234054E-1,2.155334949E0,9.658628464E0
7.735219633E2,3.894318938E-1,2.260020971E0,9.373882294E0
7.740219633E2,3.188436031E-1,2.109273195E0,9.611370087E0
7.745219633E2,2.297109663E-1,2.251047850E0,9.792626381E0
7.750219633E2,2.691925466E-1,2.102692842E0,9.401998520E0
7.755219633E2,2.757728100E-1,2.201396942E0,9.392427444E0
7.760219633E2,2.039881349E-1,2.025524378E0,9.603593826E0
7.765219633E2,6.819544733E-2,2.262413740E0,9.358927727E0
7.770219633E2,3.936193287E-1,2.109273195E0,9.292527199E0
7.775219633E2,3.092723191E-1,2.164308071E0,9.637093544E0
7.780219633E2,1.663011760E-1,2.073979139E0,9.601201057E0
7.785219633E2,2.171486616E-1,1.982453585E0,9.643074989E0
7.790219633E2,1.082752272E-1,2.113460541E0,9.614361763E0
7.795219633E2,1.232303679E-1,2.045265198E0,9.620942116E0
7.800219633E2,6.819544733E-2,1.931606054E0,9.891928673E0
7.805219633E2,-4.666004330E-2,2.008774519E0,9.893125534E0
7.810219633E2,1.914258152E-1,2.005185366E0,9.280562401E0
7.815219633E2,2.422732860E-1,1.936391711E0,9.358927727E0
7.820219633E2,3.571287692E-1,1.896910191E0,9.451649666E0
7.825219633E2,3.092723191E-1,1.951346874E0,9.763913155E0
7.830219633E2,1.100698411E-1,1.952543259E0,9.702297211E0
7.835219633E2,5.252245665E-1,1.815554142E0,8.995817184E0
7.840219633E2,3.002992272E-1,2.011167526E0,1.129053402E1
7.845219633E2,1.322034448E-1,2.030908108E0,9.429515839E0
7.850219633E2,3.463610709E-1,1.563111424E0,9.359525681E0
7.855219633E2,-6.340979785E-2,1.756331801E0,9.032307625E0
7.860219633E2,3.314059377E-1,1.475175142E0,9.354142189E0
7.865219633E2,6.287141442E-1,1.236491084E0,9.488140106E0
7.870219633E2,4.001995921E-1,1.239482164E0,9.667003632E0
7.875219633E2,6.011967063E-1,1.151545882E0,9.583852768E0
7.880219633E2,4.947160780E-1,1.078564763E0,9.853643417E0
7.885219633E2,3.924229145E-1,1.048056364E0,9.927223206E0
7.890219633E2,3.415754437E-1,1.258624673E0,9.979267120E0
7.895219633E2,3.128615618E-1,9.966106415E-1,9.924231529E0
7.900219633E2,4.019941986E-1,1.021137118E0,9.421140671E0
7.905219633E2,3.026920557E-1,8.883354068E-1,9.584450722E0
7.910219633E2,3.110669553E-1,9.158528447E-1,9.497711182E0
7.915219633E2,2.859423161E-1,9.176474810E-1,9.857233047E0
7.920219633E2,2.614158690E-1,7.914260626E-1,9.885348320E0
7.925219633E2,1.782652885E-1,6.478567123E-1,9.732806206E0
7.930219633E2,2.189432681E-1,5.772684813E-1,9.593423843E0
7.935219633E2,2.632105052E-1,5.706881881E-1,9.802796364E0
7.940219633E2,5.443671346E-2,6.442674994E-1,1.002114105E1
7.945219633E2,3.050848842E-1,6.460621357E-1,9.842277527E0
7.950219633E2,5.443671346E-2,6.831508875E-1,1.008514881E1
7.955219633E2,1.004985496E-1,4.402793646E-1,1.003430176E1
7.960219633E2,-5.922235921E-2,6.472585201E-1,9.669994354E0
7.965219633E2,-1.962114573E-1,1.794616925E-3,9.477372169E0
7.970219633E2,1.339980662E-1,6.490531564E-1,9.266803741E0
7.975219633E2,-8.374879137E-3,6.346961856E-1,9.053244591E0
7.980219633E2,-4.666004330E-2,4.007977843E-1,9.273384094E0
7.985219633E2,-2.991028363E-3,2.315055877E-1,9.741779327E0
7.990219633E2,3.170489892E-2,3.493520916E-1,1.011087227E1
7.995219633E2,-6.580262445E-3,5.072783828E-1,1.008993530E1
8.000219633E2,-1.962114573E-1,3.780659735E-1,9.735796928E0
8.005219633E2,2.572284266E-2,4.917250574E-1,9.981060982E0
8.010219633E2,-6.340979785E-2,5.282155871E-1,1.034776115E1
8.015219633E2,-2.033899166E-2,6.185446382E-1,9.987641335E0
8.020219633E2,2.213360928E-2,5.377869010E-1,9.931410789E0
8.025219633E2,-5.862415582E-2,4.390829504E-1,9.852447510E0
8.030219633E2,1.304088384E-1,3.493520916E-1,9.810572624E0
8.035219633E2,4.965107143E-2,4.127618968E-1,9.869196892E0
8.040219633E2,-1.244267747E-1,4.193421602E-1,9.586843491E0
8.045219633E2,4.307080805E-2,4.175475538E-1,9.728020668E0
8.050219633E2,-1.794616925E-3,2.380858511E-1,9.665208817E0
8.055219633E2,-1.136590764E-1,3.924229145E-1,9.767501831E0
8.060219633E2,-3.589233849E-3,4.677968323E-1,9.636494637E0
8.065219633E2,1.178465188E-1,5.694918036E-1,9.754940033E0
8.070219633E2,-1.369891018E-1,4.749752879E-1,9.478569031E0
8.075219633E2,-1.088734269E-1,3.750749528E-1,9.714859962E0
8.080219633E2,-2.273181453E-2,3.667000830E-1,9.716654778E0
8.085219633E2,-5.443671346E-2,2.584248483E-1,9.837491989E0
8.090219633E2,-1.686939895E-1,4.127619043E-2,9.994221687E0
8.095219633E2,-2.009970993E-1,2.069791555E-1,9.692726135E0
8.100219633E2,-1.752742529E-1,3.146561682E-1,1.000080204E1
8.105219633E2,-0.000000000E0,9.571290761E-2,1.011864853E1
8.110219633E2,6.999006122E-2,2.620140910E-1,1.006301594E1
8.115219633E2,2.279163599E-1,8.913264424E-2,1.047757244E1
8.120219633E2,-7.058826834E-2,-9.451649338E-2,9.056235313E0
8.125219633E2,1.040877849E-1,-1.692921966E-1,9.079565048E0
8.130219633E2,1.435693540E-2,-6.143572330E-1,9.408578873E0
8.135219633E2,2.069791555E-1,-6.041877344E-2,9.852447510E0
8.140219633E2,4.845465720E-1,1.322034448E-1,1.064686394E1
8.145219633E2,-2.440679073E-1,2.189432681E-1,9.425926208E0
8.150219633E2,-1.160518974E-1,1.214357466E-1,9.361918449E0
8.155219633E2,-1.052841991E-1,-2.662015259E-1,9.408578873E0
8.160219633E2,-5.862415582E-2,-3.571287692E-1,9.909874916E0
8.165219633E2,1.962114573E-1,-7.357929647E-2,1.013121128E1
8.170219633E2,-1.615155302E-2,-2.249253243E-1,9.564710617E0
8.175219633E2,1.178465188E-1,-7.477571070E-2,1.002293587E1
8.180219633E2,1.627119333E-1,-2.991028363E-3,9.984052658E0
8.185219633E2,1.674975902E-1,1.974078715E-1,9.896714211E0
8.190219633E2,-1.118644550E-1,-2.991028316E-2,9.625128746E0
8.195219633E2,-3.619144261E-1,-6.340979785E-2,9.785448074E0
8.200219633E2,-8.291130662E-1,-1.076770201E-2,1.003071213E1
8.205219633E2,-6.891329288E-1,-5.563312769E-2,9.783055305E0
8.210219633E2,-5.617151260E-1,9.870393574E-2,1.009412193E1
8.215219633E2,-6.364908218E-1,-2.033899166E-2,9.961918831E0
8.220219633E2,-6.376872063E-1,-4.426721856E-2,1.003549862E1
8.225219633E2,-5.874379873E-1,1.501496136E-1,9.229715347E0
8.230219633E2,-5.647061467E-1,8.494520187E-2,9.794421196E0
8.235219633E2,-4.612165689E-1,2.273181453E-2,9.815358162E0
8.240219633E2,-2.985046208E-1,1.178465188E-1,9.841081619E0
8.245219633E2,-4.181457460E-1,1.064806059E-1,9.943374634E0
8.250219633E2,-2.709871531E-1,-1.070788130E-1,9.764511108E0
8.255219633E2,-1.417747438E-1,4.947160780E-1,9.556933403E0
8.260219633E2,-3.445664644E-1,-1.328016520E-1,9.815358162E0
8.265219633E2,-1.704886109E-1,4.660021961E-1,9.754940033E0
8.270219633E2,-1.130608693E-1,-1.692921966E-1,1.011805058E1
8.275219633E2,-9.571290761E-2,1.722832322E-1,1.001276588E1
8.280219633E2,-1.878365725E-1,9.391828626E-2,9.777072906E0
8.285219633E2,-3.649054468E-2,1.848455518E-1,9.807581902E0
8.290219633E2,-8.255238086E-2,-5.922235921E-2,9.795019150E0
8.295219633E2,-2.991028363E-3,2.715853751E-1,9.812367439E0
8.300219633E2,5.144568533E-2,-1.579262912E-1,9.686145782E0
8.305219633E2,-2.344966233E-1,2.967100143E-1,9.818947792E0
8.310219633E2,-1.806581169E-1,4.785645287E-3,9.731011391E0
8.315219633E2,-1.339980662E-1,1.274178028E-1,9.797411919E0
8.320219633E2,-2.123630047E-1,-9.272187948E-2,9.762716293E0
8.325219633E2,-1.854437590E-1,3.469592705E-2,9.799804688E0
8.330219633E2,-1.914258152E-1,2.751746029E-2,9.615557671E0
8.335219633E2,-3.559323549E-1,1.130608693E-1,9.718449593E0
8.340219633E2,-3.858426511E-1,-1.082752272E-1,9.837491989E0
8.345219633E2,-3.194418252E-1,-1.256231871E-2,9.679565430E0
8.350219633E2,-3.702892959E-1,-3.828516230E-2,9.788438797E0
8.355219633E2,-3.194418252E-1,-1.794617064E-2,9.693922997E0
8.360219633E2,-3.858426511E-1,-4.426721856E-2,9.860223770E0
8.365219633E2,-3.272185028E-1,2.093719877E-2,9.877572060E0
8.370219633E2,-3.780659735E-1,5.563312769E-2,9.767501831E0
8.375219633E2,-3.218346536E-1,-8.494520187E-2,9.677771568E0
8.380219633E2,-2.554338276E-1,-5.922235921E-2,9.751948357E0
8.385219633E2,-2.027917206E-1,-6.520441920E-2,9.775279045E0
8.390219633E2,-2.374876440E-1,-4.666004330E-2,9.796216011E0
8.395219633E2,1.196411322E-3,-8.434699476E-2,9.746564865E0
8.400219633E2,7.776673883E-2,3.649054468E-2,9.605986595E0
8.405219633E2,8.015955985E-2,5.982056726E-3,9.662218094E0
8.410219633E2,1.322034448E-1,-7.477571070E-2,9.933803558E0
8.415219633E2,-2.991028363E-3,-4.486542568E-2,9.975079536E0
8.420219633E2,1.591227055E-1,-1.280160099E-1,9.830911636E0
8.425219633E2,2.554338276E-1,-7.477571070E-2,9.881160736E0
8.430219633E2,2.344966233E-1,-5.264209956E-2,9.785448074E0
8.435219633E2,-8.793623000E-2,-5.144568533E-2,9.853643417E0
8.440219633E2,6.340979785E-2,2.213360928E-2,9.801001549E0
8.445219633E2,-1.316052489E-2,-1.417747438E-1,9.904491425E0
8.450219633E2,3.828516230E-2,-1.034895778E-1,9.796216011E0
8.455219633E2,4.486542568E-2,-1.854437590E-1,9.938589096E0
8.460219633E2,1.136590727E-2,-4.606183618E-2,9.799804688E0
8.465219633E2,-1.615155302E-2,-6.041877344E-2,9.809376717E0
8.470219633E2,2.033899166E-2,-8.913264424E-2,9.817152977E0
8.475219633E2,6.041877344E-2,-8.614161611E-2,9.821340561E0
8.480219633E2,1.351944804E-1,-8.913264424E-2,9.856635094E0
8.485219633E2,-2.093719877E-2,-1.208375469E-1,9.880562782E0
8.490219633E2,-1.902294010E-1,-1.082752272E-1,9.475577354E0
8.495219633E2,-2.518445849E-1,-1.615155339E-1,9.818349838E0
8.500219633E2,-1.274178028E-1,-1.244267747E-1,9.815358162E0
8.505219633E2,-3.894318938E-1,-1.663011760E-1,1.021615601E1
8.510219633E2,-6.526423693E-1,-2.039881349E-1,1.003669453E1
8.515219633E2,-4.594219327E-1,-8.315058798E-2,9.801001549E0
8.520219633E2,-4.671986103E-1,-1.657029688E-1,9.699306488E0
8.525219633E2,-6.125625968E-1,-1.052841991E-1,9.732806206E0
8.530219633E2,-6.508477330E-1,-1.351944804E-1,9.780662537E0
8.535219633E2,-6.759724021E-1,-1.417747438E-1,9.760921478E0
8.540219633E2,-6.508477330E-1,-1.292124242E-1,9.775279045E0
8.545219633E2,-7.004988194E-1,-8.733802289E-2,9.728020668E0
8.550219633E2,-7.190431952E-1,-1.130608693E-1,9.739984512E0
8.555219633E2,-6.735795736E-1,-1.160518974E-1,9.760921478E0
8.560219633E2,-6.556333899E-1,-7.776673883E-2,9.739984512E0
8.565219633E2,-6.891329288E-1,-7.477571070E-2,9.762716293E0
8.570219633E2,-6.777670383E-1,-6.340979785E-2,9.756135941E0
8.575219633E2,-4.671986103E-1,-1.794616925E-3,9.844072342E0
8.580219633E2,-3.349951655E-2,9.314061999E-1,9.531210899E0
8.585219633E2,2.171486616E-1,1.088136077E0,9.767501831E0
8.590219633E2,4.175475538E-1,1.395613790E0,9.673583984E0
8.595219633E2,6.909275651E-1,1.771885157E0,9.594022751E0
8.600219633E2,4.319044948E-1,1.439282775E0,9.707083702E0
8.605219633E2,4.325026870E-1,1.376471281E0,9.716055870E0
8.610219633E2,4.277170599E-1,1.400997639E0,9.731011391E0
8.615219633E2,4.342973232E-1,1.406979680E0,9.743574142E0
8.620219633E2,4.438686073E-1,1.501496196E0,9.681360245E0
8.625219633E2,4.414757788E-1,1.470389485E0,9.656235695E0
8.630219633E2,4.689932466E-1,1.453639746E0,9.731011391E0
8.635219633E2,4.612165689E-1,1.419542074E0,9.698708534E0
8.640219633E2,4.325026870E-1,1.368694544E0,9.740582466E0
8.645219633E2,5.347958803E-1,1.381855130E0,9.661021233E0
8.650219633E2,3.696911037E-1,1.389033556E0,9.689735413E0
8.655219633E2,4.223332107E-1,1.384247899E0,9.720842361E0
8.660219633E2,4.067798555E-1,1.343569875E0,9.722636223E0
8.665219633E2,3.314059377E-1,1.319641709E0,9.689735413E0
8.670219633E2,3.846462369E-1,1.290329576E0,9.699306488E0
8.675219633E2,4.229314029E-1,1.302891970E0,9.729216576E0
8.680219633E2,3.768695593E-1,1.351346612E0,9.655637741E0
8.685219633E2,2.261217386E-1,1.356132269E0,9.549157143E0
8.690219633E2,7.537391037E-2,1.389631748E0,9.613164902E0
8.695219633E2,-6.394818425E-1,1.319043517E0,9.815358162E0
8.700219633E2,-4.175475538E-1,1.292124271E0,9.772287369E0
8.705219633E2,-3.649054468E-1,1.245464206E0,9.734002113E0
8.710219633E2,-4.893322289E-1,1.274776220E0,9.670592308E0
8.715219633E2,-5.072783828E-1,1.259821177E0,9.741779327E0
8.720219633E2,-5.084748268E-1,1.214357495E0,9.845269203E0
8.725219633E2,-4.881358147E-1,1.250848055E0,9.751350403E0
8.730219633E2,-4.929214716E-1,1.228714466E0,9.700503349E0
8.735219633E2,-4.438686073E-1,1.188036442E0,9.847063065E0
8.740219633E2,-4.193421602E-1,1.196411371E0,9.778269768E0
8.745219633E2,-4.145565331E-1,1.183848977E0,9.735796928E0
8.750219633E2,-5.024927258E-1,1.194616675E0,9.854840279E0
8.755219633E2,-4.366901219E-1,1.161117196E0,9.896714211E0
8.760219633E2,-4.151547253E-1,1.183250785E0,9.553942680E0
8.765219633E2,-5.012963414E-1,1.152144074E0,9.806983948E0
8.770219633E2,-4.630111754E-1,1.095912814E0,9.815358162E0
8.775219633E2,-4.390829504E-1,1.135992527E0,9.888937950E0
8.780219633E2,-4.564309120E-1,1.159322619E0,9.592227936E0
8.785219633E2,-4.336991012E-1,1.073180914E0,9.711270332E0
8.790219633E2,-5.264210105E-1,1.121635556E0,9.807581902E0
8.795219633E2,-4.965106845E-1,1.077966571E0,9.696913719E0
8.800219633E2,-4.869394004E-1,1.140179992E0,9.679565430E0
8.805219633E2,-4.725824594E-1,1.024128079E0,9.824930191E0
8.810219633E2,-5.359922647E-1,9.966106415E-1,9.921838760E0
8.815219633E2,-4.438686073E-1,1.097707391E0,9.777072906E0
8.820219633E2,-4.851447940E-1,1.080359459E0,9.915857315E0
8.825219633E2,-2.787638307E-1,1.003789067E0,9.827920914E0
8.830219633E2,-4.019941986E-1,9.750752449E-1,9.732806206E0
8.835219633E2,-4.211367965E-1,8.362914920E-1,9.790233612E0
8.840219633E2,-3.505485058E-1,9.684949517E-1,9.646664619E0
8.845219633E2,-1.208375469E-1,1.037288666E0,9.732806206E0
8.850219633E2,-2.476571500E-1,7.956135273E-1,9.588638306E0
8.855219633E2,-3.074777126E-1,9.044869542E-1,9.741779327E0
8.860219633E2,-2.261217386E-1,8.362914920E-1,9.335597992E0
8.865219633E2,-3.816552162E-1,9.798609018E-1,9.901499748E0
8.870219633E2,-3.080759048E-1,5.635097623E-1,9.915857315E0
8.875219633E2,-3.044866920E-1,1.197607756E0,1.085384369E1
8.880219633E2,-3.062812984E-1,9.218349457E-1,1.024128056E1
8.885219633E2,-1.944168359E-1,6.257231236E-1,1.025743294E1
8.890219633E2,-1.423729509E-1,6.987041831E-1,1.018744278E1
8.895219633E2,-2.991028316E-2,8.871390224E-1,1.026341438E1
8.900219633E2,-2.273181453E-2,7.322037220E-1,9.979267120E0
8.905219633E2,-1.962114573E-1,9.696913958E-1,9.960124016E0
8.910219633E2,-3.960121572E-1,6.460621357E-1,9.967302322E0
8.915219633E2,-1.399801224E-1,6.891329288E-1,9.960124016E0
8.920219633E2,-1.405783296E-1,6.095715761E-1,1.015813065E1
8.925219633E2,-3.708875179E-2,4.133601189E-1,9.874580383E0
8.930219633E2,-2.709871531E-1,5.611169338E-1,1.012642574E1
8.935219633E2,-2.859423161E-1,6.891329288E-1,9.602995872E0
8.940219633E2,1.118644550E-1,6.412764788E-1,9.500701904E0
8.945219633E2,-2.907279432E-1,5.120640397E-1,9.810572624E0
8.950219633E2,2.751746029E-2,4.259224236E-1,9.625128746E0
8.955219633E2,-2.548356056E-1,5.581258535E-1,9.382855415E0
8.960219633E2,-9.690931439E-2,4.480560422E-1,9.999007225E0
8.965219633E2,-4.426721856E-2,5.324030519E-1,9.647860527E0
8.970219633E2,4.007977992E-2,6.281159520E-1,9.314062119E0
8.975219633E2,-7.657032460E-2,4.295116663E-1,9.585647583E0
8.980219633E2,-5.599204898E-1,1.004985496E-1,9.598808289E0
8.985219633E2,-1.884347796E-1,7.657032460E-2,9.841081619E0
8.990219633E2,-1.974078715E-1,-1.579262912E-1,1.015214825E1
8.995219633E2,1.339980662E-1,-2.500499785E-1,1.039920712E1
9.000219633E2,7.591229677E-1,-2.392822653E-1,9.856635094E0
9.005219633E2,1.025324464E0,-2.213360965E-1,9.840482712E0
9.010219633E2,2.727817893E-1,2.362912297E-1,9.815358162E0
9.015219633E2,5.874379873E-1,8.147560954E-1,9.729216576E0
9.020219633E2,5.724828243E-1,1.051645517E0,9.737591743E0
9.025219633E2,7.944171429E-1,1.506281853E0,9.760921478E0
9.030219633E2,1.041476011E0,2.082952023E0,9.548559189E0
9.035219633E2,1.001994491E0,2.146960020E0,9.435498238E0
9.040219633E2,1.741974831E0,3.134597778E0,9.235098839E0
9.045219633E2,1.222134113E0,3.525225878E0,9.381061554E0
9.050219633E2,1.033699393E0,3.544368505E0,9.342776299E0
9.055219633E2,1.025324464E0,3.497110367E0,8.942576408E0
9.060219633E2,8.997012973E-1,3.634099483E0,8.732605934E0
9.065219633E2,-4.193421602E-1,3.117249727E0,9.756733894E0
9.070219633E2,-1.740778536E-1,2.029113531E0,9.486345291E0
9.075219633E2,-7.351947427E-1,1.778465390E0,1.001456070E1
9.080219633E2,6.580262631E-2,2.201396942E0,9.713065147E0
9.085219633E2,9.212367237E-2,2.097309113E0,1.006780148E1
9.090219633E2,1.070788130E-1,1.867598057E0,9.627521515E0
9.095219633E2,1.310070455E-1,2.080559254E0,9.079565048E0
9.100219633E2,2.488535494E-1,1.936989903E0,9.184849739E0
9.105219633E2,-2.512463741E-2,2.027917147E0,9.153742790E0
9.110219633E2,7.836493850E-2,1.934597135E0,9.293723106E0
9.115219633E2,-1.196411327E-1,1.909472466E0,9.579665184E0
9.120219633E2,7.956135273E-2,2.027917147E0,9.531808853E0
9.125219633E2,5.084748194E-2,1.952543259E0,9.072386742E0
9.130219633E2,3.074777126E-1,2.171486616E0,9.696913719E0
9.135219633E2,4.905286431E-2,2.281556368E0,9.698708534E0
9.140219633E2,3.714857101E-1,2.073979139E0,9.111868858E0
9.145219633E2,-4.127619043E-2,2.131406784E0,9.850054741E0
9.150219633E2,1.692921966E-1,2.252244234E0,9.448060036E0
9.155219633E2,1.663011760E-1,1.979462504E0,9.668798447E0
9.160219633E2,-3.044866920E-1,2.116451740E0,1.022991467E1
9.165219633E2,-8.374879137E-3,1.929811478E0,1.005344391E1
9.170219633E2,-1.950150430E-1,2.099701881E0,1.046022415E1
9.175219633E2,-8.315058798E-2,1.922633052E0,9.675378799E0
9.180219633E2,-1.950150430E-1,2.008774519E0,9.432506561E0
9.185219633E2,-7.956135273E-2,1.959123492E0,9.468997002E0
9.190219633E2,-1.794616925E-3,1.816750646E0,9.591629982E0
9.195219633E2,-1.722832322E-1,1.867598057E0,9.205786705E0
9.200219633E2,-2.518445849E-1,1.826920033E0,9.659226418E0
9.205219633E2,0.000000000E0,1.831705689E0,9.411569595E0
9.210219633E2,-2.183450609E-1,1.719841242E0,9.558728218E0
9.215219633E2,-3.314059377E-1,1.805384636E0,9.306285858E0
9.220219633E2,-4.384847581E-1,1.660618901E0,8.875576973E0
9.225219633E2,-5.395814776E-1,2.188834429E0,8.151748657E0
9.230219633E2,-2.763710022E-1,1.328614831E0,8.323433876E0
9.235219633E2,-4.319044948E-1,1.296909928E0,9.373284340E0
9.240219633E2,-7.100701332E-1,1.142572761E0,1.009950638E1
9.245219633E2,-4.869394004E-1,1.617548108E0,9.944570541E0
9.250219633E2,-5.216353536E-1,1.748555183E0,9.489934921E0
9.255219633E2,-5.282155871E-1,1.332203984E0,9.687342644E0
9.260219633E2,-6.687939167E-1,1.518844128E0,9.853643417E0
9.265219633E2,-5.084748268E-1,1.319043517E0,9.845269203E0
9.270219633E2,-6.508477330E-1,1.534995675E0,9.788438797E0
9.275219633E2,-7.022934556E-1,1.299900889E0,9.570094109E0
9.280219633E2,-7.082754970E-1,1.375274777E0,9.677771568E0
9.285219633E2,-5.198407173E-1,1.165902853E0,9.334999084E0
9.290219633E2,-4.175475538E-1,1.094118118E0,1.018744278E1
9.295219633E2,-9.224331379E-1,1.045065284E0,9.799804688E0
9.300219633E2,-4.755735099E-1,1.336391449E0,9.354142189E0
9.305219633E2,-8.201399446E-1,8.458628058E-1,9.787840843E0
9.310219633E2,-9.607182741E-1,7.357929349E-1,9.528220177E0
9.315219633E2,-9.266205430E-1,6.568298340E-1,9.321240425E0
9.320219633E2,-7.477570772E-1,6.765705943E-1,9.231510162E0
9.325219633E2,-1.051047325E0,6.107679605E-1,9.620343208E0
9.330219633E2,-6.681957245E-1,7.896314859E-1,9.349356651E0
9.335219633E2,-9.792626500E-1,7.722834945E-1,9.364311218E0
9.340219633E2,-8.356932998E-1,4.420739710E-1,9.399007797E0
9.345219633E2,-6.604190469E-1,7.142575383E-1,9.362516403E0
9.350219633E2,-8.697910309E-1,6.221339107E-1,9.774082184E0
9.355219633E2,-8.249256015E-1,7.501499057E-1,9.378668785E0
9.360219633E2,-9.026923180E-1,7.166503668E-1,9.369096756E0
9.365219633E2,-1.060618639E0,5.006981492E-1,9.845867157E0
9.370219633E2,-1.013360381E0,4.989035130E-1,9.730413437E0
9.375219633E2,-8.297112584E-1,5.407779217E-1,9.234500885E0
9.380219633E2,-9.026923180E-1,4.366901219E-1,9.586843491E0
9.385219633E2,-7.866404653E-1,6.999006271E-1,9.327222824E0
9.390219633E2,-8.644071817E-1,4.037888348E-1,9.545567513E0
9.395219633E2,-1.109073281E0,5.724828243E-1,1.001755238E1
9.400219633E2,-4.965106845E-1,3.367897868E-1,9.942776680E0
9.405219633E2,-1.399801224E-1,3.864408433E-1,9.865009308E0
9.410219633E2,-4.049852192E-1,1.800599098E-1,9.759725571E0
9.415219633E2,-4.307080805E-2,-5.922235921E-2,9.168100357E0
9.420219633E2,-1.405783296E-1,-2.871387079E-2,9.875777245E0
9.425219633E2,-3.092723191E-1,-1.375873089E-1,9.314660072E0
9.430219633E2,-1.039681435E0,-2.404786795E-1,9.885348320E0
9.435219633E2,-1.759322882E0,3.349951655E-2,9.205786705E0
9.440219633E2,-1.333998680E0,-4.133601189E-1,9.937990189E0
9.445219633E2,-1.779063582E0,-6.251249313E-1,1.003430176E1
9.450219633E2,-1.543968797E0,-7.962117195E-1,1.020479012E1
9.455219633E2,-1.140778184E0,-6.233302951E-1,1.000798035E1
9.460219633E2,-9.505487680E-1,-5.198407173E-1,9.789635658E0
9.465219633E2,-1.220339537E0,-1.639083475E-1,9.652647018E0
9.470219633E2,-4.390829504E-1,-4.271188378E-1,9.177671432E0
9.475219633E2,-9.924231768E-1,-6.975077987E-1,9.954142570E0
9.480219633E2,-6.496513486E-1,-6.107679605E-1,9.875777245E0
9.485219633E2,-6.687939167E-1,-3.858426511E-1,9.941579819E0
9.490219633E2,-1.043270707E0,-5.024927258E-1,9.635298729E0
9.495219633E2,-1.578066587E0,-2.793620527E-1,9.587442398E0
9.500219633E2,-1.338186026E0,-3.655036688E-1,9.594022751E0
9.505219633E2,-1.394417405E0,-2.213360965E-1,9.644869804E0
9.510219633E2,-1.877169371E0,-1.041476011E0,9.778867722E0
9.515219633E2,-2.092523336E0,-5.922235847E-1,9.701699257E0
9.520219633E2,-1.695913076E0,-9.104689956E-1,9.812367439E0
9.525219633E2,-1.457827210E0,-8.374879360E-1,9.597013474E0
9.530219633E2,-1.457827210E0,-7.148557901E-1,9.585647583E0
9.535219633E2,-1.427318692E0,-8.961120844E-1,9.562915802E0
9.540219633E2,-1.423131227E0,-9.589236975E-1,9.673583984E0
9.545219633E2,-1.504487276E0,-8.787640929E-1,9.612566948E0
9.550219633E2,-1.587039590E0,-8.356932998E-1,9.520442963E0
9.555219633E2,-1.652842283E0,-7.609176040E-1,9.516854286E0
9.560219633E2,-1.657627940E0,-9.918249846E-1,9.552147865E0
9.565219633E2,-1.668993831E0,-8.745766878E-1,9.576076508E0
9.570219633E2,-1.756331801E0,-9.032905698E-1,9.577272415E0
9.575219633E2,-1.750349760E0,-1.008574724E0,9.592227936E0
9.580219633E2,-1.397408366E0,-9.361918569E-1,9.636494637E0
9.585219633E2,-1.534397483E0,-8.458628058E-1,9.472586632E0
9.590219633E2,-1.585245013E0,-9.583254457E-1,9.676574707E0
9.595219633E2,-1.719243050E0,-9.062815905E-1,9.622138023E0
9.600219633E2,-1.374676585E0,-1.060618639E0,9.737591743E0
9.605219633E2,-1.399203062E0,-9.409775138E-1,9.520442963E0
9.610219633E2,-1.479960799E0,-1.018146038E0,9.742377281E0
9.615219633E2,-1.450050473E0,-9.714859724E-1,9.646066666E0
9.620219633E2,-1.408176184E0,-9.332008362E-1,9.597013474E0
9.625219633E2,-1.405783296E0,-9.505487680E-1,9.667003632E0
9.630219633E2,-1.546959877E0,-9.170492887E-1,9.376275063E0
9.635219633E2,-1.801197290E0,-9.750752449E-1,9.739984512E0
9.640219633E2,-1.511067510E0,-9.954141974E-1,9.633503914E0
9.645219633E2,-1.633101463E0,-9.302098155E-1,9.690931320E0
9.650219633E2,-1.655833244E0,-8.835497499E-1,9.591629982E0
9.655219633E2,-1.730608940E0,-8.500502706E-1,9.577870369E0
9.660219633E2,-1.606182218E0,-8.452646136E-1,9.469595909E0
9.665219633E2,-1.655833244E0,-8.967102766E-1,9.631709099E0
9.670219633E2,-1.450050473E0,-8.530412912E-1,9.536594391E0
9.675219633E2,-1.424925923E0,-7.495517135E-1,9.434301376E0
9.680219633E2,-1.417747378E0,-8.578268886E-1,9.646664619E0
9.685219633E2,-1.440479279E0,-8.871390224E-1,9.734002113E0
9.690219633E2,-1.444068432E0,-8.243274093E-1,9.656235695E0
9.695219633E2,-1.499103427E0,-8.315058947E-1,9.634700775E0
9.700219633E2,-1.433898926E0,-8.644071817E-1,9.665208817E0
9.705219633E2,-1.526620865E0,-8.835497499E-1,9.643074989E0
9.710219633E2,-1.491326690E0,-8.356932998E-1,9.608379364E0
9.715219633E2,-1.872981906E0,-8.602197170E-1,9.649655342E0
9.720219633E2,-1.978266120E0,-7.884350419E-1,9.616155624E0
9.725219633E2,-1.920240164E0,-7.064808607E-1,9.600004196E0
9.730219633E2,-1.910668850E0,-7.525427341E-1,9.665208817E0
9.735219633E2,-1.810768485E0,-7.322037220E-1,9.569496155E0
9.740219633E2,-1.676770449E0,-6.699903607E-1,9.565308571E0
9.745219633E2,-1.339980721E0,-7.483552694E-1,9.781859398E0
9.750219633E2,-1.338186026E0,-6.681957245E-1,9.543772697E0
9.755219633E2,-1.391426325E0,-7.465606928E-1,9.632308006E0
9.760219633E2,-1.360319614E0,-6.508477330E-1,9.726225853E0
9.765219633E2,-1.212562919E0,-5.485545993E-1,9.670592308E0
9.770219633E2,-7.884350419E-1,-1.274178028E-1,9.569496155E0
9.775219633E2,-6.281159520E-1,-1.914258115E-2,9.694520950E0
9.780219633E2,-7.022934556E-1,3.948157281E-2,9.727422714E0
9.785219633E2,-5.742774606E-1,1.148554832E-1,9.876375198E0
9.790219633E2,5.617151260E-1,7.052844763E-1,9.623932838E0
9.795219633E2,5.820540786E-1,1.381256819E0,9.395418167E0
9.800219633E2,7.932206988E-1,2.236092806E0,9.827920914E0
9.805219633E2,5.706881881E-1,2.662613392E0,9.376275063E0
9.810219633E2,7.668996453E-1,3.252444267E0,9.212367058E0
9.815219633E2,8.662018180E-1,3.171088219E0,9.265008926E0
9.820219633E2,8.721838593E-1,3.192025423E0,9.382855415E0
9.825219633E2,9.140582681E-1,3.226721287E0,9.186644554E0
9.830219633E2,9.176474810E-1,3.190230846E0,9.241081238E0
9.835219633E2,9.349954724E-1,3.184248686E0,9.196215630E0
9.840219633E2,9.714859724E-1,3.206382275E0,9.174081802E0
9.845219633E2,1.030110121E0,3.168097258E0,9.330213547E0
9.850219633E2,1.043270707E0,3.218944550E0,9.269794464E0
9.855219633E2,1.099501967E0,3.206382275E0,9.211171150E0
9.860219633E2,7.429714203E-1,3.217149973E0,9.384650230E0
9.865219633E2,8.727820516E-1,3.232105255E0,9.239884377E0
9.870219633E2,1.080359459E0,3.212962627E0,9.224929810E0
9.875219633E2,1.112064362E0,3.169293642E0,9.287740707E0
9.880219633E2,1.162911773E0,3.183650494E0,9.263813019E0
9.885219633E2,1.080359459E0,3.254238844E0,9.196813583E0
9.890219633E2,1.178465128E0,3.198605776E0,9.180662155E0
9.895219633E2,2.392822653E-1,3.385245800E0,8.572287560E0
