"Time (s)","Gyroscope x (rad/s)","Gyroscope y (rad/s)","Gyroscope z (rad/s)"
2.772866370E-1,5.589412898E-2,1.811214089E-1,2.138026757E-3
7.813412200E-1,-1.220202371E-1,-1.713475734E-1,1.588248461E-2
1.285397002E0,-1.939495653E-2,1.336266696E-1,2.871064469E-2
1.789453824E0,-4.596757516E-2,-3.970621154E-3,3.054323839E-3
2.293511689E0,6.520981342E-2,-8.674279600E-2,-1.507308781E-1
2.797570491E0,2.947422490E-2,-3.970621154E-2,1.831067204E-1
3.301630022E0,2.229656465E-2,6.383536756E-2,2.412915789E-2
3.805692967E0,5.146535859E-2,1.353065521E-1,-1.024725661E-1
4.309753696E0,-1.091920808E-1,9.773836471E-3,-4.184423760E-2
4.813814946E0,-1.206457894E-2,-1.618791744E-2,3.115410358E-2
5.317876561E0,-6.276635826E-2,-1.908952370E-2,3.054323979E-2
5.821938592E0,5.543597788E-2,-3.970621154E-3,-1.924224012E-2
6.326001092E0,5.100720748E-2,-9.926552884E-3,1.374445739E-3
6.830064113E0,2.718348242E-2,-3.649916872E-2,-1.282816008E-2
7.334127811E0,2.794706449E-2,6.505709887E-2,3.115410358E-2
7.838192238E0,2.580903657E-2,5.253437161E-2,6.322450191E-2
8.342257446E0,-5.589412898E-2,-6.169734150E-2,6.963858753E-2
8.846323436E0,-4.367683083E-2,-7.024944760E-3,-1.679878123E-2
9.350390050E0,-1.527161989E-2,-8.093958721E-3,-1.710421406E-2
9.854457290E0,-1.878409274E-2,-2.443459118E-3,-1.496618707E-2
1.035852489E1,-1.603520103E-2,-1.649334840E-2,-2.138026804E-2
1.086259281E1,-9.926552884E-3,-1.359174121E-2,-2.596175298E-2
1.136666099E1,-1.531743407E-1,-1.191186346E-2,1.725693047E-2
1.187072916E1,-3.481929377E-2,1.603520103E-2,-7.803797722E-2
1.237479739E1,-2.641990222E-2,5.650499370E-3,-2.886336111E-2
1.287886547E1,-7.635809947E-3,-9.010255337E-3,-6.719512399E-3
1.338293349E1,-7.024944760E-3,6.108647794E-4,-9.010255337E-3
1.388700161E1,-2.474002354E-2,4.581485991E-4,-4.276053514E-3
1.439106979E1,1.420260593E-2,6.872228812E-3,-1.130099874E-2
1.489513797E1,7.635809947E-3,1.221729536E-2,-7.330377586E-3
1.539920609E1,-1.893680729E-2,-8.399390616E-3,3.817904973E-3
1.590327427E1,3.817904973E-3,3.054323897E-4,1.527161920E-3
1.640734250E1,-5.329795182E-2,1.583666950E-1,-1.866191924E-1
1.691141078E1,-8.536835015E-2,-9.437860548E-2,9.346231073E-2
1.741547896E1,-3.970621154E-2,6.566796452E-3,2.871064469E-2
1.791954693E1,-1.649334840E-2,-1.282816008E-2,3.405570984E-2
1.842361469E1,6.108647678E-3,-8.093958721E-3,1.863137633E-2
1.892768229E1,-5.345067009E-3,6.108647794E-4,4.734201822E-3
1.943174979E1,-3.359756200E-3,2.596175298E-3,-1.374445739E-3
1.993581786E1,-6.261364091E-3,0.000000000E0,3.512472380E-3
2.043988729E1,-8.704823442E-3,5.497782957E-3,2.596175298E-3
2.094396552E1,-1.527161989E-2,5.803215317E-3,4.276053514E-3
2.144803870E1,-9.162971983E-4,1.557705179E-2,1.221729559E-3
2.195210646E1,-1.908952370E-2,3.359756200E-3,-2.748891478E-3
2.245618302E1,1.924224012E-2,-3.711003438E-2,-4.581485875E-3
2.296026109E1,9.010255337E-3,2.596175298E-3,-5.497782957E-3
2.346434015E1,-6.108647794E-4,6.108647678E-3,1.221729559E-3
2.396841989E1,3.665188793E-3,-2.138026757E-3,-4.581485991E-4
2.447250000E1,-1.069013379E-3,9.162971983E-4,-2.290742937E-3
2.497658026E1,-2.748891478E-3,-4.581485991E-4,0.000000000E0
2.548066068E1,5.192350596E-3,-1.053741761E-2,-0.000000000E0
2.598474135E1,8.384118974E-2,-2.031125315E-2,-2.260199748E-2
2.648882208E1,1.695149764E-2,-8.399390616E-3,1.740964688E-2
2.699290281E1,7.483093534E-3,-3.054323839E-3,4.886918236E-3
2.749698359E1,-1.527161989E-2,3.817904973E-3,-1.374445739E-3
2.800106422E1,-3.817904973E-3,1.832594397E-3,-2.596175298E-3
2.850514463E1,-3.207040019E-3,6.108647678E-3,-7.483093534E-3
2.900922484E1,-8.704823442E-3,-4.581485875E-3,3.207040019E-3
2.951330484E1,-9.010255337E-3,1.527161920E-3,-2.138026757E-3
3.001738463E1,-2.138026757E-3,5.345067009E-3,-1.374445739E-3
3.052146437E1,-1.069013379E-3,-6.108647794E-4,3.359756200E-3
3.102554427E1,-9.162971983E-4,1.679878100E-3,-9.162971983E-4
3.152962437E1,-4.428769462E-3,1.527161949E-4,1.985310577E-3
3.203370479E1,5.497782957E-3,-3.359756200E-3,-2.596175298E-3
3.253778578E1,3.207040019E-3,-1.069013379E-3,4.276053514E-3
3.304186729E1,-1.496618707E-2,7.941242307E-3,-4.734201822E-3
3.354594906E1,2.748891478E-3,5.345067009E-3,-4.276053514E-3
3.405003083E1,8.246674202E-3,-9.162971983E-4,5.039634649E-3
3.455411234E1,-3.054323897E-4,6.719512399E-3,4.276053514E-3
3.505819364E1,5.039634649E-3,4.581485991E-4,1.267544460E-2
3.556227489E1,-3.054323897E-4,-1.069013379E-3,9.468403645E-3
3.606635609E1,9.162971983E-4,-2.748891478E-3,2.321286127E-2
3.657043719E1,6.398808211E-2,-1.038470119E-2,5.467239767E-2
3.707451802E1,-4.367683083E-2,2.367101051E-2,-5.803215317E-3
3.757859833E1,-7.941242307E-3,9.162971750E-3,1.389717404E-2
3.808267828E1,-2.138026757E-3,1.114828233E-2,2.168569900E-2
3.858675776E1,-5.039634649E-3,7.177661173E-3,1.985310577E-2
3.909083687E1,9.162971983E-4,5.650499370E-3,1.710421406E-2
3.959491568E1,-7.941242307E-3,-3.512472380E-3,3.054323979E-2
4.009899411E1,-1.359174121E-2,-2.107483521E-2,3.634645417E-2
4.060307234E1,-4.276053514E-3,3.756818548E-2,-2.046396956E-2
4.110715026E1,8.704823442E-3,-2.199113183E-2,4.566214234E-2
4.161122797E1,-6.719512399E-3,1.175914705E-2,-4.886918236E-3
4.211530552E1,3.817904973E-3,-6.108647794E-4,4.886918236E-3
4.261938318E1,4.581485991E-4,3.512472380E-3,1.679878100E-3
4.312346073E1,-2.748891478E-3,1.679878100E-3,1.069013379E-3
4.362753828E1,-1.527161920E-3,1.679878100E-3,0.000000000E0
4.413161573E1,-8.093958721E-3,1.878409274E-2,-3.359756200E-3
4.463569297E1,-4.581485875E-3,3.359756200E-3,-6.108647794E-4
4.513977005E1,2.901607659E-3,-7.177661173E-3,-6.108647794E-4
4.564384703E1,1.832594397E-3,-2.290742937E-3,-4.734201822E-3
4.614792401E1,-1.832594350E-2,-5.039634649E-3,6.108647678E-3
4.665200088E1,-1.679878123E-2,2.443459118E-3,6.108647678E-3
4.715607771E1,3.970621154E-3,3.207040019E-3,3.054323897E-4
4.766015442E1,1.038470119E-2,2.748891478E-3,-1.985310577E-3
4.816423104E1,-2.748891478E-3,1.832594397E-3,2.748891478E-3
4.866830739E1,-2.443459118E-3,1.527161920E-3,9.162971983E-4
4.917238364E1,-3.359756200E-3,-4.581485991E-4,-1.527161949E-4
4.967645974E1,1.832594397E-3,-0.000000000E0,3.054323897E-4
5.018053578E1,-4.581485875E-3,-3.817904973E-3,1.374445739E-3
5.068461172E1,-7.635809947E-3,3.512472380E-3,-2.290742937E-3
5.118868745E1,4.734201822E-3,5.497782957E-3,-1.221729559E-3
5.169276302E1,5.345067009E-3,-1.527161949E-4,-3.054323897E-4
5.219683838E1,-3.359756200E-3,2.748891478E-3,2.138026757E-3
5.270091364E1,3.970621154E-3,-6.719512399E-3,-7.635809598E-4
5.320498890E1,1.334739476E-1,-6.902772188E-2,-2.565632015E-2
5.370906416E1,8.200860023E-2,6.719512492E-2,-2.840521187E-2
5.421313963E1,-1.374445762E-2,-1.649334840E-2,1.221729536E-2
5.471721521E1,9.010255337E-3,-1.954767294E-2,-1.603520103E-2
5.522129104E1,-7.177661173E-3,2.138026757E-3,2.199113183E-2
5.572536739E1,-8.552107029E-3,-1.527161920E-3,1.298087649E-2
5.622944515E1,-1.099556591E-2,-1.786779426E-2,-1.939495653E-2
5.673352495E1,-1.527161920E-3,4.581485991E-4,1.099556591E-2
5.723760765E1,-3.970621154E-3,-5.497782957E-3,5.345067009E-3
5.774169364E1,1.802051067E-2,-1.038470119E-2,4.886918236E-3
5.824578260E1,-9.926552884E-3,6.566796452E-3,1.832594397E-3
5.874987448E1,-0.000000000E0,-7.177661173E-3,-3.817904973E-3
5.925396901E1,1.679878100E-3,-1.069013379E-3,7.330377586E-3
5.975806614E1,-2.901607659E-3,-7.635809598E-4,-1.221729559E-3
6.026216703E1,-1.527161949E-4,-1.740964688E-2,3.207040019E-3
6.076627213E1,1.221729559E-3,1.069013379E-3,1.832594397E-3
6.127038172E1,9.162971983E-4,1.527161920E-3,6.108647794E-4
6.177449604E1,-3.054323897E-4,-3.054323897E-4,1.221729559E-3
6.227861479E1,-6.108647794E-4,-3.359756200E-3,1.832594397E-3
6.278273708E1,-1.191186346E-2,4.581485875E-3,-1.221729559E-3
6.328686182E1,2.290742937E-3,-1.832594397E-3,-2.443459118E-3
6.379098550E1,9.162971983E-4,-5.039634649E-3,-1.130099874E-2
6.429511294E1,5.558869615E-2,-1.527161949E-4,-9.162971750E-3
6.479924102E1,1.970038936E-2,6.475166976E-2,7.131846249E-2
6.530336951E1,-5.131264031E-2,-9.468403645E-3,-3.054323897E-4
6.580749795E1,2.107483521E-2,1.175914705E-2,6.918043643E-2
6.631162659E1,3.665188700E-2,-2.489273995E-2,-1.771507785E-2
6.681575612E1,-8.231402934E-2,5.207622424E-2,-9.285144508E-2
6.731988696E1,-9.926552884E-3,-9.010255337E-3,-3.222311661E-2
6.782401888E1,3.711003438E-2,4.581485875E-3,1.053741761E-2
6.832815128E1,-1.343902480E-2,1.267544460E-2,-1.282816008E-2
6.883228341E1,-2.229656465E-2,0.000000000E0,1.679878100E-3
6.933641477E1,-2.076940238E-2,-9.010255337E-3,5.955931731E-3
6.984054508E1,-1.267544460E-2,-3.665188793E-3,2.138026757E-3
7.034467430E1,-2.122755162E-2,3.512472380E-3,1.038470119E-2
7.084880232E1,-1.206457894E-2,7.635809598E-4,6.108647678E-3
7.135292914E1,-1.298087649E-2,1.985310577E-3,3.970621154E-3
7.185705482E1,-3.359756246E-2,2.290742937E-3,9.621120058E-3
7.236117925E1,-1.023198478E-2,-1.527161920E-3,1.221729559E-3
7.286530242E1,-1.114828233E-2,-1.832594397E-3,-3.054323839E-3
7.336942440E1,5.803215317E-3,-6.108647794E-4,-2.901607659E-3
7.387354518E1,4.581485991E-4,-1.527161949E-4,-3.665188793E-3
7.437766477E1,-3.970621154E-3,3.207040019E-3,1.832594397E-3
7.488178305E1,-1.313359290E-2,8.857538924E-3,4.581485875E-3
7.538590019E1,-1.832594350E-2,4.276053514E-3,5.192350596E-3
7.589001617E1,-4.581485875E-3,6.108647794E-4,-1.069013379E-3
7.639413123E1,-1.985310577E-3,-3.054323897E-4,1.527161949E-4
7.689824550E1,6.078104675E-2,-2.199113183E-2,-1.282816008E-2
7.740235894E1,-5.650499370E-3,2.290742937E-3,-1.298087649E-2
7.790647180E1,1.221729536E-2,8.246674202E-3,6.414080039E-3
7.841058425E1,-9.468403645E-3,2.596175298E-3,-1.084284950E-2
7.891469617E1,-2.306014486E-2,3.970621154E-3,1.175914705E-2
7.941880742E1,-7.330377586E-3,5.803215317E-3,-6.108647678E-3
7.992291805E1,-9.773836471E-3,1.527161949E-4,5.955931731E-3
8.042702810E1,4.886918236E-3,-3.817904973E-3,-2.443459118E-3
8.093113769E1,1.695149764E-2,1.985310577E-3,-6.108647794E-4
8.143524685E1,-1.817322709E-2,-6.108647678E-3,-5.803215317E-3
8.193935555E1,7.330377586E-3,5.497782957E-3,-1.007926930E-2
8.244346362E1,-8.552107029E-3,2.229656465E-2,-3.313941509E-2
8.294757123E1,-3.054323839E-3,-1.160643063E-2,-4.886918236E-3
8.345167821E1,-3.054323897E-4,1.053741761E-2,-8.093958721E-3
8.395578472E1,-1.374445739E-3,-4.581485991E-4,-4.886918236E-3
8.445989076E1,-1.908952370E-2,2.901607659E-3,-3.054323897E-4
8.496399633E1,-1.695149764E-2,-5.955931731E-3,3.512472380E-3
8.546810149E1,6.414080039E-3,-2.397644334E-2,2.260199748E-2
8.597220644E1,4.871646687E-2,-1.740964688E-2,1.389717404E-2
8.647631123E1,-1.893680729E-2,1.450803876E-2,9.162971983E-4
8.698041571E1,-2.672533318E-2,1.007926930E-2,4.734201822E-3
8.748451977E1,-1.206457894E-2,4.123337101E-3,5.497782957E-3
8.798862362E1,2.321286127E-2,6.108647794E-4,-7.635809947E-3
8.849272737E1,-2.076940238E-2,-2.138026757E-3,-1.359174121E-2
8.899683102E1,-2.947422490E-2,5.497782957E-3,1.527161949E-4
8.950093456E1,9.773836471E-3,-1.985310577E-3,3.054323839E-3
9.000503805E1,-3.023780696E-2,1.970038936E-2,-1.069013379E-3
9.050914164E1,-1.359174121E-2,3.817904973E-3,3.512472380E-3
9.101324518E1,1.221729536E-2,-3.207040019E-3,-1.985310577E-3
9.151734857E1,-9.468403645E-3,1.985310577E-3,3.054323897E-4
9.202145154E1,-1.389717404E-2,-5.955931731E-3,-7.635809947E-3
9.252555404E1,-1.985310577E-3,2.748891478E-3,1.130099874E-2
9.302965602E1,6.062832847E-2,-1.221729536E-2,-1.542433538E-2
9.353375769E1,1.771507785E-2,-1.527161920E-3,-2.092211880E-2
9.403785920E1,-1.404988952E-2,3.054323839E-3,1.588248461E-2
9.454196055E1,2.138026757E-3,-1.221729559E-3,-6.108647794E-4
9.504606170E1,-9.010255337E-3,-9.162971983E-4,-6.108647794E-4
9.555016263E1,3.665188793E-3,3.054323897E-4,-7.635809598E-4
9.605426336E1,-2.443459118E-3,-1.832594397E-3,-6.108647794E-4
9.655836399E1,1.000291109E-1,-3.695731983E-2,-2.550360374E-2
9.706246472E1,1.053741761E-2,-3.817904973E-3,7.330377586E-3
9.756656565E1,-6.261364091E-3,5.345067009E-3,1.069013402E-2
9.807066701E1,-1.893680729E-2,3.665188793E-3,1.221729559E-3
9.857476904E1,7.483093534E-3,-1.603520103E-2,-8.857538924E-3
9.907887164E1,1.527161949E-4,-1.985310577E-3,1.527161920E-3
9.958297451E1,4.123337101E-3,2.748891478E-3,1.985310577E-3
1.000870773E2,-1.527161920E-3,2.443459118E-3,-9.162971983E-4
1.005911800E2,-1.374445762E-2,2.443459118E-3,4.734201822E-3
1.010952822E2,-1.863137633E-2,-3.359756200E-3,-2.901607659E-3
1.015993842E2,-1.130099874E-2,-1.038470119E-2,-1.069013402E-2
1.021034860E2,3.375028074E-2,4.841103405E-2,1.090393662E-1
1.026075878E2,-5.314523727E-2,-7.024944760E-3,-7.742711157E-2
1.031116897E2,-2.244928107E-2,8.704823442E-3,4.612028971E-2
1.036157916E2,1.130099874E-2,-3.207040206E-2,5.879573524E-2
1.041198936E2,-7.009673119E-2,2.061668597E-2,-5.390881747E-2
1.046239954E2,-8.857538924E-3,-3.817904973E-3,-1.542433538E-2
1.051280971E2,-1.985310577E-3,-6.566796452E-3,-1.038470119E-2
1.056321986E2,-1.023198478E-2,-0.000000000E0,-8.857538924E-3
1.061363000E2,-2.061668597E-2,-1.374445739E-3,-1.145371422E-2
1.066404014E2,-2.290742937E-3,-1.985310577E-3,-1.191186346E-2
1.071445028E2,-4.276053514E-3,2.290742937E-3,-7.941242307E-3
1.076486043E2,-1.527161920E-3,-1.221729559E-3,-1.160643063E-2
1.081527058E2,-4.734201822E-3,7.635809598E-4,-1.130099874E-2
1.086568073E2,-6.108647678E-3,-7.635809598E-4,-1.069013402E-2
1.091609090E2,-9.162971983E-4,-9.315688163E-3,-1.542433538E-2
1.096650109E2,1.221729559E-3,-6.872228812E-3,-1.634063199E-2
1.101691130E2,7.024944760E-3,-1.527161949E-4,-1.099556591E-2
1.106732154E2,1.221729536E-2,-8.399390616E-3,-1.359174121E-2
1.111773179E2,5.803215317E-3,-3.207040019E-3,-1.359174121E-2
1.116814206E2,-3.817904973E-3,3.054323897E-4,-1.084284950E-2
1.121855234E2,-7.941242307E-3,-4.428769462E-3,-1.160643063E-2
1.126896263E2,-3.359756200E-3,-2.596175298E-3,-1.557705179E-2
1.131937294E2,1.374445739E-3,-1.221729559E-3,-7.024944760E-3
1.136978328E2,5.803215317E-3,-1.527161920E-3,-1.313359290E-2
1.142019363E2,2.748891478E-3,-2.443459118E-3,-1.145371422E-2
1.147060400E2,-3.512472380E-3,-3.512472380E-3,-1.038470119E-2
1.152101439E2,-1.069013402E-2,-3.512472380E-3,-1.313359290E-2
1.157142480E2,9.162971750E-3,-5.650499370E-3,-1.450803876E-2
1.162183525E2,1.069013379E-3,2.748891478E-3,-7.788525894E-3
1.167224572E2,2.596175298E-3,-3.207040019E-3,-1.252272818E-2
1.172265622E2,-3.054323897E-4,-2.138026757E-3,-1.191186346E-2
1.177306674E2,9.162971983E-4,-7.941242307E-3,-1.282816008E-2
1.182347727E2,-9.162971750E-3,-5.345067009E-3,-1.420260593E-2
1.187388782E2,6.872228812E-3,-2.290742937E-3,-1.435532235E-2
1.192429837E2,3.970621154E-3,1.832594397E-3,-9.621120058E-3
1.197470892E2,2.748891478E-3,3.054323897E-4,-1.130099874E-2
1.202511949E2,-3.970621154E-3,1.069013379E-3,-9.468403645E-3
1.207553007E2,-1.527161920E-3,-2.596175298E-3,-1.160643063E-2
1.212594064E2,-7.177661173E-3,-1.527161920E-3,-1.359174121E-2
1.217635123E2,4.428769462E-3,-5.039634649E-3,-1.114828233E-2
1.222676182E2,7.177661173E-3,1.527161920E-3,-7.330377586E-3
1.227717242E2,1.527161920E-3,1.374445739E-3,-6.719512399E-3
1.232758305E2,-1.069013379E-3,-1.374445739E-3,-6.872228812E-3
1.237799372E2,4.428769462E-3,-3.970621154E-3,-5.345067009E-3
1.242840438E2,-3.665188793E-3,-2.748891478E-3,-5.955931731E-3
1.247881503E2,-2.596175298E-3,-2.443459118E-3,-8.857538924E-3
1.252922569E2,1.023198478E-2,-3.970621154E-3,-4.123337101E-3
1.257963633E2,4.581485991E-4,3.970621154E-3,-2.596175298E-3
1.263004696E2,2.290742937E-3,-1.679878100E-3,-4.734201822E-3
1.268045758E2,-0.000000000E0,-3.054323839E-3,-3.512472380E-3
1.273086820E2,-7.177661173E-3,-0.000000000E0,-9.162971983E-4
1.278127882E2,7.635809598E-4,-7.788525894E-3,-8.552107029E-3
1.283168944E2,2.290742937E-3,-5.345067009E-3,-6.719512399E-3
1.288210004E2,2.443459118E-3,-4.581485991E-4,-2.901607659E-3
1.293251063E2,-3.207040019E-3,1.527161920E-3,-3.512472380E-3
1.298292118E2,-1.527161949E-4,-4.581485991E-4,-3.970621154E-3
1.303333170E2,1.679878100E-3,1.527161920E-3,-2.290742937E-3
1.308374221E2,-6.719512399E-3,-4.276053514E-3,-3.512472380E-3
1.313415269E2,-9.315688163E-3,-6.566796452E-3,-8.246674202E-3
1.318456313E2,1.221729559E-3,-5.497782957E-3,-9.010255337E-3
1.323497354E2,1.985310577E-3,3.054323897E-4,-7.635809598E-4
1.328538392E2,-3.359756200E-3,0.000000000E0,-1.374445739E-3
1.333579426E2,-4.581485875E-3,4.581485991E-4,-4.123337101E-3
1.338620457E2,-2.138026757E-3,-3.054323839E-3,-4.276053514E-3
1.343661486E2,-7.788525894E-3,-4.581485991E-4,-4.428769462E-3
1.348702514E2,-4.581485875E-3,-5.803215317E-3,-6.566796452E-3
1.353743541E2,2.443459118E-3,-3.207040019E-3,-6.108647678E-3
1.358784569E2,5.192350596E-3,-1.527161920E-3,-4.886918236E-3
1.363825596E2,-3.970621154E-3,3.207040019E-3,-2.443459118E-3
1.368866624E2,-2.290742937E-3,-1.985310577E-3,-4.276053514E-3
1.373907652E2,3.512472380E-3,-1.038470119E-2,-6.108647678E-3
1.378948685E2,-4.428769462E-3,-1.572976820E-2,2.901607659E-3
1.383989721E2,-1.038470119E-2,-9.773836471E-3,-4.123337101E-3
1.389030760E2,5.955931731E-3,1.221729559E-3,-7.941242307E-3
1.394071801E2,-2.901607659E-3,-1.527161949E-4,-3.207040019E-3
1.399112842E2,-1.038470119E-2,3.970621154E-3,-3.817904973E-3
1.404153885E2,-1.572976820E-2,5.039634649E-3,-2.290742937E-3
1.409194932E2,-1.542433538E-2,3.054323897E-4,-2.443459118E-3
1.414235984E2,-3.359756200E-3,-4.276053514E-3,-7.177661173E-3
1.419277039E2,5.497782957E-3,-2.138026757E-3,-6.566796452E-3
1.424318095E2,-3.970621154E-3,-4.581485991E-4,-2.290742937E-3
1.429359150E2,-1.374445739E-3,-1.527161949E-4,-3.665188793E-3
1.434400202E2,-8.246674202E-3,4.581485991E-4,-3.207040019E-3
1.439441252E2,-6.719512399E-3,-5.955931731E-3,-5.192350596E-3
1.444482301E2,-1.374445739E-3,-3.054323897E-4,-5.497782957E-3
1.449523346E2,3.665188793E-3,7.635809598E-4,-4.734201822E-3
1.454564388E2,-2.901607659E-3,2.596175298E-3,-4.581485875E-3
1.459605428E2,-1.343902480E-2,7.941242307E-3,-5.497782957E-3
1.464646464E2,5.803215317E-3,-2.596175298E-3,-7.483093534E-3
1.469687499E2,-5.039634649E-3,-1.527161949E-4,-5.192350596E-3
1.474728531E2,-1.114828233E-2,-2.596175298E-3,-7.941242307E-3
1.479769562E2,-6.108647794E-4,-1.527161920E-3,-5.803215317E-3
1.484810590E2,1.221729559E-3,-1.221729559E-3,-5.955931731E-3
1.489851616E2,-4.581485875E-3,3.054323839E-3,-4.276053514E-3
1.494892640E2,-3.054323839E-3,1.221729559E-3,-4.581485875E-3
1.499933660E2,1.374445739E-3,-4.581485991E-4,-5.192350596E-3
1.504974679E2,-1.038470119E-2,-6.414080039E-3,-2.290742937E-3
1.510015694E2,-7.635809598E-4,-2.596175298E-3,-7.788525894E-3
1.515056709E2,7.483093534E-3,9.162971983E-4,-4.276053514E-3
1.520097722E2,-5.497782957E-3,3.665188793E-3,-3.817904973E-3
1.525138734E2,-9.162971983E-4,-9.162971750E-3,-3.359756200E-3
1.530179751E2,9.162971983E-4,-4.581485991E-4,-4.123337101E-3
1.535220777E2,-4.734201822E-3,-3.665188793E-3,-5.345067009E-3
1.540261811E2,-3.512472380E-3,-2.290742937E-3,-9.773836471E-3
1.545302857E2,7.788525894E-3,-9.162971983E-4,-8.552107029E-3
1.550343917E2,5.345067009E-3,9.162971983E-4,-6.566796452E-3
1.555384985E2,-7.635809598E-4,4.581485875E-3,-9.315688163E-3
1.560426058E2,2.748891478E-3,1.221729559E-3,-5.955931731E-3
1.565467134E2,3.054323897E-4,-1.985310577E-3,-4.123337101E-3
1.570508210E2,-8.857538924E-3,-2.443459118E-3,-6.414080039E-3
1.575549287E2,1.527161949E-4,-7.024944760E-3,-4.276053514E-3
1.580590364E2,7.483093534E-3,1.069013379E-3,-5.650499370E-3
1.585631441E2,2.138026757E-3,4.123337101E-3,-2.290742937E-3
1.590672518E2,3.817904973E-3,1.985310577E-3,-4.734201822E-3
1.595713594E2,3.054323897E-4,1.527161949E-4,-9.162971983E-4
1.600754669E2,-4.428769462E-3,-2.290742937E-3,-1.527161920E-3
1.605795742E2,-4.581485875E-3,-3.817904973E-3,-1.527161920E-3
1.610836814E2,9.621120058E-3,1.374445739E-3,-3.054323897E-4
1.615877886E2,5.497782957E-3,1.985310577E-3,7.635809598E-4
1.620918956E2,-9.162971983E-4,4.123337101E-3,1.221729559E-3
1.625960027E2,2.748891478E-3,1.527161949E-4,1.832594397E-3
1.631001096E2,-7.635809947E-3,-6.108647794E-4,9.162971983E-4
1.636042165E2,9.315688163E-3,1.695149764E-2,-1.282816008E-2
1.641083232E2,4.886918236E-3,-2.290742937E-3,-1.374445739E-3
1.646124297E2,-2.138026757E-3,-6.108647794E-4,2.443459118E-3
1.651165359E2,-9.162971983E-4,1.832594397E-3,1.679878100E-3
1.656206421E2,-7.941242307E-3,-1.145371422E-2,6.261364091E-3
1.661247481E2,-6.108647678E-3,-3.665188793E-3,1.221729559E-3
1.666288541E2,-1.985310577E-3,-5.345067009E-3,-3.054323839E-3
1.671329600E2,4.734201822E-3,3.665188793E-3,-1.221729559E-3
1.676370657E2,5.497782957E-3,3.665188793E-3,2.138026757E-3
1.681411714E2,-1.527161949E-4,1.985310577E-3,9.162971983E-4
1.686452768E2,8.399390616E-3,-1.069013379E-3,-6.108647794E-4
1.691493820E2,2.443459118E-3,-7.635809598E-4,4.581485991E-4
1.696534871E2,4.886918236E-3,-1.114828233E-2,-9.773836471E-3
1.701575921E2,1.802051067E-2,-1.191186346E-2,0.000000000E0
1.706616969E2,7.635809598E-4,-2.718348242E-2,1.145371422E-2
1.711658016E2,7.788525894E-3,-1.527161949E-4,3.665188793E-3
1.716699059E2,9.926552884E-3,3.817904973E-3,6.108647678E-3
1.721740100E2,1.527161920E-3,-2.901607659E-3,1.084284950E-2
1.726781139E2,8.093958721E-3,-1.527161920E-3,5.650499370E-3
1.731822175E2,1.328630932E-2,7.941242307E-3,1.359174121E-2
1.736863210E2,1.313359290E-2,4.581485991E-4,1.313359290E-2
1.741904245E2,1.206457894E-2,2.901607659E-3,1.252272818E-2
1.746945277E2,8.399390616E-3,2.138026757E-3,1.466075517E-2
1.751986307E2,3.817904973E-3,-1.832594397E-3,1.435532235E-2
1.757027336E2,8.399390616E-3,7.635809598E-4,1.695149764E-2
1.762068364E2,2.199113183E-2,1.359174121E-2,1.282816008E-2
1.767109390E2,1.053741761E-2,7.788525894E-3,2.122755162E-2
1.772150414E2,4.734201822E-3,1.527161949E-4,2.122755162E-2
1.777191439E2,7.330377586E-3,-2.901607659E-3,2.947422490E-2
1.782232462E2,1.252272818E-2,-3.207040019E-3,1.985310577E-2
1.787273483E2,1.725693047E-2,8.857538924E-3,2.733619884E-2
1.792314503E2,9.010255337E-3,7.788525894E-3,2.641990222E-2
1.797355522E2,1.985310577E-3,7.788525894E-3,2.840521187E-2
1.802396540E2,7.330377586E-3,4.581485875E-3,2.580903657E-2
1.807437556E2,-1.527161949E-4,3.817904973E-3,2.382372692E-2
1.812478571E2,1.007926930E-2,6.719512399E-3,1.878409274E-2
1.817519587E2,9.315688163E-3,1.404988952E-2,2.962694131E-2
1.822560601E2,4.428769462E-3,1.374445762E-2,2.748891525E-2
1.827601614E2,-4.581485991E-4,8.704823442E-3,2.977965772E-2
1.832642627E2,3.359756200E-3,1.038470119E-2,2.901607752E-2
1.837683639E2,4.123337101E-3,7.635809598E-4,3.497200832E-2
1.842724652E2,1.069013379E-3,5.650499370E-3,3.084867075E-2
1.847765668E2,-4.123337101E-3,5.039634649E-3,2.748891525E-2
1.852806686E2,2.901607659E-3,3.512472380E-3,2.641990222E-2
1.857847707E2,1.175914705E-2,1.466075517E-2,2.840521187E-2
1.862888730E2,1.679878100E-3,1.145371422E-2,2.932151034E-2
1.867929753E2,4.123337101E-3,7.177661173E-3,2.794706449E-2
1.872970778E2,1.985310577E-3,7.177661173E-3,2.809977904E-2
1.878011803E2,4.276053514E-3,5.955931731E-3,2.565632015E-2
1.883052829E2,-1.221729559E-3,7.330377586E-3,2.703076601E-2
1.888093855E2,-7.635809598E-4,7.483093534E-3,2.809977904E-2
1.893134883E2,-3.512472380E-3,2.596175298E-3,2.657261863E-2
1.898175910E2,4.581485991E-4,3.054323897E-4,2.474002354E-2
1.903216938E2,1.023198478E-2,1.130099874E-2,2.886336111E-2
1.908257965E2,2.748891478E-3,1.359174121E-2,3.222311661E-2
1.913298992E2,-2.290742937E-3,9.621120058E-3,2.855792828E-2
1.918340018E2,4.581485875E-3,4.428769462E-3,2.611446939E-2
1.923381042E2,3.359756200E-3,7.635809947E-3,2.871064469E-2
1.928422066E2,-2.290742937E-3,3.054323839E-3,2.351829410E-2
1.933463090E2,1.832594397E-3,5.345067009E-3,2.397644334E-2
1.938504112E2,4.886918236E-3,1.404988952E-2,2.840521187E-2
1.943545132E2,5.192350596E-3,1.557705179E-2,2.672533318E-2
1.948586151E2,1.221729559E-3,1.023198478E-2,2.412915789E-2
1.953627170E2,1.527161920E-3,1.175914705E-2,2.306014486E-2
1.958668188E2,-2.138026757E-3,2.596175298E-3,2.458730713E-2
1.963709206E2,4.734201822E-3,9.621120058E-3,2.687804960E-2
1.968750225E2,8.552107029E-3,1.206457894E-2,2.779434808E-2
1.973791244E2,5.574141070E-2,-1.634063199E-2,1.206457894E-2
1.978832263E2,1.789833754E-1,-9.651663154E-2,-3.298669681E-2
1.983873281E2,1.261435747E-1,3.359756200E-3,2.458730713E-2
1.988914299E2,-8.093958721E-3,2.031125315E-2,6.246092543E-2
1.993955316E2,6.566796452E-3,2.779434808E-2,2.641990222E-2
1.998996336E2,-9.468403645E-3,2.580903657E-2,3.481929377E-2
2.004037359E2,-1.374445739E-3,2.504545636E-2,1.985310577E-2
2.009078390E2,2.290742937E-3,1.084284950E-2,2.504545636E-2
2.014119433E2,1.679878100E-3,1.786779426E-2,1.588248461E-2
2.019160490E2,1.267544460E-2,1.160643063E-2,2.428187430E-2
2.024201562E2,-2.596175298E-3,1.267544460E-2,2.871064469E-2
2.029242655E2,4.428769462E-3,1.466075517E-2,2.855792828E-2
2.034283775E2,2.138026757E-3,1.130099874E-2,2.718348242E-2
2.039324922E2,-7.941242307E-3,9.621120058E-3,2.458730713E-2
2.044366092E2,5.039634649E-3,4.581485875E-3,2.153298259E-2
2.049407282E2,9.010255337E-3,9.315688163E-3,2.901607752E-2
2.054448490E2,-2.748891478E-3,1.313359290E-2,2.565632015E-2
2.059489711E2,-2.183841541E-2,2.428187430E-2,2.519817278E-2
2.064530944E2,-5.879573524E-2,-9.162971750E-3,1.618791744E-2
2.069572184E2,-5.467239767E-2,4.398226365E-2,6.200277433E-2
2.074613430E2,3.466657549E-2,1.221729559E-3,3.451386094E-2
2.079654679E2,-2.519817278E-2,3.741546720E-2,6.872228533E-2
2.084695928E2,8.246674202E-3,-2.061668597E-2,4.428769462E-3
2.089737176E2,-8.399390616E-3,1.710421406E-2,2.947422490E-2
2.094778421E2,-9.926552884E-3,8.399390616E-3,2.840521187E-2
2.099819662E2,-2.458730713E-2,3.207040019E-3,2.367101051E-2
2.104860900E2,-1.557705179E-2,-4.886918236E-3,3.039052337E-2
2.109902136E2,-1.847865991E-2,-1.053741761E-2,3.222311661E-2
2.114943371E2,3.207040019E-3,1.160643063E-2,2.565632015E-2
2.119984603E2,1.908952370E-2,2.015853859E-2,2.306014486E-2
2.125025834E2,1.221729536E-2,1.847865991E-2,2.825249545E-2
2.130067061E2,1.954767294E-2,8.704823442E-3,-2.168569900E-2
2.135108286E2,1.588248461E-2,1.114828233E-2,3.130681813E-2
2.140149507E2,4.886918236E-3,1.511890348E-2,2.977965772E-2
2.145190726E2,-4.581485875E-3,1.420260593E-2,2.672533318E-2
2.150231941E2,1.527161949E-4,1.420260593E-2,2.519817278E-2
2.155273153E2,-3.970621154E-3,8.857538924E-3,2.672533318E-2
2.160314362E2,-4.886918236E-3,1.343902480E-2,2.672533318E-2
2.165355565E2,1.832594397E-3,7.635809947E-3,2.504545636E-2
2.170396764E2,1.069013379E-3,9.162971750E-3,2.748891525E-2
2.175437960E2,5.192350596E-3,5.803215317E-3,2.565632015E-2
2.180479152E2,-6.108647794E-4,8.246674202E-3,2.611446939E-2
2.185520340E2,4.428769462E-3,5.497782957E-3,2.443459071E-2
2.190561525E2,7.635809598E-4,7.941242307E-3,2.412915789E-2
2.195602707E2,0.000000000E0,1.237001177E-2,1.679878123E-2
2.200643884E2,6.719512399E-3,1.237001177E-2,2.321286127E-2
2.205685057E2,2.138026757E-3,1.007926930E-2,2.580903657E-2
2.210726227E2,2.596175298E-3,7.941242307E-3,2.657261863E-2
2.215767393E2,-1.832594397E-3,3.970621154E-3,3.084867075E-2
2.220808555E2,1.221729559E-3,5.803215317E-3,2.764163166E-2
2.225849715E2,2.290742937E-3,7.177661173E-3,2.565632015E-2
2.230890872E2,4.581485875E-3,6.261364091E-3,2.718348242E-2
2.235932026E2,3.054323897E-4,6.872228812E-3,2.916879393E-2
2.240973176E2,1.404988952E-2,5.345067009E-3,1.939495653E-2
2.246014324E2,1.191186346E-2,9.468403645E-3,1.466075517E-2
2.251055469E2,-7.024944760E-3,1.511890348E-2,3.451386094E-2
2.256096610E2,-1.069013379E-3,1.023198478E-2,2.733619884E-2
2.261137748E2,7.483093534E-3,7.788525894E-3,3.039052337E-2
2.266178883E2,4.581485991E-4,7.024944760E-3,3.115410358E-2
2.271220017E2,-1.374445739E-3,8.704823442E-3,3.405570984E-2
2.276261149E2,4.734201822E-3,3.207040019E-3,3.145953640E-2
2.281302280E2,-2.596175298E-3,9.621120058E-3,3.039052337E-2
2.286343411E2,1.221729559E-3,7.177661173E-3,2.932151034E-2
2.291384543E2,-1.832594397E-3,-4.581485991E-4,2.809977904E-2
2.296425675E2,5.497782957E-3,7.330377586E-3,2.809977904E-2
2.301466808E2,4.276053514E-3,6.719512399E-3,3.711003438E-2
2.306507941E2,1.679878100E-3,9.010255337E-3,2.947422490E-2
2.311549073E2,9.162971983E-4,7.483093534E-3,2.764163166E-2
2.316590203E2,-3.054323897E-4,6.108647678E-3,3.023780696E-2
2.321631332E2,-6.108647794E-4,-3.054323897E-4,2.779434808E-2
2.326672459E2,-6.566796452E-3,1.527161920E-3,2.916879393E-2
2.331713584E2,9.468403645E-3,6.566796452E-3,2.947422490E-2
2.336754708E2,5.650499370E-3,1.099556591E-2,3.283398226E-2
2.341795831E2,7.330377586E-3,-1.374445739E-3,2.550360374E-2
2.346836953E2,9.162971983E-4,7.330377586E-3,3.100138716E-2
2.351878075E2,-3.817904973E-3,3.817904973E-3,3.359756246E-2
2.356919197E2,-3.817904973E-3,-4.581485991E-4,2.367101051E-2
2.361960318E2,4.734201822E-3,6.261364091E-3,3.390299529E-2
2.367001437E2,-9.162971983E-4,1.725693047E-2,3.161225095E-2
2.372042556E2,1.985310577E-3,-4.276053514E-3,2.565632015E-2
2.377083674E2,-3.970621154E-3,9.621120058E-3,2.733619884E-2
2.382124791E2,-4.886918236E-3,3.359756200E-3,2.825249545E-2
2.387165908E2,1.832594350E-2,-1.221729559E-3,2.351829410E-2
2.392207023E2,-6.566796452E-3,2.000582218E-2,3.237583488E-2
2.397248137E2,8.246674202E-3,7.635809947E-3,2.901607752E-2
2.402289249E2,3.817904973E-3,6.414080039E-3,2.764163166E-2
2.407330359E2,9.162971983E-4,6.261364091E-3,2.733619884E-2
2.412371469E2,-1.527161949E-4,8.399390616E-3,2.321286127E-2
2.417412578E2,-1.374445739E-3,1.038470119E-2,2.794706449E-2
2.422453689E2,1.374445739E-3,1.130099874E-2,2.932151034E-2
2.427494799E2,-1.527161949E-4,7.483093534E-3,2.794706449E-2
2.432535910E2,-5.039634649E-3,1.023198478E-2,2.733619884E-2
2.437577016E2,-8.399390616E-3,1.023198478E-2,2.855792828E-2
2.442618126E2,-7.177661173E-3,2.748891478E-3,3.100138716E-2
2.447659236E2,-1.557705179E-2,5.345067009E-3,2.336557768E-2
2.452700346E2,-7.483093534E-3,4.428769462E-3,2.061668597E-2
2.457741456E2,-1.817322709E-2,-5.803215317E-3,8.552107029E-3
2.462782567E2,-3.008509055E-2,7.177661173E-3,8.552107029E-3
2.467823676E2,9.162971983E-4,3.665188793E-3,1.420260593E-2
2.472864784E2,8.475748450E-2,-8.643736690E-2,-1.695149764E-2
2.477905894E2,5.192350596E-3,-2.748891478E-3,2.932151034E-2
2.482947003E2,-1.237001177E-2,1.191186346E-2,1.786779426E-2
2.487988117E2,-1.725693047E-2,1.450803876E-2,1.908952370E-2
2.493029233E2,1.679878123E-2,7.024945319E-2,-9.162971983E-4
2.498070354E2,-2.489273995E-2,4.428769462E-3,-1.527161920E-3
2.503111479E2,-3.787361458E-2,-2.611446939E-2,-5.955931731E-3
2.508152607E2,-1.970038936E-2,1.466075517E-2,-1.038470119E-2
2.513193741E2,-1.007926930E-2,3.054323839E-3,4.428769462E-3
2.518234880E2,-1.359174121E-2,9.926552884E-3,4.581485875E-3
2.523276027E2,-8.552107029E-3,4.734201822E-3,4.581485875E-3
2.528317180E2,-9.010255337E-3,2.596175298E-3,2.290742937E-3
2.533358336E2,-1.679878123E-2,3.665188793E-3,2.138026757E-3
2.538399492E2,-2.596175298E-3,6.261364091E-3,7.635809598E-4
2.543440647E2,2.901607659E-3,2.290742937E-3,-1.221729559E-3
2.548481801E2,2.290742937E-3,0.000000000E0,-2.138026757E-3
2.553522953E2,-2.901607659E-3,1.832594397E-3,1.527161949E-4
2.558564102E2,-1.985310577E-3,1.527161920E-3,-6.108647794E-4
2.563605250E2,-1.832594397E-3,-3.054323897E-4,1.069013379E-3
2.568646395E2,-9.621120058E-3,3.817904973E-3,1.985310577E-3
2.573687537E2,-3.207040019E-3,-2.748891478E-3,-1.069013379E-3
2.578728676E2,-4.581485991E-4,5.497782957E-3,1.527161920E-3
2.583769812E2,-3.207040019E-3,1.527161920E-3,4.581485991E-4
2.588810945E2,-6.108647794E-4,-3.054323897E-4,3.054323897E-4
2.593852076E2,-4.276053514E-3,3.207040019E-3,4.581485991E-4
2.598893205E2,-8.399390616E-3,6.872228812E-3,1.069013379E-3
2.603934333E2,-7.330377586E-3,4.276053514E-3,1.069013379E-3
2.608975460E2,-2.290742844E-2,1.817322709E-2,7.024944760E-3
2.614016585E2,1.221729559E-3,-8.246674202E-3,-4.123337101E-3
2.619057708E2,-1.069013379E-3,-4.276053514E-3,-1.985310577E-3
2.624098831E2,2.290742937E-3,3.970621154E-3,1.985310577E-3
2.629139954E2,5.192350596E-3,-3.359756200E-3,-3.054323839E-3
2.634181075E2,-3.665188793E-3,3.207040019E-3,3.054323839E-3
2.639222194E2,3.054323897E-4,-1.527161920E-3,-1.374445739E-3
2.644263312E2,-1.985310577E-3,3.054323897E-4,1.374445739E-3
2.649304428E2,1.374445739E-3,-4.581485991E-4,4.581485991E-4
2.654345542E2,-3.665188793E-3,-7.635809598E-4,1.069013379E-3
2.659386655E2,-3.817904973E-3,-4.276053514E-3,-9.162971983E-4
2.664427767E2,-4.581485991E-4,6.414080039E-3,2.443459118E-3
2.669468878E2,0.000000000E0,3.512472380E-3,1.374445739E-3
2.674509988E2,-1.679878100E-3,2.596175298E-3,9.162971983E-4
2.679551097E2,3.054323839E-3,-1.221729559E-3,6.108647794E-4
2.684592205E2,1.038470119E-2,-6.872228812E-3,-1.069013379E-3
2.689633312E2,1.527161949E-4,-6.566796452E-3,-1.069013379E-3
2.694674418E2,-3.665188793E-3,-3.512472380E-3,-3.054323897E-4
2.699715523E2,1.679878100E-3,5.803215317E-3,3.207040019E-3
2.704756627E2,-5.497782957E-3,5.345067009E-3,1.374445739E-3
2.709797729E2,-1.221729559E-3,9.162971983E-4,1.527161949E-4
2.714838831E2,-3.207040019E-3,1.832594397E-3,-3.054323897E-4
2.719879932E2,-4.428769462E-3,6.108647794E-4,-0.000000000E0
2.724921032E2,-3.817904973E-3,-4.734201822E-3,-2.596175298E-3
2.729962131E2,-7.635809598E-4,3.207040019E-3,6.108647794E-4
2.735003229E2,1.069013379E-3,4.428769462E-3,1.985310577E-3
2.740044325E2,-1.527161949E-4,2.443459118E-3,-7.635809598E-4
2.745085421E2,-1.679878100E-3,9.162971983E-4,4.581485991E-4
2.750126517E2,2.596175298E-3,-1.985310577E-3,-9.162971983E-4
2.755167612E2,0.000000000E0,-1.832594397E-3,-1.679878100E-3
2.760208706E2,-7.330377586E-3,-4.581485991E-4,-3.054323839E-3
2.765249799E2,3.207040019E-3,-1.527161949E-4,-7.635809598E-4
2.770290892E2,5.192350596E-3,1.527161920E-3,1.069013379E-3
2.775331984E2,-2.748891478E-3,3.665188793E-3,1.527161920E-3
2.780373077E2,-1.527161949E-4,-1.527161949E-4,-0.000000000E0
2.785414170E2,3.817904973E-3,2.443459118E-3,-3.054323839E-3
2.790455263E2,-4.276053514E-3,-3.817904973E-3,-2.138026757E-3
2.795496355E2,1.527161920E-3,-6.719512399E-3,-2.443459118E-3
2.800537446E2,2.596175298E-3,4.581485875E-3,2.596175298E-3
2.805578537E2,-1.069013379E-3,4.886918236E-3,2.138026757E-3
2.810619626E2,-3.359756200E-3,3.054323839E-3,1.069013379E-3
2.815660716E2,4.581485991E-4,3.054323897E-4,1.527161949E-4
2.820701806E2,-3.817904973E-3,-7.635809598E-4,-1.221729559E-3
2.825742896E2,2.748891478E-3,-8.857538924E-3,-3.207040019E-3
2.830783988E2,4.734201822E-3,2.443459118E-3,1.221729559E-3
2.835825080E2,3.970621154E-3,9.162971983E-4,7.635809598E-4
2.840866172E2,2.748891478E-3,-1.527161949E-4,6.108647794E-4
2.845907265E2,-9.162971983E-4,6.108647794E-4,-4.581485991E-4
2.850948357E2,-1.237001177E-2,6.719512399E-3,2.290742937E-3
2.855989451E2,-1.985310577E-3,-4.276053514E-3,-1.374445739E-3
2.861030544E2,3.665188793E-3,-6.108647794E-4,-4.581485991E-4
2.866071639E2,1.527161949E-4,4.276053514E-3,1.374445739E-3
2.871112733E2,-1.527161949E-4,1.985310577E-3,6.108647794E-4
2.876153826E2,-4.581485991E-4,-6.108647794E-4,-3.054323897E-4
2.881194918E2,1.679878100E-3,-3.054323839E-3,-1.069013379E-3
2.886236009E2,-4.734201822E-3,-2.443459118E-3,-1.985310577E-3
2.891277100E2,-0.000000000E0,-6.719512399E-3,-1.985310577E-3
2.896318190E2,9.162971983E-4,5.345067009E-3,1.374445739E-3
2.901359280E2,3.054323897E-4,2.748891478E-3,3.054323897E-4
2.906400369E2,-1.221729559E-3,2.138026757E-3,1.069013379E-3
2.911441458E2,1.221729559E-3,-9.162971983E-4,-7.635809598E-4
2.916482547E2,-4.581485991E-4,9.162971983E-4,9.162971983E-4
2.921523636E2,-2.748891478E-3,-0.000000000E0,-6.108647794E-4
2.926564724E2,-1.527161920E-3,-4.428769462E-3,-1.374445739E-3
2.931605813E2,-3.054323897E-4,-1.832594397E-3,-1.221729559E-3
2.936646901E2,2.596175298E-3,2.596175298E-3,1.221729559E-3
2.941687989E2,-3.054323897E-4,3.359756200E-3,1.527161920E-3
2.946729077E2,-0.000000000E0,1.374445739E-3,6.108647794E-4
2.951770165E2,-2.748891478E-3,2.290742937E-3,1.527161949E-4
2.956811252E2,2.596175298E-3,-1.985310577E-3,-3.054323897E-4
2.961852339E2,-4.428769462E-3,1.527161920E-3,-1.527161949E-4
2.966893426E2,-1.527161920E-3,-3.970621154E-3,-2.138026757E-3
2.971934514E2,1.832594397E-3,-3.665188793E-3,-6.108647794E-4
2.976975601E2,1.527161949E-4,3.970621154E-3,1.069013379E-3
2.982016689E2,-1.221729559E-3,4.276053514E-3,1.221729559E-3
2.987057776E2,1.527161949E-4,9.162971983E-4,7.635809598E-4
2.992098862E2,-3.665188793E-3,2.138026757E-3,-0.000000000E0
2.997139949E2,-7.635809598E-4,-3.359756200E-3,-1.527161920E-3
3.002181034E2,-4.276053514E-3,-2.596175298E-3,-1.985310577E-3
3.007222120E2,3.970621154E-3,4.581485991E-4,9.162971983E-4
3.012263206E2,-1.679878100E-3,6.414080039E-3,1.985310577E-3
3.017304291E2,-4.428769462E-3,3.207040019E-3,9.162971983E-4
3.022345377E2,-2.138026757E-3,3.207040019E-3,1.374445739E-3
3.027386462E2,-6.108647678E-3,5.039634649E-3,9.162971983E-4
3.032427547E2,-4.886918236E-3,-9.162971983E-4,-1.527161920E-3
3.037468635E2,-5.345067009E-3,-3.359756200E-3,-2.901607659E-3
3.042509720E2,9.010255337E-3,-5.192350596E-3,-8.246674202E-3
3.047550805E2,2.901607752E-2,-5.345067009E-3,-1.328630932E-2
3.052591889E2,1.069013402E-2,3.145953640E-2,-2.443459118E-3
3.057632973E2,-1.007926930E-2,2.443459118E-3,-5.650499370E-3
3.062674057E2,-5.955931731E-3,-3.512472380E-3,1.527161949E-4
3.067715141E2,-5.345067009E-3,-7.941242307E-3,-6.261364091E-3
3.072756224E2,-6.108647794E-4,-1.374445739E-3,1.832594397E-3
3.077797307E2,-3.512472380E-3,2.596175298E-3,2.901607659E-3
3.082838389E2,1.527161920E-3,1.221729559E-3,6.108647794E-4
3.087879471E2,3.344484791E-2,-6.872228812E-3,-1.130099874E-2
3.092920553E2,-1.954767294E-2,-9.162971983E-4,4.123337101E-3
3.097961634E2,-6.566796452E-3,-7.483093534E-3,-1.069013379E-3
3.103002715E2,9.773836471E-3,6.108647794E-4,9.162971983E-4
3.108043794E2,1.832594397E-3,4.276053514E-3,1.069013379E-3
3.113084873E2,-2.138026757E-3,-4.123337101E-3,7.024944760E-3
3.118125952E2,-3.207040019E-3,1.679878100E-3,7.635809598E-4
3.123167031E2,-3.207040019E-3,-2.138026757E-3,-1.985310577E-3
3.128208110E2,-2.138026757E-3,-3.512472380E-3,4.581485991E-4
3.133249189E2,1.221729559E-3,3.512472380E-3,1.069013379E-3
3.138290268E2,5.192350596E-3,-2.138026757E-3,1.832594397E-3
3.143331347E2,-1.221729559E-3,4.581485991E-4,1.374445739E-3
3.148372425E2,-1.374445739E-3,1.527161949E-4,-4.581485991E-4
3.153413503E2,0.000000000E0,9.162971983E-4,-4.581485991E-4
3.158454581E2,-4.734201822E-3,7.635809598E-4,4.581485991E-4
3.163495658E2,-1.053741761E-2,-7.941242307E-3,-9.162971983E-4
3.168536736E2,7.330377586E-3,-7.483093534E-3,-3.054323897E-4
3.173577814E2,1.985310577E-3,-8.246674202E-3,1.175914705E-2
3.178618892E2,-4.428769462E-3,3.054323897E-4,-3.054323897E-4
3.183659968E2,3.512472380E-3,-6.719512399E-3,3.665188793E-3
3.188701044E2,-5.803215317E-3,-1.206457894E-2,-3.817904973E-3
3.193742120E2,-3.359756200E-3,-1.771507785E-2,5.345067009E-3
3.198783197E2,7.177661173E-3,-2.901607659E-3,-1.985310577E-3
3.203824280E2,3.054323897E-4,9.773836471E-3,1.832594397E-3
3.208865371E2,4.581485875E-3,-1.527161920E-3,-3.665188793E-3
3.213906467E2,-9.162971983E-4,-9.468403645E-3,6.261364091E-3
3.218947566E2,-2.596175298E-2,-1.435532235E-2,-1.832594397E-3
3.223988669E2,1.221729536E-2,3.817904973E-3,9.162971983E-4
3.229029776E2,4.581485875E-3,6.108647794E-4,3.665188793E-3
3.234070889E2,6.872228812E-3,9.162971983E-4,-1.221729559E-3
3.239112008E2,1.832594397E-3,-1.527161920E-3,1.985310577E-3
3.244153131E2,-1.496618707E-2,-2.901607659E-3,-2.290742937E-3
3.249194256E2,8.552107029E-3,2.138026757E-3,-4.581485991E-4
3.254235384E2,-6.108647794E-4,1.374445739E-3,7.635809598E-4
3.259276513E2,5.955931731E-3,-1.527161949E-4,-1.832594397E-3
3.264317642E2,-7.024944760E-3,2.901607659E-3,1.374445739E-3
3.269358773E2,-1.985310577E-3,-2.748891478E-3,-1.069013379E-3
3.274399905E2,-1.099556591E-2,-3.207040019E-3,-1.374445739E-3
3.279441035E2,-7.788525894E-3,-1.069013379E-3,-8.399390616E-3
3.284482166E2,-1.237001177E-2,-7.483093534E-3,-1.435532235E-2
3.289523296E2,-2.367101051E-2,-8.246674202E-3,-2.000582218E-2
3.294564425E2,-2.779434808E-2,-4.886918236E-3,-2.855792828E-2
3.299605554E2,-3.359756246E-2,-1.832594397E-3,-3.619373962E-2
3.304646682E2,-2.382372692E-2,-6.108647678E-3,-4.886918142E-2
3.309687810E2,-1.527161989E-2,6.108647678E-3,-4.993819445E-2
3.314728937E2,-5.192350596E-3,-1.679878100E-3,-5.513054505E-2
3.319770064E2,2.076940238E-2,-6.108647678E-3,-5.497783050E-2
3.324811195E2,7.788525894E-3,1.527161949E-4,-4.260781780E-2
3.329852328E2,1.130099874E-2,-3.665188793E-3,-3.649916872E-2
3.334893463E2,1.496618707E-2,-7.788525894E-3,-2.916879393E-2
3.339934598E2,1.832594350E-2,-1.069013379E-3,-2.046396956E-2
3.344975732E2,2.367101051E-2,4.581485991E-4,-9.468403645E-3
3.350016943E2,1.313359290E-2,-6.414080039E-3,-5.497782957E-3
3.355057998E2,1.160643063E-2,-6.108647794E-4,-3.054323897E-4
3.360099129E2,-9.468403645E-3,3.512472380E-3,2.138026757E-3
3.365140259E2,-1.832594397E-3,-4.581485875E-3,-6.108647794E-4
3.370181388E2,-8.399390616E-3,-7.024944760E-3,1.221729559E-3
3.375222515E2,8.704823442E-3,1.099556591E-2,2.901607659E-3
3.380263639E2,1.237001177E-2,1.389717404E-2,7.024944760E-3
3.385304761E2,1.038470119E-2,1.282816008E-2,-1.389717404E-2
3.390345881E2,-1.634063199E-2,1.099556591E-2,-5.345067009E-3
3.395386999E2,1.069013402E-2,9.773836471E-3,-1.374445739E-3
3.400428116E2,3.665188793E-3,9.315688163E-3,4.581485991E-4
3.405469233E2,1.221729559E-3,-4.276053514E-3,-9.010255337E-3
3.410510348E2,-5.497782957E-3,5.039634649E-3,-4.123337101E-3
3.415551462E2,1.191186346E-2,3.970621154E-3,7.483093534E-3
3.420592575E2,1.527161920E-3,-1.069013379E-3,-1.069013379E-3
3.425633687E2,-1.069013379E-3,6.566796452E-3,5.955931731E-3
3.430674798E2,-2.428187430E-2,-3.054323897E-4,-4.123337101E-3
3.435715909E2,-2.596175298E-3,-6.872228812E-3,-3.970621154E-3
3.440757021E2,-5.803215317E-3,7.483093534E-3,2.748891478E-3
3.445798132E2,-6.566796452E-3,3.512472380E-3,2.596175298E-3
3.450839243E2,-3.054323897E-4,1.221729559E-3,-2.290742937E-3
3.455880354E2,-5.497782957E-3,2.290742937E-3,2.443459118E-3
3.460921464E2,-7.635809947E-3,3.054323897E-4,-2.443459118E-3
3.465962575E2,-0.000000000E0,-5.192350596E-3,-4.123337101E-3
3.471003685E2,-6.719512399E-3,3.512472380E-3,1.069013379E-3
3.476044794E2,3.817904973E-3,1.832594397E-3,2.443459118E-3
3.481085904E2,-2.443459118E-3,2.290742937E-3,1.069013379E-3
3.486127011E2,-6.108647678E-3,-9.162971983E-4,-9.162971983E-4
3.491168118E2,5.192350596E-3,-6.566796452E-3,-5.650499370E-3
3.496209223E2,-7.330377586E-3,5.345067009E-3,5.650499370E-3
3.501250328E2,4.932733253E-2,3.695731983E-2,3.863719851E-2
3.506291432E2,1.374445762E-2,5.619955808E-2,-7.345648855E-2
3.511332534E2,-1.863137633E-2,-1.267544460E-2,7.635809947E-3
3.516373634E2,-9.010255337E-3,1.298087649E-2,-5.650499370E-3
3.521414733E2,-1.466075517E-2,6.108647678E-3,-1.527161920E-3
3.526455831E2,-3.970621154E-3,1.527161949E-4,-6.108647794E-4
3.531496927E2,-7.024944760E-3,2.596175298E-3,-1.527161949E-4
3.536538027E2,-7.635809947E-3,-3.054323897E-4,-0.000000000E0
3.541579132E2,-5.955931731E-3,-7.177661173E-3,-4.123337101E-3
3.546620243E2,9.162971750E-3,6.108647678E-3,-4.581485991E-4
3.551661355E2,-2.138026757E-3,3.665188793E-3,1.069013379E-3
3.556702468E2,-1.527161949E-4,1.069013379E-3,-3.512472380E-3
3.561743580E2,4.276053514E-3,1.374445739E-3,-4.581485991E-4
3.566784691E2,-7.788525894E-3,7.635809598E-4,-6.108647794E-4
3.571825801E2,4.428769462E-3,-8.093958721E-3,-1.221729559E-3
3.576866910E2,-2.290742937E-3,-2.443459118E-3,-1.221729559E-3
3.581908018E2,-3.054323897E-4,9.010255337E-3,2.290742937E-3
3.586949125E2,-2.748891478E-3,6.566796452E-3,1.527161920E-3
3.591990232E2,-0.000000000E0,3.665188793E-3,-1.069013379E-3
3.597031337E2,-1.069013379E-3,1.985310577E-3,-6.108647794E-4
3.602072442E2,-1.313359290E-2,-1.527161920E-3,3.359756200E-3
3.607113544E2,1.053741761E-2,-7.177661173E-3,-3.512472380E-3
3.612154646E2,7.177661173E-3,3.817904973E-3,2.901607659E-3
3.617195748E2,2.138026757E-3,4.886918236E-3,7.941242307E-3
3.622236850E2,5.650499370E-3,-1.221729559E-3,1.145371422E-2
3.627277952E2,-6.261364091E-3,4.581485991E-4,1.603520103E-2
3.632319056E2,-4.886918236E-3,4.734201822E-3,2.076940238E-2
3.637360162E2,1.847865991E-2,8.704823442E-3,1.649334840E-2
3.642401265E2,-1.221729559E-3,5.345067009E-3,2.244928107E-2
3.647442369E2,-5.803215317E-3,2.138026757E-3,2.550360374E-2
3.652483473E2,-9.468403645E-3,3.359756200E-3,2.657261863E-2
3.657524577E2,7.635809598E-4,-9.773836471E-3,2.397644334E-2
3.662565681E2,4.428769462E-3,1.985310577E-3,2.412915789E-2
3.667606785E2,-2.138026757E-3,-3.512472380E-3,1.908952370E-2
3.672647886E2,2.916879393E-2,1.832594397E-3,6.414080039E-3
3.677688987E2,-1.282816008E-2,2.596175298E-3,1.191186346E-2
3.682730086E2,-1.420260593E-2,-1.374445739E-3,3.817904973E-3
3.687771185E2,-3.665188793E-3,3.665188793E-3,1.374445739E-3
3.692812284E2,0.000000000E0,8.704823442E-3,2.443459118E-3
3.697853381E2,1.679878100E-3,1.527161920E-3,-1.069013379E-3
3.702894477E2,-7.177661173E-3,1.069013379E-3,1.221729559E-3
3.707935573E2,-3.817904973E-3,-1.679878100E-3,-1.527161949E-4
3.712976667E2,-3.359756200E-3,-5.803215317E-3,-2.290742937E-3
3.718017762E2,1.221729559E-3,-1.527161920E-3,-1.985310577E-3
3.723058855E2,1.985310577E-3,7.788525894E-3,3.970621154E-3
3.728099948E2,-9.468403645E-3,6.261364091E-3,2.290742937E-3
3.733141040E2,4.581485991E-4,-1.527161949E-4,-1.527161949E-4
3.738182131E2,2.901607659E-3,-1.832594397E-3,-1.374445739E-3
3.743223222E2,-6.414080039E-3,1.527161949E-4,-3.054323897E-4
3.748264312E2,-3.359756200E-3,-1.282816008E-2,-5.650499370E-3
3.753305402E2,1.328630932E-2,4.886918236E-3,6.108647794E-4
3.758346493E2,-7.330377586E-3,4.581485875E-3,1.374445739E-3
3.763387584E2,-1.374445739E-3,5.345067009E-3,-1.985310577E-3
3.768428674E2,4.123337101E-3,-6.108647794E-4,5.345067009E-3
3.773469764E2,1.985310577E-3,-5.497782957E-3,7.483093534E-3
3.778510853E2,3.817904973E-3,1.527161949E-4,1.282816008E-2
3.783551941E2,8.857538924E-3,3.665188793E-3,1.985310577E-2
3.788593029E2,1.160643063E-2,-4.581485991E-4,2.138026804E-2
3.793634115E2,6.414080039E-3,9.162971983E-4,2.672533318E-2
3.798675199E2,-1.069013379E-3,-0.000000000E0,3.313941509E-2
3.803716282E2,4.581485991E-4,-8.246674202E-3,3.191768378E-2
3.808757364E2,3.207040019E-3,1.374445739E-3,3.298669681E-2
3.813798443E2,2.748891478E-3,2.596175298E-3,2.932151034E-2
3.818839521E2,3.054323897E-4,1.679878100E-3,3.100138716E-2
3.823880597E2,-4.428769462E-3,3.817904973E-3,3.329212964E-2
3.828921672E2,-1.298087649E-2,2.290742937E-3,2.703076601E-2
3.833962747E2,-3.054323839E-3,-3.665188793E-3,1.847865991E-2
3.839003822E2,-6.108647794E-4,1.679878100E-3,1.924224012E-2
3.844044897E2,-5.955931731E-3,4.123337101E-3,1.435532235E-2
3.849085972E2,-7.635809598E-4,-4.581485991E-4,1.191186346E-2
3.854127045E2,-6.566796452E-3,-2.443459118E-3,6.414080039E-3
3.859168123E2,-5.650499370E-3,-1.527161920E-3,2.748891478E-3
3.864209209E2,-3.359756200E-3,-8.399390616E-3,-7.635809598E-4
3.869250301E2,3.970621154E-3,7.941242307E-3,1.374445739E-3
3.874291396E2,-1.069013379E-3,2.290742937E-3,1.527161920E-3
3.879332493E2,6.108647794E-4,3.512472380E-3,-1.374445739E-3
3.884373592E2,-8.857538924E-3,4.734201822E-3,1.527161949E-4
3.889414693E2,-9.315688163E-3,-1.527161920E-3,-1.527161949E-4
3.894455795E2,-1.069013379E-3,3.207040019E-3,1.679878100E-3
3.899496899E2,1.481347065E-2,-9.010255337E-3,-7.635809598E-4
3.904538004E2,4.428769462E-3,-4.581485991E-4,1.832594397E-3
3.909579109E2,-4.581485875E-3,1.069013379E-3,1.221729559E-3
3.914620214E2,1.985310577E-3,-0.000000000E0,7.635809598E-4
3.919661318E2,-5.955931731E-3,-4.734201822E-3,-0.000000000E0
3.924702420E2,-9.162971983E-4,4.276053514E-3,2.901607659E-3
3.929743523E2,3.970621154E-3,2.290742937E-3,2.596175298E-3
3.934784624E2,-1.374445739E-3,3.665188793E-3,4.581485991E-4
3.939825725E2,3.054323839E-3,-2.596175298E-3,-3.054323897E-4
3.944866826E2,-4.428769462E-3,6.108647794E-4,-1.527161949E-4
3.949907927E2,-2.596175298E-3,-5.039634649E-3,-1.679878100E-3
3.954949026E2,2.596175298E-3,-6.108647678E-3,-2.138026757E-3
3.959990125E2,8.093958721E-3,2.901607659E-3,7.635809598E-4
3.965031223E2,-1.832594397E-3,5.497782957E-3,-1.069013379E-3
3.970072319E2,2.290742937E-3,6.108647794E-4,-7.635809598E-4
3.975113415E2,-2.290742937E-3,2.138026757E-3,1.527161949E-4
3.980154512E2,-7.330377586E-3,-1.527161920E-3,-4.581485991E-4
3.985195608E2,-1.985310577E-3,-1.374445739E-3,-1.832594397E-3
3.990236703E2,4.276053514E-3,2.290742937E-3,1.374445739E-3
3.995277798E2,7.024944760E-3,-3.970621154E-3,-1.069013379E-3
4.000318891E2,6.108647678E-3,-2.901607659E-3,-6.108647794E-4
4.005359984E2,6.108647794E-4,-5.497782957E-3,-6.108647794E-4
4.010401076E2,-1.069013379E-3,-5.039634649E-3,-2.138026757E-3
4.015442167E2,4.734201822E-3,2.443459118E-3,1.832594397E-3
4.020483260E2,-2.138026757E-3,5.497782957E-3,2.138026757E-3
4.025524352E2,-2.290742937E-3,1.679878100E-3,-1.527161949E-4
4.030565445E2,1.069013379E-3,-6.108647794E-4,-6.108647794E-4
4.035606539E2,-1.374445739E-3,-1.985310577E-3,-1.985310577E-3
4.040647632E2,9.162971983E-4,-7.024944760E-3,-3.665188793E-3
4.045688727E2,-7.635809598E-4,3.512472380E-3,1.679878100E-3
4.050729822E2,5.497782957E-3,7.330377586E-3,-1.832594397E-3
4.055770918E2,-4.428769462E-3,7.635809598E-4,-1.206457894E-2
4.060812015E2,2.596175298E-3,1.832594397E-3,6.872228812E-3
4.065853111E2,-1.832594397E-3,1.679878100E-3,-7.635809598E-4
4.070894207E2,-1.679878100E-3,-1.374445739E-3,1.527161949E-4
4.075935302E2,-1.832594397E-3,-4.581485875E-3,-3.054323839E-3
4.080976397E2,1.832594397E-3,-1.679878100E-3,6.108647794E-4
4.086017491E2,3.665188793E-3,1.985310577E-3,9.162971983E-4
4.091058586E2,-4.581485991E-4,1.832594397E-3,1.527161949E-4
4.096099680E2,3.054323897E-4,3.054323897E-4,4.581485991E-4
4.101140774E2,3.054323839E-3,-2.290742937E-3,-1.679878100E-3
4.106181868E2,-9.162971983E-4,1.527161949E-4,3.054323897E-4
4.111222961E2,-2.443459118E-3,-4.581485875E-3,-2.443459118E-3
4.116264053E2,-1.832594397E-3,-2.290742937E-3,-1.069013379E-3
4.121305144E2,4.886918236E-3,3.054323839E-3,1.832594397E-3
4.126346235E2,3.054323897E-4,1.985310577E-3,0.000000000E0
4.131387325E2,-7.635809598E-4,2.443459118E-3,9.162971983E-4
4.136428415E2,-6.719512399E-3,3.970621154E-3,1.832594397E-3
4.141469505E2,-3.512472380E-3,-4.886918236E-3,-1.221729559E-3
4.146510594E2,2.901607659E-3,-2.443459118E-3,-1.679878100E-3
4.151551682E2,5.803215317E-3,1.221729559E-3,1.527161949E-4
4.156592769E2,-9.162971983E-4,2.596175298E-3,1.679878100E-3
4.161633856E2,1.374445739E-3,-4.581485991E-4,0.000000000E0
4.166674942E2,3.054323897E-4,-2.290742937E-3,-9.162971983E-4
4.171716031E2,-7.330377586E-3,-0.000000000E0,0.000000000E0
4.176757124E2,-1.527161920E-3,2.290742937E-3,1.069013379E-3
4.181798224E2,2.901607659E-3,2.290742937E-3,3.054323897E-4
4.186839332E2,-1.679878100E-3,3.512472380E-3,2.138026757E-3
4.191880447E2,-4.581485991E-4,1.527161949E-4,1.527161949E-4
4.196921567E2,3.817904973E-3,-3.054323839E-3,-1.527161920E-3
4.201962693E2,-3.817904973E-3,-2.596175298E-3,-1.221729559E-3
4.207003823E2,-1.221729559E-3,-4.581485875E-3,-2.290742937E-3
4.212044957E2,3.512472380E-3,3.665188793E-3,1.985310577E-3
4.217086094E2,-1.527161949E-4,3.054323839E-3,1.679878100E-3
4.222127232E2,4.581485991E-4,0.000000000E0,-4.581485991E-4
4.227168372E2,-2.901607659E-3,1.374445739E-3,7.635809598E-4
4.232209510E2,1.527161920E-3,-1.985310577E-3,-3.054323897E-4
4.237250644E2,-2.290742937E-3,-6.108647794E-4,-6.108647794E-4
4.242291782E2,3.054323897E-4,-5.955931731E-3,-3.207040019E-3
4.247332920E2,3.207040019E-3,-1.527161920E-3,-1.069013379E-3
4.252374056E2,1.527161920E-3,3.817904973E-3,1.221729559E-3
4.257415192E2,-3.054323897E-4,1.679878100E-3,3.054323897E-4
4.262456326E2,-6.108647794E-4,1.069013379E-3,1.527161949E-4
4.267497460E2,3.054323897E-4,-1.527161949E-4,-0.000000000E0
4.272538592E2,5.803215317E-3,1.679878100E-3,-6.261364091E-3
4.277579723E2,-1.175914705E-2,5.650499370E-3,-8.399390616E-3
4.282620856E2,1.038470119E-2,1.908952370E-2,-1.007926930E-2
4.287661989E2,-3.054323839E-3,-5.192350596E-3,-1.679878100E-3
4.292703123E2,-1.084284950E-2,-6.566796452E-3,6.108647794E-4
4.297744256E2,-3.665188793E-3,-3.817904973E-3,4.276053514E-3
4.302785389E2,-3.817904973E-3,-3.054323839E-3,-2.443459118E-3
4.307826521E2,-2.901607659E-3,-5.497782957E-3,-2.901607659E-3
4.312867652E2,3.817904973E-3,2.443459118E-3,-4.581485991E-4
4.317908781E2,1.069013379E-3,6.108647678E-3,3.512472380E-3
4.322949909E2,-0.000000000E0,1.679878100E-3,9.162971983E-4
4.327991037E2,-2.138026757E-3,2.443459118E-3,1.221729559E-3
4.333032163E2,-4.123337101E-3,-1.527161920E-3,-1.221729559E-3
4.338073288E2,-6.566796452E-3,-2.138026757E-3,4.581485991E-4
4.343114412E2,1.527161920E-3,-9.162971983E-4,-1.832594397E-3
4.348155534E2,1.527161949E-4,3.512472380E-3,1.832594397E-3
4.353196654E2,-6.872228812E-3,3.054323839E-3,4.581485991E-4
4.358237772E2,-5.497782957E-3,7.635809598E-4,3.054323897E-4
4.363278890E2,-5.955931731E-3,-4.581485991E-4,-2.290742937E-3
4.368320006E2,-1.634063199E-2,-2.290742937E-3,-1.007926930E-2
4.373361121E2,-1.466075517E-2,-2.596175298E-3,-4.734201822E-3
4.378402235E2,-2.168569900E-2,-7.941242307E-3,-1.053741761E-2
4.383443348E2,-1.114828233E-2,9.773836471E-3,-2.061668597E-2
4.388484460E2,-2.336557768E-2,1.053741761E-2,-1.847865991E-2
4.393525570E2,-1.389717404E-2,-4.123337101E-3,-2.657261863E-2
4.398566680E2,-2.122755162E-2,-1.527161949E-4,-2.519817278E-2
4.403607790E2,-1.817322709E-2,-3.207040019E-3,-3.558287397E-2
4.408648899E2,-2.428187430E-2,-3.817904973E-3,-4.276053607E-2
4.413690008E2,-1.298087649E-2,1.832594397E-3,-4.825831577E-2
4.418731118E2,-9.468403645E-3,2.138026757E-3,-4.734202102E-2
4.423772228E2,-1.328630932E-2,-3.054323839E-3,-5.406153202E-2
4.428813340E2,1.527161920E-3,-1.466075517E-2,-5.131264031E-2
4.433854452E2,5.803215317E-3,-1.786779426E-2,-5.543597788E-2
4.438895566E2,1.069013379E-3,-5.650499370E-3,-5.039634556E-2
4.443936679E2,2.718348242E-2,-1.985310577E-3,-4.688387364E-2
4.448977793E2,1.786779426E-2,8.093958721E-3,-3.466657549E-2
4.454018906E2,2.061668597E-2,-1.069013379E-3,-3.115410358E-2
4.459060019E2,1.618791744E-2,-4.428769462E-3,-2.504545636E-2
4.464101132E2,2.489273995E-2,-1.374445762E-2,-2.260199748E-2
4.469142245E2,2.932151034E-2,8.704823442E-3,-8.399390616E-3
4.474183357E2,1.756236330E-2,7.483093534E-3,-3.359756200E-3
4.479224469E2,-0.000000000E0,4.123337101E-3,1.679878100E-3
4.484265581E2,1.679878100E-3,1.527161920E-3,3.054323897E-4
4.489306693E2,-5.192350596E-3,3.054323839E-3,4.581485991E-4
4.494347805E2,-1.099556591E-2,1.221729559E-3,1.679878100E-3
4.499388916E2,-4.428769462E-3,-1.359174121E-2,-1.527161920E-3
4.504430027E2,-9.162971983E-4,-7.635809598E-4,1.527161920E-3
4.509471137E2,5.192350596E-3,-6.108647678E-3,1.221729559E-3
4.514512248E2,-2.596175298E-3,-5.955931731E-3,1.527161949E-4
4.519553360E2,3.054323839E-3,-8.552107029E-3,-6.108647794E-4
4.524594470E2,3.054323897E-4,-6.261364091E-3,-1.527161949E-4
4.529635580E2,-1.679878100E-3,-8.093958721E-3,0.000000000E0
4.534676691E2,3.207040019E-3,-1.007926930E-2,-9.162971983E-4
4.539717800E2,-5.955931731E-3,-9.621120058E-3,0.000000000E0
4.544758909E2,7.941242307E-3,-3.512472380E-3,9.162971983E-4
4.549800017E2,1.527161920E-3,-3.054323897E-4,4.581485991E-4
4.554841124E2,-1.069013379E-3,3.207040019E-3,0.000000000E0
4.559882230E2,-1.221729559E-3,4.581485991E-4,1.527161949E-4
4.564923335E2,-2.748891478E-3,1.832594397E-3,1.832594397E-3
4.569964440E2,5.497782957E-3,-2.901607659E-3,-1.527161920E-3
4.575005543E2,-6.261364091E-3,4.581485875E-3,2.290742937E-3
4.580046647E2,-1.007926930E-2,-7.635809598E-4,1.527161949E-4
4.585087751E2,1.160643063E-2,-3.207040019E-3,-1.374445739E-3
4.590128854E2,7.635809598E-4,6.872228812E-3,3.207040019E-3
4.595169956E2,5.345067009E-3,-1.221729559E-3,1.832594397E-3
4.600211059E2,-2.596175298E-3,-1.527161949E-4,-1.069013379E-3
4.605252160E2,4.886918236E-3,-2.596175298E-3,-6.108647794E-4
4.610293261E2,-1.985310577E-3,-2.138026757E-3,-2.138026757E-3
4.615334361E2,5.039634649E-3,-8.399390616E-3,-2.138026757E-3
4.620375464E2,1.832594397E-3,3.054323897E-4,3.054323897E-4
4.625416568E2,4.123337101E-3,1.527161920E-3,2.138026757E-3
4.630457674E2,1.985310577E-3,4.428769462E-3,7.635809947E-3
4.635498786E2,1.221729559E-3,3.512472380E-3,1.007926930E-2
4.640539908E2,5.803215317E-3,9.926552884E-3,1.175914705E-2
4.645581038E2,2.290742937E-3,9.010255337E-3,1.511890348E-2
4.650622174E2,-2.443459118E-3,9.926552884E-3,2.260199748E-2
4.655663312E2,-4.581485991E-4,7.024944760E-3,2.244928107E-2
4.660704452E2,1.099556591E-2,1.191186346E-2,2.489273995E-2
4.665745592E2,3.054323897E-4,1.374445762E-2,2.580903657E-2
4.670786732E2,-4.428769462E-3,1.130099874E-2,2.443459071E-2
4.675827873E2,-4.581485991E-4,8.246674202E-3,2.306014486E-2
4.680869013E2,-3.359756200E-3,-6.108647794E-4,1.771507785E-2
4.685910154E2,-4.123337101E-3,-7.177661173E-3,8.552107029E-3
4.690951293E2,-1.832594397E-3,-6.108647678E-3,2.596175298E-3
4.695992430E2,-3.207040019E-3,4.581485875E-3,-1.618791744E-2
4.701033566E2,1.786779426E-2,2.504545636E-2,1.603520103E-2
4.706074700E2,-4.428769462E-3,8.857538924E-3,-6.108647794E-4
4.711115832E2,-1.527161949E-4,0.000000000E0,-1.679878123E-2
4.716156964E2,7.635809598E-4,-6.108647678E-3,-2.626718581E-2
4.721198095E2,1.404988952E-2,-1.389717404E-2,-1.511890348E-2
4.726239225E2,1.130099874E-2,-1.679878100E-3,-1.970038936E-2
4.731280354E2,1.313359290E-2,1.679878100E-3,-1.359174121E-2
4.736321480E2,-1.527161920E-3,2.672533318E-2,-1.802051067E-2
4.741362604E2,1.985310577E-3,-5.497782957E-3,-2.199113183E-2
4.746403728E2,1.267544460E-2,-9.010255337E-3,-2.794706449E-2
4.751444852E2,1.725693047E-2,-1.664606482E-2,-2.535088919E-2
4.756485974E2,4.581485875E-3,-4.581485875E-3,-2.107483521E-2
4.761527095E2,1.985310577E-3,4.886918236E-3,-2.351829410E-2
4.766568217E2,-6.108647678E-3,4.581485991E-4,-2.092211880E-2
4.771609337E2,1.069013402E-2,-2.458730713E-2,-2.687804960E-2
4.776650456E2,-6.872228812E-3,-5.955931731E-3,-9.773836471E-3
4.781691574E2,-6.108647678E-3,-9.468403645E-3,-4.367683083E-2
4.786732691E2,1.069013379E-3,-6.108647678E-3,-1.298087649E-2
4.791773806E2,-3.359756200E-3,-2.748891478E-3,-1.130099874E-2
4.796814920E2,5.955931731E-3,2.290742937E-3,-9.315688163E-3
4.801856034E2,2.748891478E-3,-2.138026757E-3,-6.261364091E-3
4.806897146E2,3.970621154E-3,2.138026757E-3,3.054323897E-4
4.811938257E2,-4.581485875E-3,3.054323897E-4,3.054323897E-4
4.816979366E2,-8.246674202E-3,-4.123337101E-3,0.000000000E0
4.822020474E2,3.054323839E-3,4.886918236E-3,4.581485991E-4
4.827061582E2,3.512472380E-3,7.635809598E-4,3.359756200E-3
4.832102689E2,4.581485991E-4,1.221729559E-3,1.069013379E-3
4.837143797E2,9.162971983E-4,-1.221729559E-3,-9.162971983E-4
4.842184903E2,-2.290742937E-3,2.443459118E-3,2.596175298E-3
4.847226009E2,2.443459118E-3,-5.650499370E-3,-4.428769462E-3
4.852267115E2,-4.276053514E-3,1.374445739E-3,-6.566796452E-3
4.857308221E2,1.374445739E-3,-4.123337101E-3,7.024944760E-3
4.862349326E2,9.926552884E-3,-5.345067009E-3,-4.734201822E-3
4.867390431E2,-3.207040019E-3,5.039634649E-3,-3.207040019E-3
4.872431536E2,-6.566796452E-3,5.039634649E-3,-1.221729559E-3
4.877472639E2,1.679878100E-3,-2.748891478E-3,-1.985310577E-3
4.882513741E2,-4.734201822E-3,7.635809598E-4,-6.719512399E-3
4.887554843E2,-9.162971983E-4,-3.665188793E-3,-4.886918236E-3
4.892595948E2,5.497782957E-3,1.985310577E-3,-2.596175298E-3
4.897637052E2,1.374445739E-3,1.527161920E-3,-7.635809598E-4
4.902678156E2,1.679878100E-3,-1.527161949E-4,-1.221729559E-3
4.907719260E2,1.527161920E-3,-9.162971983E-4,-1.679878100E-3
4.912760363E2,-9.162971983E-4,1.527161949E-4,-7.635809598E-4
4.917801464E2,-1.527161949E-4,-2.138026757E-3,-5.497782957E-3
4.922842565E2,2.443459118E-3,-2.443459118E-3,-1.985310577E-3
4.927883665E2,4.123337101E-3,3.359756200E-3,-2.138026757E-3
4.932924764E2,1.282816008E-2,3.665188793E-3,-1.542433538E-2
4.937965862E2,5.955931731E-3,-8.552107029E-3,7.788525894E-3
4.943006959E2,-5.192350596E-3,2.748891478E-3,-9.162971750E-3
4.948048056E2,-2.596175298E-3,3.359756200E-3,3.207040019E-3
4.953089152E2,-9.468403645E-3,-3.359756200E-3,-2.443459118E-3
4.958130248E2,-1.527161949E-4,-1.527161920E-3,-9.162971983E-4
4.963171342E2,3.817904973E-3,1.527161920E-3,0.000000000E0
4.968212437E2,1.527161949E-4,3.359756200E-3,1.221729559E-3
4.973253531E2,-1.527161920E-3,3.054323897E-4,1.527161920E-3
4.978294624E2,-1.374445739E-3,1.374445739E-3,7.635809598E-4
4.983335717E2,-1.985310577E-3,-3.512472380E-3,-1.069013379E-3
4.988376811E2,-0.000000000E0,-6.719512399E-3,-3.512472380E-3
4.993417904E2,2.489273995E-2,-8.246674202E-3,-5.803215317E-3
4.998458997E2,9.926552884E-3,-2.443459118E-3,-3.054323897E-4
5.003500088E2,1.466075517E-2,-4.276053514E-3,-3.054323839E-3
5.008541179E2,-9.162971983E-4,-6.108647794E-4,6.108647794E-4
5.013582272E2,4.581485991E-4,-1.679878100E-3,-7.635809598E-4
5.018623364E2,-5.497782957E-3,6.108647794E-4,3.054323897E-4
5.023664458E2,3.054323979E-2,-2.565632015E-2,-7.483093534E-3
5.028705550E2,-4.123337101E-3,7.177661173E-3,7.635809598E-4
5.033746644E2,-3.970621154E-3,5.497782957E-3,1.679878100E-3
5.038787738E2,2.748891478E-3,-6.108647794E-4,-0.000000000E0
5.043828833E2,0.000000000E0,-6.108647794E-4,-7.635809598E-4
5.048869928E2,-5.803215317E-3,3.359756200E-3,-3.054323897E-4
5.053911023E2,-3.512472380E-3,-2.290742937E-3,-1.374445739E-3
5.058952117E2,0.000000000E0,-1.527161920E-3,-3.054323897E-4
5.063993211E2,2.138026757E-3,3.207040019E-3,6.108647794E-4
5.069034304E2,-1.069013379E-3,1.527161920E-3,-3.665188793E-3
5.074075396E2,-7.635809598E-4,1.527161920E-3,3.054323839E-3
5.079116489E2,-9.468403645E-3,-1.374445739E-3,-3.054323897E-4
5.084157580E2,-9.621120058E-3,-2.290742937E-3,-1.374445739E-3
5.089198672E2,5.039634649E-3,2.443459118E-3,-1.221729559E-3
5.094239763E2,-1.527161920E-3,2.443459118E-3,2.901607659E-3
5.099280852E2,-1.221729559E-3,7.635809598E-4,2.138026757E-3
5.104321941E2,-5.497782957E-3,5.803215317E-3,2.290742937E-3
5.109363029E2,-8.093958721E-3,3.207040019E-3,4.581485991E-4
5.114404116E2,-1.114828233E-2,-1.679878100E-3,1.527161920E-3
5.119445203E2,1.069013379E-3,-1.221729559E-3,-1.985310577E-3
5.124486289E2,5.650499370E-3,2.138026757E-3,1.221729559E-3
5.129527375E2,1.832594397E-3,1.069013379E-3,9.162971983E-4
5.134568459E2,-9.162971983E-4,1.069013379E-3,7.635809598E-4
5.139609542E2,-4.581485991E-4,3.665188793E-3,-4.581485991E-4
5.144650625E2,2.901607659E-3,5.803215317E-3,-6.108647678E-3
5.149691706E2,-3.054323839E-3,1.389717404E-2,-3.161225095E-2
5.154732786E2,-3.054323839E-3,-1.450803876E-2,4.428769462E-3
5.159773866E2,9.162971750E-3,4.428769462E-3,2.596175298E-3
5.164814946E2,4.581485875E-3,-9.926552884E-3,-2.138026757E-3
5.169856026E2,-6.719512399E-3,1.084284950E-2,2.138026757E-3
5.174897105E2,-8.552107029E-3,1.527161949E-4,-4.123337101E-3
5.179938184E2,-6.414080039E-3,-6.108647678E-3,-5.039634649E-3
5.184979262E2,2.290742937E-3,3.512472380E-3,-1.069013379E-3
5.190020338E2,3.359756200E-3,1.527161949E-4,-2.138026757E-3
5.195061414E2,1.374445739E-3,-1.832594397E-3,-3.665188793E-3
5.200102491E2,-1.527161920E-3,1.527161920E-3,-3.207040019E-3
5.205143567E2,3.054323839E-3,-1.985310577E-3,-5.192350596E-3
5.210184644E2,-1.221729559E-3,-1.420260593E-2,-2.626718581E-2
5.215225721E2,2.918406427E-1,-1.505781710E-1,2.031125315E-2
5.220266797E2,-2.764163166E-2,1.863137633E-2,3.665188793E-3
5.225307873E2,-1.206457894E-2,2.290742937E-3,1.878409274E-2
5.230348950E2,-4.886918236E-3,-6.108647678E-3,-1.313359290E-2
5.235390028E2,1.221729559E-3,-7.941242307E-3,1.466075517E-2
5.240431109E2,-2.031125315E-2,1.221729559E-3,-7.635809598E-4
5.245472195E2,-1.404988952E-2,-7.330377586E-3,-1.527161920E-3
5.250513290E2,6.719512399E-3,-1.542433538E-2,-2.275471389E-2
5.255554396E2,-7.177661173E-3,1.725693047E-2,-6.872228812E-3
5.260595515E2,-9.162971750E-3,1.527161920E-3,-5.192350596E-3
5.265636646E2,-8.857538924E-3,1.740964688E-2,-5.039634649E-3
5.270677789E2,-8.857538924E-3,-1.145371422E-2,-3.512472380E-3
5.275718943E2,7.177661173E-3,-2.596175298E-3,-5.803215317E-3
5.280760108E2,-7.330377586E-3,-3.512472380E-3,2.443459118E-3
5.285801280E2,3.512472380E-3,-2.443459071E-2,-7.635809598E-4
5.290842460E2,-1.084284950E-2,-2.336557768E-2,-1.679878100E-3
5.295883646E2,-4.886918236E-3,-1.191186346E-2,-6.414080039E-3
5.300924841E2,-7.635809947E-3,-3.207040019E-3,-9.010255337E-3
5.305966044E2,4.886918236E-3,2.290742937E-3,-1.832594397E-3
5.311007253E2,-9.315688163E-3,7.483093534E-3,5.039634649E-3
5.316048465E2,8.093958721E-3,-2.596175298E-3,-1.985310577E-3
5.321089676E2,-8.246674202E-3,4.734201822E-3,-7.635809598E-4
5.326130885E2,-7.788525894E-3,1.527161949E-4,-1.527161920E-3
5.331172091E2,-1.099556591E-2,-3.665188793E-3,4.123337101E-3
5.336213295E2,9.468403645E-3,3.054323839E-3,-4.276053514E-3
5.341254496E2,2.596175298E-3,-4.276053514E-3,7.635809598E-4
5.346295702E2,-1.985310577E-3,-5.650499370E-3,2.901607659E-3
5.351336915E2,-3.054323897E-4,-1.069013402E-2,1.679878100E-3
5.356378134E2,-2.901607659E-3,-1.282816008E-2,3.054323897E-4
5.361419353E2,-5.192350596E-3,-9.162971750E-3,2.596175298E-3
5.366460571E2,7.941242307E-3,1.832594397E-3,-3.054323897E-4
5.371501786E2,3.512472380E-3,9.162971983E-4,3.817904973E-3
5.376542999E2,-1.069013379E-3,3.665188793E-3,6.261364091E-3
5.381584210E2,1.298087649E-2,-6.108647794E-4,7.177661173E-3
5.386625418E2,1.168278903E-1,8.246674202E-3,4.749473557E-2
5.391666621E2,9.514218569E-2,-9.773836471E-3,1.634063199E-2
5.396707821E2,-9.926552884E-3,1.007926930E-2,2.565632015E-2
5.401749018E2,-6.108647794E-4,3.359756200E-3,7.330377586E-3
5.406790212E2,8.552107029E-3,6.872228812E-3,3.420842811E-2
5.411831403E2,1.191186346E-2,4.734201822E-3,7.635809947E-3
5.416872592E2,-9.315688163E-3,-1.237001177E-2,-4.886918236E-3
5.421913780E2,-8.552107029E-3,3.054323839E-3,-2.626718581E-2
5.426954968E2,-6.414080039E-3,1.435532235E-2,-1.145371422E-2
5.431996155E2,5.497782957E-3,4.581485991E-4,-4.581485991E-4
5.437037344E2,6.414080039E-3,-7.635809598E-4,-1.985310577E-3
5.442078529E2,-1.481347065E-2,4.474584386E-2,-1.527161920E-3
5.447119713E2,-5.039634649E-3,3.817904973E-3,1.832594397E-3
5.452160894E2,8.399390616E-3,3.924806044E-2,-1.450803876E-2
5.457202073E2,8.399390616E-3,1.069013402E-2,-5.039634649E-3
5.462243252E2,-1.679878100E-3,-2.199113183E-2,-5.650499370E-3
5.467284428E2,-1.954767294E-2,-4.001164436E-2,-1.069013379E-3
5.472325684E2,-1.664606482E-2,1.939495653E-2,9.621120058E-3
5.477366777E2,-1.740964688E-2,8.704823442E-3,-7.024944760E-3
5.482407948E2,-1.679878100E-3,1.527161949E-4,4.428769462E-3
5.487449118E2,-2.290742937E-3,-1.740964688E-2,-3.665188793E-3
5.492490286E2,-3.359756200E-3,-3.359756200E-3,2.290742937E-3
5.497531453E2,-9.773836471E-3,-3.817904973E-3,6.872228812E-3
5.502572618E2,-1.237001177E-2,7.635809598E-4,4.428769462E-3
5.507613782E2,-4.581485875E-3,-1.221729559E-3,-2.596175298E-3
5.512654943E2,6.719512399E-3,2.443459118E-3,-1.069013379E-3
5.517696102E2,-3.970621154E-3,3.665188793E-3,4.581485991E-4
5.522737259E2,2.138026757E-3,-3.054323897E-4,-1.069013379E-3
5.527778414E2,-1.679878100E-3,5.497782957E-3,4.581485991E-4
5.532819567E2,-1.191186346E-2,9.773836471E-3,1.374445739E-3
5.537860719E2,-2.092211880E-2,-2.138026757E-3,1.374445762E-2
5.542901871E2,1.221729559E-3,-1.221729559E-3,-5.039634649E-3
5.547943022E2,3.207040019E-3,1.069013379E-3,-2.901607659E-3
5.552984172E2,-3.817904973E-3,6.414080039E-3,-1.832594397E-3
5.558025320E2,-4.734201822E-3,2.748891478E-3,1.985310577E-3
5.563066467E2,-9.926552884E-3,7.024944760E-3,1.069013379E-3
5.568107611E2,1.374445739E-3,2.596175298E-3,-6.261364091E-3
5.573148754E2,-9.773836471E-3,7.788525894E-3,-9.162971983E-4
5.578189894E2,5.345067009E-3,-7.635809598E-4,-1.527161920E-3
5.583231031E2,-2.748891478E-3,3.054323839E-3,1.374445739E-3
5.588272165E2,-6.414080039E-3,5.803215317E-3,6.872228812E-3
5.593313298E2,-9.162971983E-4,2.748891478E-3,5.497782957E-3
5.598354430E2,-7.483093534E-3,9.926552884E-3,8.093958721E-3
5.603395561E2,-6.414080039E-3,2.901607659E-3,6.108647678E-3
5.608436692E2,-2.138026757E-3,-5.039634649E-3,5.039634649E-3
5.613477823E2,2.596175298E-3,4.428769462E-3,6.719512399E-3
5.618518954E2,1.832594397E-3,4.581485875E-3,7.635809947E-3
5.623560087E2,-6.261364091E-3,3.512472380E-3,7.024944760E-3
5.628601219E2,1.069013379E-3,1.527161949E-4,7.024944760E-3
5.633642352E2,-2.138026757E-3,2.596175298E-3,7.483093534E-3
5.638683483E2,-1.527161949E-4,-3.054323897E-4,6.108647678E-3
5.643724614E2,3.054323839E-3,-1.985310577E-3,7.024944760E-3
5.648765746E2,-3.512472380E-3,-3.359756200E-3,6.108647678E-3
5.653806878E2,5.192350596E-3,1.527161920E-3,5.039634649E-3
5.658848011E2,4.581485991E-4,6.872228812E-3,9.162971750E-3
5.663889145E2,-1.832594397E-3,3.054323839E-3,5.039634649E-3
5.668930280E2,-3.207040019E-3,5.803215317E-3,1.374445739E-3
5.673971415E2,2.138026757E-3,7.177661173E-3,1.069013379E-3
5.679012551E2,-5.039634649E-3,6.872228812E-3,-7.635809598E-4
5.684053688E2,2.138026757E-3,-4.581485991E-4,-3.665188793E-3
5.689094824E2,1.374445762E-2,9.162971983E-4,-1.527161920E-3
5.694135960E2,1.695149764E-2,7.941242307E-3,6.414080039E-3
5.699177096E2,2.061668597E-2,1.175914705E-2,1.511890348E-2
5.704218233E2,1.725693047E-2,8.704823442E-3,2.260199748E-2
5.709259372E2,3.237583488E-2,3.970621154E-3,2.657261863E-2
5.714300514E2,2.519817278E-2,3.207040019E-3,3.756818548E-2
5.719341657E2,2.306014486E-2,1.053741761E-2,4.276053607E-2
5.724382802E2,2.153298259E-2,2.657261863E-2,5.406153202E-2
5.729423951E2,1.252272818E-2,2.611446939E-2,5.711585656E-2
5.734465103E2,1.832594397E-3,3.298669681E-2,6.108647957E-2
5.739506256E2,9.468403645E-3,1.832594350E-2,6.093376130E-2
5.744547409E2,-1.985310577E-3,2.641990222E-2,6.032289565E-2
5.749588563E2,1.069013379E-3,1.725693047E-2,5.910116807E-2
5.754629715E2,6.566796452E-3,1.970038936E-2,6.047561392E-2
5.759670868E2,5.650499370E-3,2.244928107E-2,5.879573524E-2
5.764712020E2,-1.832594397E-3,2.428187430E-2,5.986474827E-2
5.769753172E2,2.748891478E-3,1.985310577E-2,5.910116807E-2
5.774794323E2,-9.010255337E-3,2.244928107E-2,5.849030241E-2
5.779835471E2,-1.053741761E-2,1.359174121E-2,5.574141070E-2
5.784876618E2,-5.345067009E-3,1.023198478E-2,4.917461425E-2
5.789917765E2,-9.621120058E-3,1.878409274E-2,4.459312931E-2
5.794958910E2,-1.313359290E-2,1.618791744E-2,4.092793912E-2
5.800000054E2,-1.374445762E-2,7.941242307E-3,3.252854943E-2
5.805041197E2,-2.214384824E-2,7.483093534E-3,2.764163166E-2
5.810082338E2,-1.420260593E-2,-3.512472380E-3,2.138026804E-2
5.815123525E2,-2.046396956E-2,6.108647678E-3,1.496618707E-2
5.820164618E2,-1.221729536E-2,5.192350596E-3,8.857538924E-3
5.825205757E2,-1.863137633E-2,1.832594397E-3,6.108647794E-4
5.830246895E2,-2.061668597E-2,1.221729559E-3,-6.872228812E-3
5.835288033E2,-2.000582218E-2,-3.207040019E-3,-1.435532235E-2
5.840329172E2,-2.580903657E-2,-4.276053514E-3,-2.107483521E-2
5.845370311E2,-1.695149764E-2,-5.497782957E-3,-2.962694131E-2
5.850411449E2,-2.565632015E-2,2.901607659E-3,-3.268126398E-2
5.855452587E2,-2.107483521E-2,-3.817904973E-3,-4.367683083E-2
5.860493723E2,-1.649334840E-2,-1.053741761E-2,-5.085449293E-2
5.865534857E2,-1.893680729E-2,-4.886918236E-3,-5.589412898E-2
5.870575990E2,-1.313359290E-2,-1.023198478E-2,-6.429351866E-2
5.875617121E2,-1.267544460E-2,-9.773836471E-3,-6.459894776E-2
5.880658251E2,-1.527161949E-4,-8.093958721E-3,-6.673697382E-2
5.885699380E2,-1.053741761E-2,1.832594397E-3,-6.169734150E-2
5.890740506E2,-3.512472380E-3,-7.177661173E-3,-5.986474827E-2
5.895781631E2,-1.114828233E-2,-7.941242307E-3,-6.139190868E-2
5.900822753E2,-1.893680729E-2,3.054323897E-4,-6.276635826E-2
5.905863874E2,-6.872228812E-3,-1.832594397E-3,-5.879573524E-2
5.910904995E2,4.734201822E-3,-1.649334840E-2,-6.398808211E-2
5.915946114E2,1.099556591E-2,-1.007926930E-2,-5.803215504E-2
5.920987232E2,-4.581485991E-4,-1.985310577E-3,-4.948004708E-2
5.926028348E2,1.038470119E-2,-1.175914705E-2,-4.718930274E-2
5.931069464E2,6.108647794E-4,-5.955931731E-3,-3.894263133E-2
5.936110577E2,7.788525894E-3,-1.114828233E-2,-3.329212964E-2
5.941151690E2,7.635809598E-4,-1.038470119E-2,-3.008509055E-2
5.946192801E2,1.343902480E-2,-1.557705179E-2,-2.626718581E-2
5.951233911E2,1.802051067E-2,-7.788525894E-3,-1.237001177E-2
5.956275021E2,9.926552884E-3,-5.039634649E-3,-1.053741761E-2
5.961316130E2,1.099556591E-2,-8.246674202E-3,-9.162971750E-3
5.966357239E2,1.175914705E-2,-9.010255337E-3,-2.901607659E-3
5.971398345E2,3.054323897E-4,-5.039634649E-3,4.581485875E-3
5.976439451E2,1.069013402E-2,-9.926552884E-3,1.221729559E-3
5.981480555E2,-4.123337101E-3,-6.414080039E-3,1.527161949E-4
5.986521657E2,6.719512399E-3,3.970621154E-3,1.221729559E-3
5.991562758E2,-8.857538924E-3,7.177661173E-3,3.970621154E-3
5.996603858E2,6.108647794E-4,3.512472380E-3,3.512472380E-3
6.001644957E2,-4.886918236E-3,9.162971983E-4,1.527161949E-4
6.006686054E2,-1.527161949E-4,-2.596175298E-3,4.123337101E-3
6.011727149E2,-4.428769462E-3,-5.497782957E-3,-4.428769462E-3
6.016768244E2,-4.581485991E-4,5.803215317E-3,-1.069013379E-3
6.021809338E2,-2.748891478E-3,3.207040019E-3,-1.069013379E-3
6.026850430E2,3.054323897E-4,1.832594397E-3,1.832594397E-3
6.031891520E2,1.985310577E-3,-1.527161949E-4,4.428769462E-3
6.036932611E2,-5.039634649E-3,1.069013379E-3,4.428769462E-3
6.041973700E2,5.803215317E-3,-1.145371422E-2,1.527161949E-4
6.047014788E2,3.359756200E-3,-5.955931731E-3,3.665188793E-3
6.052055874E2,7.483093534E-3,2.596175298E-3,2.443459118E-3
6.057096959E2,-1.832594397E-3,6.872228812E-3,3.054323839E-3
6.062138042E2,4.428769462E-3,-2.596175298E-3,2.901607659E-3
6.067179126E2,-6.414080039E-3,5.192350596E-3,3.359756200E-3
6.072220209E2,-4.734201822E-3,1.069013379E-3,3.359756200E-3
6.077261291E2,-6.872228812E-3,-9.162971983E-4,1.374445739E-3
6.082302373E2,1.084284950E-2,-4.581485991E-4,3.665188793E-3
6.087343454E2,3.665188793E-3,1.985310577E-3,-1.832594397E-3
6.092384536E2,-6.108647794E-4,2.596175298E-3,-1.221729559E-3
6.097425619E2,3.054323839E-3,9.773836471E-3,-1.832594350E-2
6.102466700E2,-1.069013379E-3,-4.734201822E-3,1.160643063E-2
6.107507781E2,-5.955931731E-3,-2.596175298E-3,-8.857538924E-3
6.112548861E2,3.054323839E-3,2.138026757E-3,2.138026757E-3
6.117589940E2,1.832594397E-3,1.221729559E-3,3.054323897E-4
6.122631019E2,1.221729559E-3,7.635809598E-4,6.108647794E-4
6.127672097E2,1.069013379E-3,-1.069013379E-3,-1.527161949E-4
6.132713175E2,-6.108647794E-4,-6.108647794E-4,-1.069013379E-3
6.137754252E2,-6.719512399E-3,-6.108647794E-4,-1.527161949E-4
6.142795329E2,-4.123337101E-3,-6.108647794E-4,-6.108647794E-4
6.147836405E2,9.162971983E-4,5.039634649E-3,1.527161920E-3
6.152877481E2,4.428769462E-3,-1.374445739E-3,-4.581485991E-4
6.157918557E2,1.198822111E-1,-5.879573524E-2,-1.634063199E-2
6.162959632E2,2.122755162E-2,-4.123337194E-2,3.039052337E-2
6.168000706E2,5.696314201E-2,-2.438877672E-1,-2.474002354E-2
6.173041780E2,-2.336557768E-2,3.970621154E-2,1.130099874E-2
6.178082853E2,2.504545636E-2,1.832594350E-2,-1.481347065E-2
6.183123925E2,-1.172860414E-1,7.834340632E-2,-2.840521187E-2
6.188164998E2,8.399390616E-3,3.207040206E-2,-1.221729559E-3
6.193206070E2,-2.321286127E-2,8.781181276E-2,1.130099874E-2
6.198247142E2,4.886918236E-3,8.093958721E-3,-1.527161920E-3
6.203288214E2,1.527161920E-3,2.290742937E-3,-6.108647794E-4
6.208329286E2,-7.941242307E-3,1.069013379E-3,-1.221729559E-3
6.213370358E2,-5.345067009E-3,-7.330377586E-3,1.832594397E-3
6.218411429E2,3.817904973E-3,-3.054323839E-3,-4.581485991E-4
6.223452503E2,1.114828233E-2,-5.192350596E-3,-1.069013379E-3
6.228493578E2,-1.832594397E-3,4.428769462E-3,-0.000000000E0
6.233534653E2,-2.290742937E-3,3.970621154E-3,-4.581485991E-4
6.238575731E2,-2.290742937E-3,1.679878100E-3,-3.054323897E-4
6.243616808E2,-1.221729559E-3,1.069013379E-3,-1.527161949E-4
6.248657886E2,-9.315688163E-3,2.596175298E-3,-6.108647794E-4
6.253698963E2,-5.497782957E-3,9.162971983E-4,-3.054323897E-4
6.258740040E2,4.581485875E-3,2.443459118E-3,-1.221729559E-3
6.263781117E2,2.290742937E-3,-1.527161949E-4,-4.581485991E-4
6.268822196E2,1.069013379E-3,3.054323897E-4,-4.581485991E-4
6.273863274E2,-7.635809598E-4,0.000000000E0,0.000000000E0
6.278904351E2,1.374445739E-3,-1.527161920E-3,-1.527161949E-4
6.283945428E2,-5.955931731E-3,7.635809598E-4,-1.527161949E-4
6.288986504E2,-1.832594397E-3,-4.123337101E-3,-6.108647794E-4
6.294027580E2,3.955349326E-2,-2.932151034E-2,5.955931731E-3
6.299068656E2,9.315688163E-3,1.985310577E-2,-1.527161949E-4
6.304109732E2,9.162971983E-4,-1.145371422E-2,-7.024944760E-3
6.309150808E2,-3.054323839E-3,4.886918236E-3,-8.399390616E-3
6.314191883E2,-9.621120058E-3,9.926552884E-3,-1.466075517E-2
6.319232958E2,3.970621154E-3,-6.719512399E-3,3.970621154E-3
6.324274033E2,-1.527161949E-4,4.276053514E-3,-2.412915789E-2
6.329315106E2,1.985310577E-3,5.039634649E-3,1.985310577E-3
6.334356179E2,-1.832594397E-3,-3.359756200E-3,4.123337101E-3
6.339397253E2,-1.221729559E-3,4.581485991E-4,3.054323839E-3
6.344438327E2,-5.345067009E-3,2.443459118E-3,6.108647794E-4
6.349479402E2,2.596175298E-3,-3.054323897E-4,2.290742937E-3
6.354520478E2,5.650499370E-3,1.527161920E-3,4.581485875E-3
6.359561554E2,-9.162971983E-4,3.359756200E-3,3.665188793E-3
6.364602631E2,3.054323897E-4,3.054323839E-3,5.650499370E-3
6.369643707E2,2.290742937E-3,3.054323897E-4,5.192350596E-3
6.374684784E2,-3.207040019E-3,1.832594397E-3,5.497782957E-3
6.379725861E2,-2.901607659E-3,1.069013379E-3,5.650499370E-3
6.384766939E2,5.803215317E-3,1.679878100E-3,7.635809947E-3
6.389808016E2,4.886918236E-3,2.596175298E-3,1.084284950E-2
6.394849093E2,-4.581485991E-4,4.581485875E-3,9.468403645E-3
6.399890169E2,4.581485991E-4,3.512472380E-3,1.023198478E-2
6.404931245E2,-1.527161949E-4,4.886918236E-3,1.053741761E-2
6.409972320E2,-1.527161949E-4,3.054323897E-4,1.191186346E-2
6.415013395E2,-1.221729559E-3,1.023198478E-2,4.886918236E-3
6.420054470E2,5.803215317E-3,2.290742937E-3,1.237001177E-2
6.425095545E2,1.679878100E-3,-1.679878100E-3,1.496618707E-2
6.430136619E2,4.734201822E-3,-1.985310577E-3,1.496618707E-2
6.435177693E2,-1.527161920E-3,-3.512472380E-3,1.817322709E-2
6.440218766E2,-3.817904973E-3,9.162971983E-4,1.328630932E-2
6.445259839E2,-2.596175298E-3,-2.138026757E-3,1.542433538E-2
6.450300911E2,4.428769462E-3,-5.039634649E-3,1.710421406E-2
6.455341983E2,5.803215317E-3,-2.748891478E-3,1.649334840E-2
6.460383056E2,-2.290742937E-3,-2.596175298E-3,1.374445762E-2
6.465424129E2,8.399390616E-3,-7.483093534E-3,1.099556591E-2
6.470465203E2,-3.970621154E-3,-3.970621154E-3,1.038470119E-2
6.475506277E2,-0.000000000E0,-6.566796452E-3,7.024944760E-3
6.480547351E2,-1.099556591E-2,-3.359756200E-3,5.192350596E-3
6.485588426E2,8.093958721E-3,-6.108647794E-4,0.000000000E0
6.490629501E2,-1.206457894E-2,-1.374445739E-3,-1.527161949E-4
6.495670582E2,-1.282816008E-2,1.374445739E-3,-1.069013379E-3
6.500711672E2,-3.359756246E-2,2.596175298E-3,-1.237001177E-2
6.505752771E2,-1.939495653E-2,7.635809598E-4,-2.489273995E-2
6.510793883E2,-3.787361458E-2,3.970621154E-3,-3.497200832E-2
6.515835005E2,-3.588830680E-2,5.497782957E-3,-4.520399496E-2
6.520876134E2,-3.069595434E-2,8.704823442E-3,-5.726857483E-2
6.525917266E2,-2.565632015E-2,1.985310577E-3,-6.429351866E-2
6.530958401E2,-1.878409274E-2,1.527161949E-4,-7.131846249E-2
6.535999536E2,-8.857538924E-3,-5.497782957E-3,-7.330377400E-2
6.541040671E2,2.748891478E-3,-1.374445762E-2,-7.437278330E-2
6.546081806E2,-1.069013402E-2,-1.252272818E-2,-7.208204269E-2
6.551122940E2,-5.955931731E-3,-1.328630932E-2,-7.666353136E-2
6.556164074E2,-9.926552884E-3,-1.404988952E-2,-7.024945319E-2
6.561205206E2,-3.817904973E-3,-7.483093534E-3,-7.498364896E-2
6.566246335E2,-1.267544460E-2,-6.566796452E-3,-7.513637096E-2
6.571287462E2,-3.665188793E-3,-9.621120058E-3,-7.391463965E-2
6.576328586E2,-1.175914705E-2,-9.926552884E-3,-7.574722916E-2
6.581369708E2,7.941242307E-3,-1.313359290E-2,-7.360920310E-2
6.586410827E2,1.572976820E-2,-9.926552884E-3,-6.734783947E-2
6.591451945E2,2.703076601E-2,-8.246674202E-3,-5.604684353E-2
6.596493060E2,1.634063199E-2,-6.719512399E-3,-4.398226365E-2
6.601534172E2,2.809977904E-2,-8.552107029E-3,-3.329212964E-2
6.606575281E2,2.000582218E-2,-5.345067009E-3,-2.397644334E-2
6.611616388E2,2.611446939E-2,-2.138026757E-3,-1.175914705E-2
6.616657493E2,2.596175298E-3,-1.985310577E-3,-3.970621154E-3
6.621698596E2,1.435532235E-2,2.748891478E-3,-1.069013379E-3
6.626739699E2,-9.315688163E-3,3.054323897E-4,1.069013379E-3
6.631780801E2,4.581485991E-4,2.901607659E-3,-1.527161949E-4
6.636821901E2,-1.679878100E-3,4.581485991E-4,-1.527161949E-4
6.641863000E2,-1.069013379E-3,-0.000000000E0,1.527161949E-4
6.646904099E2,-6.108647678E-3,-2.748891478E-3,-3.054323897E-4
6.651945196E2,2.748891478E-3,2.596175298E-3,-1.832594397E-3
6.656986292E2,-6.566796452E-3,5.497782957E-3,1.527161949E-4
6.662027388E2,5.345067009E-3,6.108647678E-3,-1.832594397E-3
6.667068484E2,-7.483093534E-3,4.734201822E-3,1.527161949E-4
6.672109578E2,-3.665188793E-3,6.108647678E-3,-1.069013379E-3
6.677150670E2,-3.054323839E-3,4.428769462E-3,-1.374445739E-3
6.682191760E2,-1.404988952E-2,5.955931731E-3,1.832594397E-3
6.687232849E2,-4.428769462E-3,-1.832594397E-3,1.221729559E-3
6.692273937E2,1.985310577E-3,-5.345067009E-3,-7.635809598E-4
6.697315024E2,-2.596175298E-2,2.932151034E-2,-1.374445739E-3
6.702356109E2,-3.054323979E-2,3.207040206E-2,-3.054323839E-3
6.707397195E2,5.345067009E-3,-1.832594397E-3,-1.679878100E-3
6.712438280E2,-7.330377586E-3,9.162971750E-3,1.374445739E-3
6.717479364E2,1.114828233E-2,-1.679878123E-2,-3.054323897E-4
6.722520446E2,7.635809947E-3,-9.468403645E-3,1.221729559E-3
6.727561528E2,-8.552107029E-3,-3.054323897E-4,-7.635809598E-4
6.732602608E2,5.955931731E-3,4.581485875E-3,1.069013379E-3
6.737643688E2,-1.786779426E-2,4.886918236E-3,-3.054323897E-4
6.742684768E2,-6.414080039E-3,7.483093534E-3,-6.566796452E-3
6.747725846E2,-2.367101051E-2,-1.221729559E-3,-1.206457894E-2
6.752766924E2,-2.733619884E-2,7.177661173E-3,-2.351829410E-2
6.757808000E2,-2.183841541E-2,-5.650499370E-3,-3.008509055E-2
6.762849075E2,-1.542433538E-2,-4.276053514E-3,-3.940077871E-2
6.767890149E2,-1.175914705E-2,2.443459118E-3,-4.810560122E-2
6.772931222E2,-6.872228812E-3,9.162971983E-4,-5.299251899E-2
6.777972296E2,3.970621154E-3,-1.527161949E-4,-5.390881747E-2
6.783013371E2,-4.276053514E-3,1.985310577E-3,-5.375609919E-2
6.788054445E2,5.497782957E-3,-1.069013379E-3,-5.100720748E-2
6.793095519E2,8.093958721E-3,-1.527161920E-3,-4.413498193E-2
6.798136591E2,3.145953640E-2,-6.108647794E-4,-3.848448023E-2
6.803177662E2,2.061668597E-2,-4.581485991E-4,-2.764163166E-2
6.808218733E2,1.664606482E-2,-4.886918236E-3,-1.924224012E-2
6.813259803E2,2.214384824E-2,-1.374445739E-3,-1.450803876E-2
6.818300872E2,1.649334840E-2,-1.069013379E-3,-4.428769462E-3
6.823341942E2,9.162971750E-3,2.138026757E-3,9.162971983E-4
6.828383013E2,2.107483521E-2,-3.054323897E-4,7.788525894E-3
6.833424086E2,1.557705179E-2,1.084284950E-2,1.053741761E-2
6.838465165E2,3.375028074E-2,2.596175298E-3,2.046396956E-2
6.843506343E2,1.466075517E-2,5.039634649E-3,3.176496923E-2
6.848547346E2,2.138026804E-2,9.315688163E-3,2.932151034E-2
6.853588442E2,8.552107029E-3,1.221729536E-2,4.459312931E-2
6.858629538E2,-4.886918236E-3,1.374445762E-2,4.337139800E-2
6.863670633E2,7.483093534E-3,1.404988952E-2,3.863719851E-2
6.868711728E2,-5.497782957E-3,1.466075517E-2,4.948004708E-2
6.873752821E2,-3.054323897E-4,1.603520103E-2,4.780016840E-2
6.878793914E2,2.138026757E-3,9.315688163E-3,4.856374860E-2
6.883835006E2,-6.719512399E-3,2.015853859E-2,4.963276163E-2
6.888876098E2,-5.345067009E-3,1.069013402E-2,4.810560122E-2
6.893917187E2,2.596175298E-3,1.221729536E-2,4.948004708E-2
6.898958274E2,-1.466075517E-2,4.276053514E-3,4.566214234E-2
6.903999359E2,-1.114828233E-2,4.581485991E-4,4.856374860E-2
6.909040442E2,-2.153298259E-2,4.581485991E-4,3.680460155E-2
6.914081523E2,-1.069013402E-2,1.985310577E-3,2.641990222E-2
6.919122604E2,-2.580903657E-2,-5.192350596E-3,2.382372692E-2
6.924163685E2,-2.275471389E-2,-3.207040019E-3,1.527161989E-2
6.929204767E2,-1.389717404E-2,-4.734201822E-3,6.566796452E-3
6.934245848E2,-1.160643063E-2,-5.650499370E-3,3.817904973E-3
6.939286929E2,-3.970621154E-3,-1.084284950E-2,1.832594397E-3
6.944328007E2,-4.581485991E-4,-8.093958721E-3,4.276053514E-3
6.949369084E2,-9.162971983E-4,-5.039634649E-3,5.192350596E-3
6.954410160E2,8.704823442E-3,-2.138026757E-3,-1.527161920E-3
6.959451239E2,-7.635809947E-3,-2.138026757E-3,4.734201822E-3
6.964492321E2,1.527161920E-3,-4.581485991E-4,-4.581485991E-4
6.969533408E2,-5.192350596E-3,5.497782957E-3,-1.679878100E-3
6.974574500E2,-1.343902480E-2,-5.345067009E-3,3.817904973E-3
6.979615595E2,1.023198478E-2,-5.039634649E-3,-2.138026757E-3
6.984656695E2,-1.328630932E-2,9.315688163E-3,3.665188793E-3
6.989697798E2,1.527161920E-3,8.857538924E-3,3.054323839E-3
6.994738903E2,-5.497782957E-3,2.748891478E-3,-7.635809598E-4
6.999780010E2,-1.603520103E-2,3.420842811E-2,-2.290742937E-3
7.004821119E2,-5.955931731E-3,5.803215317E-3,-2.443459118E-3
7.009862227E2,-1.221729536E-2,2.443459118E-3,2.748891478E-3
7.014903335E2,-2.138026757E-3,-5.345067009E-3,-3.512472380E-3
7.019944532E2,9.162971983E-4,1.221729559E-3,1.221729559E-3
7.024985551E2,-2.367101051E-2,1.725693047E-2,9.773836471E-3
7.030026658E2,3.512472380E-3,-3.207040019E-3,6.108647794E-4
7.035067767E2,-2.138026757E-3,2.443459118E-3,-1.527161949E-4
7.040108876E2,-1.069013379E-3,1.221729559E-3,-1.221729559E-3
7.045149985E2,-2.901607659E-3,-7.635809598E-4,3.665188793E-3
7.050191094E2,1.069013379E-3,-1.985310577E-3,7.635809598E-4
7.055232203E2,-2.138026757E-3,-5.803215317E-3,-3.054323897E-4
7.060273312E2,1.985310577E-2,-2.458730713E-2,-1.221729559E-3
7.065314420E2,5.299251899E-2,-3.466657549E-2,1.756236330E-2
7.070355529E2,5.268708616E-2,-2.382372692E-2,2.214384824E-2
7.075396640E2,2.993237413E-2,-2.122755162E-2,1.847865991E-2
7.080437751E2,2.474002354E-2,-1.985310577E-2,2.703076601E-2
7.085478865E2,-2.596175298E-3,-1.374445739E-3,-5.192350596E-3
7.090519983E2,-7.483093534E-3,1.679878100E-3,6.108647794E-4
7.095561109E2,1.527161920E-3,1.374445739E-3,-2.596175298E-3
7.100602247E2,1.527161920E-3,4.581485991E-4,-6.108647794E-4
7.105643521E2,1.206457894E-2,-4.276053514E-3,8.552107029E-3
7.110684552E2,-3.054323839E-3,-2.596175298E-3,-1.160643063E-2
7.115725717E2,-1.359174121E-2,6.872228812E-3,-5.650499370E-3
7.120766889E2,-1.328630932E-2,3.207040019E-3,-4.428769462E-3
7.125808065E2,2.596175298E-3,-6.108647794E-4,-6.719512399E-3
7.130849245E2,-1.221729559E-3,6.872228812E-3,1.374445739E-3
7.135890427E2,-1.343902480E-2,6.108647794E-4,-9.010255337E-3
7.140931610E2,-9.162971750E-3,1.679878100E-3,9.162971983E-4
7.145972793E2,-1.069013379E-3,1.527161949E-4,7.635809598E-4
7.151013975E2,-1.832594397E-3,-4.581485991E-4,1.374445739E-3
7.156055157E2,-4.428769462E-3,-2.596175298E-3,2.138026757E-3
7.161096338E2,-6.108647794E-4,5.803215317E-3,-7.177661173E-3
7.166137518E2,2.901607659E-3,-7.330377586E-3,-5.497782957E-3
7.171178695E2,-1.985310577E-3,2.290742937E-3,4.886918236E-3
7.176219871E2,-7.635809598E-4,7.635809598E-4,-6.108647794E-4
7.181261045E2,-3.054323897E-4,6.108647794E-4,9.162971983E-4
7.186302218E2,-3.207040019E-3,1.527161949E-4,-3.054323897E-4
7.191343389E2,-4.123337101E-3,1.527161949E-4,2.596175298E-3
7.196384558E2,2.138026757E-3,-4.581485991E-4,-2.290742937E-3
7.201425724E2,4.734201822E-3,0.000000000E0,-1.527161920E-3
7.206466887E2,1.832594397E-3,1.527161949E-4,-7.635809598E-4
7.211508047E2,-7.635809598E-4,1.527161949E-4,-3.054323897E-4
7.216549205E2,9.162971983E-4,-4.581485991E-4,3.054323897E-4
7.221590360E2,-4.123337101E-3,4.428769462E-3,4.581485991E-4
7.226631518E2,-5.955931731E-3,7.635809598E-4,4.886918236E-3
7.231672674E2,-9.162971983E-4,-6.108647794E-4,-1.679878100E-3
7.236713826E2,3.207040019E-3,2.901607659E-3,-4.581485991E-4
7.241754981E2,2.351829410E-2,-1.450803876E-2,2.138026757E-3
7.246796135E2,1.435532235E-2,-8.704823442E-3,2.443459118E-3
7.251837288E2,2.565632015E-2,-2.550360374E-2,1.740964688E-2
7.256878441E2,-1.099556591E-2,3.359756200E-3,3.054323897E-4
7.261919598E2,-9.621120058E-3,3.054323839E-3,5.497782957E-3
7.266960764E2,7.330377586E-3,-1.007926930E-2,-1.527161920E-3
7.272001942E2,-4.734201822E-3,2.443459118E-3,-3.512472380E-3
7.277043136E2,-2.748891478E-3,2.901607659E-3,-1.069013379E-3
7.282084350E2,6.108647794E-4,-3.054323897E-4,6.108647794E-4
7.287125582E2,-7.635809598E-4,-2.138026757E-3,-6.414080039E-3
7.292166831E2,-1.435532235E-2,5.803215317E-3,3.054323839E-3
7.297208093E2,-9.468403645E-3,4.734201822E-3,-4.428769462E-3
7.302249365E2,-4.734201822E-3,1.374445739E-3,-1.374445739E-3
7.307290645E2,-2.901607659E-3,5.803215317E-3,3.054323897E-4
7.312331928E2,1.527161920E-3,9.926552884E-3,-1.878409274E-2
7.317373214E2,-6.108647678E-3,7.635809598E-4,-2.046396956E-2
7.322414501E2,2.489273995E-2,4.428769462E-3,9.162971750E-3
7.327455786E2,-8.552107029E-3,-2.901607659E-3,1.221729559E-3
7.332497070E2,-7.635809598E-4,4.581485991E-4,-6.108647794E-4
7.337538351E2,1.527161949E-4,-4.581485991E-4,-3.054323839E-3
7.342579628E2,-2.748891478E-3,-2.901607659E-3,-2.443459118E-3
7.347620901E2,-2.290742937E-3,4.276053514E-3,-2.443459118E-3
7.352662171E2,-4.428769462E-3,1.985310577E-3,-1.221729559E-3
7.357703435E2,2.748891478E-3,2.596175298E-3,3.054323897E-4
7.362744696E2,-9.468403645E-3,7.635809598E-4,1.985310577E-3
7.367785953E2,-2.443459118E-3,7.635809598E-4,-2.138026757E-3
7.372827208E2,3.359756200E-3,7.635809598E-4,-1.069013379E-3
7.377868459E2,-1.496618707E-2,2.428187430E-2,-7.635809598E-4
7.382909707E2,-1.527161949E-4,1.985310577E-2,-1.420260593E-2
7.387950952E2,4.276053514E-3,-1.191186346E-2,1.374445739E-3
7.392992194E2,-1.985310577E-3,-1.267544460E-2,6.719512399E-3
7.398033434E2,-2.290742937E-3,1.206457894E-2,-1.221729536E-2
7.403074672E2,3.970621154E-3,-1.878409274E-2,1.908952370E-2
7.408115907E2,-1.038470119E-2,3.222311661E-2,-1.313359290E-2
7.413157142E2,4.123337101E-3,-1.908952370E-2,1.298087649E-2
7.418198376E2,5.650499370E-3,-1.527161920E-3,6.108647794E-4
7.423239608E2,5.650499370E-3,2.519817278E-2,-3.481929377E-2
7.428280838E2,-1.572976820E-2,1.466075517E-2,7.330377586E-3
7.433322069E2,1.374445739E-3,-7.177661173E-3,3.054323839E-3
7.438363299E2,1.359174121E-2,2.565632015E-2,-1.634063199E-2
7.443404528E2,4.428769462E-3,-2.076940238E-2,1.756236330E-2
7.448445757E2,-3.359756200E-3,-9.162971983E-4,4.581485991E-4
7.453486987E2,-1.023198478E-2,1.832594397E-3,-9.162971983E-4
7.458528215E2,1.985310577E-3,-4.734201822E-3,-3.054323897E-4
7.463569442E2,6.719512399E-3,-4.581485875E-3,4.123337101E-3
7.468610667E2,4.581485991E-4,7.941242307E-3,-3.359756200E-3
7.473651889E2,1.221729559E-3,-9.010255337E-3,3.512472380E-3
7.478693110E2,-3.970621154E-3,4.581485991E-4,-7.635809598E-4
7.483734328E2,-6.108647794E-4,1.634063199E-2,-1.710421406E-2
7.488775544E2,4.123337101E-3,-1.175914705E-2,8.399390616E-3
7.493816758E2,1.206457894E-2,-2.596175298E-3,-1.191186346E-2
7.498857969E2,-7.635809598E-4,-5.803215317E-3,2.519817278E-2
7.503899177E2,-7.330377586E-3,-2.138026757E-3,-6.108647794E-4
7.508940382E2,4.581485991E-4,1.740964688E-2,-1.878409274E-2
7.513981585E2,-7.330377586E-3,-6.719512399E-3,1.679878100E-3
7.519022786E2,-1.420260593E-2,-6.566796452E-3,-1.069013379E-3
7.524063984E2,-6.719512399E-3,-7.483093534E-3,-6.108647678E-3
7.529105182E2,1.527161920E-3,-1.114828233E-2,-4.123337101E-3
7.534146378E2,-7.788525894E-3,-1.282816008E-2,-1.527161949E-4
7.539187574E2,4.581485991E-4,-1.206457894E-2,-4.886918236E-3
7.544228768E2,-1.832594397E-3,-1.038470119E-2,-5.955931731E-3
7.549269960E2,-6.414080039E-3,-1.069013402E-2,-1.007926930E-2
7.554311150E2,3.817904973E-3,-1.298087649E-2,-9.315688163E-3
7.559352338E2,4.581485875E-3,-1.267544460E-2,-1.099556591E-2
7.564393525E2,3.054323897E-4,-9.773836471E-3,-8.857538924E-3
7.569434711E2,-4.581485991E-4,-1.221729536E-2,-9.926552884E-3
7.574475896E2,2.290742937E-3,-1.038470119E-2,-9.468403645E-3
7.579517080E2,-8.857538924E-3,-1.832594397E-3,-1.160643063E-2
7.584558261E2,6.872228812E-3,2.748891478E-3,-1.572976820E-2
7.589599444E2,-1.221729559E-3,4.886918236E-3,-1.404988952E-2
7.594640630E2,1.374445739E-3,8.093958721E-3,-1.786779426E-2
7.599681822E2,-1.221729559E-3,5.039634649E-3,-1.175914705E-2
7.604723020E2,-2.290742937E-3,8.399390616E-3,-1.725693047E-2
7.609764223E2,-6.261364091E-3,7.177661173E-3,-1.603520103E-2
7.614805428E2,5.345067009E-3,5.039634649E-3,-1.908952370E-2
7.619846633E2,1.527161920E-3,5.803215317E-3,-1.725693047E-2
7.624887839E2,3.817904973E-3,3.359756200E-3,-1.435532235E-2
7.629929045E2,-2.596175298E-3,-3.970621154E-3,-1.618791744E-2
7.634970251E2,4.428769462E-3,-6.414080039E-3,-1.511890348E-2
7.640011459E2,-9.315688163E-3,-1.527161949E-4,-1.817322709E-2
7.645052667E2,1.069013379E-3,-5.497782957E-3,-1.725693047E-2
7.650093876E2,3.970621154E-3,-6.108647678E-3,-1.496618707E-2
7.655135085E2,3.512472380E-3,-8.246674202E-3,-1.114828233E-2
7.660176295E2,-1.527161920E-3,-8.552107029E-3,-1.160643063E-2
7.665217507E2,-1.985310577E-3,7.483093534E-3,-1.695149764E-2
7.670258723E2,-4.581485875E-3,7.024944760E-3,-1.725693047E-2
7.675299946E2,-3.665188793E-3,2.092211880E-2,-5.253437161E-2
7.680341174E2,2.901607659E-3,3.970621154E-3,1.527161920E-3
7.685382405E2,2.138026757E-3,5.192350596E-3,-1.542433538E-2
7.690423638E2,-2.290742937E-3,9.773836471E-3,-1.817322709E-2
7.695464872E2,3.054323897E-4,5.192350596E-3,-2.076940238E-2
7.700506106E2,-1.527161949E-4,-0.000000000E0,-1.725693047E-2
7.705547338E2,-3.207040019E-3,-5.345067009E-3,-1.542433538E-2
7.710588569E2,5.497782957E-3,-7.941242307E-3,-1.771507785E-2
7.715629798E2,6.414080039E-3,-2.901607659E-3,-1.863137633E-2
7.720671024E2,7.635809598E-4,-3.207040019E-3,-1.542433538E-2
7.725712247E2,-4.581485991E-4,-3.054323897E-4,-1.847865991E-2
7.730753468E2,7.635809598E-4,-3.665188793E-3,-1.511890348E-2
7.735794686E2,-3.054323839E-3,-7.635809598E-4,-1.756236330E-2
7.740835902E2,-2.443459118E-3,-2.138026757E-3,-1.771507785E-2
7.745877116E2,-2.748891478E-3,-5.192350596E-3,-1.374445762E-2
7.750918330E2,7.483093534E-3,-1.832594397E-3,-1.817322709E-2
7.755959543E2,-4.428769462E-3,-7.635809598E-4,-1.893680729E-2
7.761000755E2,1.298087649E-2,-1.496618707E-2,-1.007926930E-2
7.766041966E2,6.872228812E-3,-1.328630932E-2,-1.114828233E-2
7.771083175E2,1.359174121E-2,-5.955931731E-3,-2.596175298E-3
7.776124383E2,-7.330377586E-3,3.359756200E-3,-2.443459118E-3
7.781165588E2,-1.832594397E-3,6.108647794E-4,-3.054323897E-4
7.786206792E2,2.443459118E-3,-4.123337101E-3,1.985310577E-3
7.791247995E2,-3.054323839E-3,-1.374445739E-3,-1.527161949E-4
7.796289195E2,-1.527161920E-3,6.414080039E-3,-7.635809598E-4
7.801330394E2,-1.527161920E-3,6.872228812E-3,-1.985310577E-3
7.806371590E2,-2.901607659E-3,-9.621120058E-3,1.069013379E-3
7.811412784E2,-3.970621154E-3,-1.710421406E-2,5.497782957E-3
7.816453975E2,3.207040019E-3,-1.130099874E-2,1.985310577E-3
7.821495165E2,7.635809598E-4,-6.872228812E-3,6.108647794E-4
7.826536354E2,-1.679878100E-3,4.276053514E-3,-2.138026757E-3
7.831577543E2,3.054323839E-3,3.054323897E-4,1.069013379E-3
7.836618726E2,-8.704823442E-3,1.145371422E-2,-2.336557768E-2
7.841659914E2,3.512472380E-3,-1.267544460E-2,-7.635809947E-3
7.846701106E2,-4.673115537E-2,-2.138026757E-3,1.481347065E-2
7.851742303E2,-1.007926930E-2,4.276053514E-3,-1.557705179E-2
7.856783504E2,-3.313941509E-2,-5.497782957E-3,-1.527161949E-4
7.861824706E2,-1.863137633E-2,5.497782957E-3,-3.970621154E-3
7.866865907E2,-1.817322709E-2,1.007926930E-2,-2.748891478E-3
7.871907108E2,-1.527161989E-2,8.552107029E-3,1.527161920E-3
7.876948308E2,-1.298087649E-2,1.145371422E-2,3.054323897E-4
7.881989508E2,-9.315688163E-3,-1.069013379E-3,5.955931731E-3
7.887030707E2,-8.857538924E-3,4.581485875E-3,2.748891478E-3
7.892071905E2,-6.108647678E-3,1.679878100E-3,1.679878100E-3
7.897113100E2,-1.542433538E-2,2.748891478E-3,2.748891478E-3
7.902154293E2,-5.650499370E-3,-9.621120058E-3,-1.527161949E-4
7.907195483E2,-1.832594397E-3,9.315688163E-3,-9.162971983E-4
7.912236671E2,-1.572976820E-2,1.282816008E-2,6.719512399E-3
7.917277856E2,-7.483093534E-3,5.192350596E-3,1.221729559E-3
7.922319039E2,-7.788525894E-3,3.970621154E-3,3.054323897E-4
7.927360219E2,-1.634063199E-2,9.621120058E-3,3.665188793E-3
7.932401399E2,1.527161949E-4,-3.665188793E-3,-3.359756200E-3
7.937442576E2,4.123337101E-3,4.581485991E-4,9.468403645E-3
7.942483752E2,-3.207040019E-3,6.108647794E-4,7.024944760E-3
7.947524926E2,-1.527161949E-4,1.603520103E-2,3.817904973E-3
7.952566099E2,-2.138026757E-3,1.695149764E-2,9.926552884E-3
7.957607268E2,-2.138026757E-3,1.221729536E-2,8.704823442E-3
7.962648437E2,-2.199113183E-2,1.389717404E-2,2.611446939E-2
7.967689603E2,4.276053514E-3,-1.878409274E-2,-1.221729559E-3
7.972730766E2,3.207040019E-3,-1.725693047E-2,2.748891478E-3
7.977771928E2,-9.315688163E-3,5.803215317E-3,9.926552884E-3
7.982813089E2,-1.221729559E-3,4.581485875E-3,1.053741761E-2
7.987854249E2,-2.596175298E-3,-3.207040019E-3,1.527161949E-4
7.992895407E2,-9.926552884E-3,1.557705179E-2,4.123337101E-3
7.997936564E2,-1.954767294E-2,1.069013402E-2,7.635809598E-4
8.002977719E2,8.093958721E-3,-5.650499370E-3,-1.527161949E-4
8.008018873E2,7.177661173E-3,-9.162971983E-4,6.108647794E-4
8.013060025E2,1.985310577E-3,-1.832594397E-3,6.108647794E-4
8.018101178E2,4.123337101E-3,-6.872228812E-3,-1.832594397E-3
8.023142331E2,-5.955931731E-3,-3.054323839E-3,-3.054323839E-3
8.028183485E2,3.512472380E-3,3.512472380E-3,3.512472380E-3
8.033224640E2,-2.901607659E-3,5.497782957E-3,9.162971983E-4
8.038265795E2,-4.734201822E-3,3.207040019E-3,2.596175298E-3
8.043306951E2,-1.374445739E-3,1.221729559E-3,-1.069013379E-3
8.048348109E2,-5.192350596E-3,-0.000000000E0,-1.527161949E-4
8.053389268E2,-2.596175298E-3,-2.443459118E-3,-3.512472380E-3
8.058430428E2,-2.596175298E-3,8.704823442E-3,6.719512399E-3
8.063471587E2,5.955931731E-3,-3.665188793E-3,1.832594397E-3
8.068512744E2,-1.527161920E-3,1.985310577E-3,1.985310577E-3
8.073553899E2,1.527161920E-3,-7.635809598E-4,-1.527161920E-3
8.078595051E2,-1.985310577E-3,3.512472380E-3,3.054323897E-4
8.083636202E2,-1.802051067E-2,6.719512399E-3,2.901607659E-3
8.088677353E2,-1.893680729E-2,2.351829410E-2,7.788525894E-3
8.093718503E2,-2.748891478E-3,3.970621154E-3,-9.162971983E-4
8.098759653E2,-3.665188793E-3,2.138026757E-3,4.734201822E-3
8.103800804E2,-1.221729559E-3,-1.527161920E-3,-4.581485991E-4
8.108841960E2,-7.024944760E-3,5.955931731E-3,5.650499370E-3
8.113883118E2,-7.177661173E-3,9.162971983E-4,1.832594397E-3
8.118924279E2,-7.788525894E-3,1.496618707E-2,-3.054323897E-4
8.123965440E2,7.788525894E-3,-2.901607659E-3,6.108647794E-4
8.129006600E2,-1.908952370E-2,7.483093534E-3,6.261364091E-3
8.134047758E2,-8.857538924E-3,2.901607659E-3,-1.527161949E-4
8.139088917E2,-2.596175298E-3,6.414080039E-3,7.024944760E-3
8.144130075E2,7.024944760E-3,-1.527161949E-4,-7.483093534E-3
8.149171231E2,-4.581485991E-4,-4.581485991E-4,-3.359756200E-3
8.154212386E2,-1.114828233E-2,1.282816008E-2,9.773836471E-3
8.159253539E2,-1.985310577E-3,6.108647794E-4,6.108647794E-4
8.164294691E2,1.985310577E-3,-2.596175298E-3,-1.527161949E-4
8.169335841E2,-6.719512399E-3,4.428769462E-3,3.665188793E-3
8.174376991E2,1.221729559E-3,-3.054323839E-3,-1.832594397E-3
8.179418140E2,-4.886918236E-3,4.276053514E-3,-4.581485991E-4
8.184459290E2,2.687804960E-2,0.000000000E0,-1.374445739E-3
8.189500440E2,-1.466075517E-2,2.015853859E-2,4.581485875E-3
8.194541590E2,2.290742937E-3,1.863137633E-2,1.527161920E-3
8.199582739E2,-2.901607659E-3,1.038470119E-2,-4.428769462E-3
8.204623887E2,5.650499370E-3,-7.635809598E-4,-5.650499370E-3
8.209665032E2,7.941242307E-3,-3.359756200E-3,-1.985310577E-3
8.214706179E2,5.192350596E-3,1.374445739E-3,-2.901607659E-3
8.219747326E2,-2.443459118E-3,1.679878100E-3,-2.748891478E-3
8.224788476E2,7.941242307E-3,3.512472380E-3,3.512472380E-3
8.229829629E2,1.527161920E-3,2.443459118E-3,1.679878100E-3
8.234870786E2,-1.832594397E-3,-3.054323897E-4,1.832594397E-3
8.239911943E2,-2.290742937E-3,-9.162971983E-4,-9.162971983E-4
8.244953101E2,-6.108647794E-4,-3.054323839E-3,-6.261364091E-3
8.249994260E2,-3.817904973E-3,-5.650499370E-3,-5.345067009E-3
8.255035417E2,5.497782957E-3,-2.138026757E-3,-6.261364091E-3
8.260076575E2,6.566796452E-3,7.635809598E-4,-6.108647794E-4
8.265117731E2,-5.497782957E-3,6.108647794E-4,-5.345067009E-3
8.270158887E2,2.290742937E-3,2.138026757E-3,-4.123337101E-3
8.275200044E2,-1.069013379E-3,-1.527161949E-4,-5.955931731E-3
8.280241202E2,-5.803215317E-3,-1.527161920E-3,-4.734201822E-3
8.285282362E2,-1.527161949E-4,-1.374445739E-3,-7.177661173E-3
8.290323524E2,5.955931731E-3,-3.207040019E-3,-1.985310577E-3
8.295364689E2,3.512472380E-3,-7.177661173E-3,-6.566796452E-3
8.300405855E2,-2.138026757E-3,-3.512472380E-3,-2.290742937E-3
8.305447024E2,2.290742937E-3,-4.886918236E-3,-3.512472380E-3
8.310488194E2,-7.024944760E-3,-6.719512399E-3,-2.596175298E-3
8.315529365E2,-2.443459118E-3,-8.093958721E-3,-2.901607659E-3
8.320570537E2,3.207040019E-3,-2.138026757E-3,2.443459118E-3
8.325611710E2,3.359756200E-3,-1.832594397E-3,3.359756200E-3
8.330652885E2,-2.596175298E-3,-2.748891478E-3,6.108647678E-3
8.335694063E2,2.138026757E-3,-6.414080039E-3,3.665188793E-3
8.340735242E2,-4.123337101E-3,-6.566796452E-3,3.817904973E-3
8.345776426E2,-3.970621154E-3,-4.428769462E-3,5.039634649E-3
8.350817614E2,4.428769462E-3,1.374445739E-3,9.315688163E-3
8.355858811E2,-1.527161920E-3,2.443459118E-3,8.857538924E-3
8.360900014E2,-1.221729559E-3,1.527161949E-4,6.719512399E-3
8.365941221E2,-0.000000000E0,6.108647794E-4,6.414080039E-3
8.370982433E2,-2.901607659E-3,2.901607659E-3,7.483093534E-3
8.376023646E2,-5.497782957E-3,-3.817904973E-3,4.734201822E-3
8.381064862E2,-1.527161949E-4,-4.276053514E-3,3.970621154E-3
8.386106076E2,1.832594397E-3,5.345067009E-3,9.926552884E-3
8.391147292E2,-2.290742937E-3,3.970621154E-3,7.330377586E-3
8.396188506E2,5.039634649E-3,-3.970621154E-3,7.788525894E-3
8.401229720E2,-3.665188793E-3,7.635809598E-4,6.566796452E-3
8.406270933E2,-2.748891478E-3,2.290742937E-3,8.399390616E-3
8.411312146E2,-2.290742937E-3,-7.788525894E-3,1.221729559E-3
8.416353361E2,-3.970621154E-3,-1.069013379E-3,7.635809598E-4
8.421394582E2,4.276053514E-3,4.734201822E-3,7.483093534E-3
8.426435814E2,7.635809598E-4,1.374445739E-3,7.330377586E-3
8.431477055E2,3.054323897E-4,0.000000000E0,4.428769462E-3
8.436518303E2,-6.108647794E-4,4.123337101E-3,7.024944760E-3
8.441559549E2,-8.246674202E-3,8.093958721E-3,4.886918236E-3
8.446600795E2,-5.955931731E-3,-3.054323839E-3,-6.108647794E-4
8.451642039E2,-3.817904973E-3,1.527161920E-3,2.596175298E-3
8.456683283E2,6.261364091E-3,0.000000000E0,5.192350596E-3
8.461724526E2,3.054323897E-4,2.596175298E-3,5.192350596E-3
8.466765767E2,1.527161949E-4,-1.374445739E-3,6.108647794E-4
8.471807005E2,-1.374445739E-3,6.108647794E-4,1.832594397E-3
8.476848239E2,-2.443459118E-3,3.054323839E-3,2.901607659E-3
8.481889469E2,-6.566796452E-3,-0.000000000E0,-1.221729559E-3
8.486930695E2,-1.603520103E-2,2.871064469E-2,8.704823442E-3
8.491971918E2,1.130099874E-2,-7.177661173E-3,-3.970621154E-3
8.497013141E2,3.359756200E-3,-1.114828233E-2,-2.138026757E-3
8.502054363E2,2.748891478E-3,6.108647794E-4,-3.054323897E-4
8.507095584E2,-4.581485991E-4,-0.000000000E0,-3.054323897E-4
8.512136803E2,-4.123337101E-3,-3.512472380E-3,-4.428769462E-3
8.517178022E2,-2.901607659E-3,6.719512399E-3,-1.053741761E-2
8.522219241E2,2.901607659E-3,1.679878100E-3,4.276053514E-3
8.527260459E2,1.527161949E-4,-9.162971983E-4,1.221729559E-3
8.532301675E2,4.581485991E-4,3.054323897E-4,7.635809598E-4
8.537342890E2,-9.162971983E-4,-1.527161920E-3,-7.635809598E-4
8.542384104E2,-1.527161949E-4,-7.635809598E-4,-1.527161949E-4
8.547425315E2,-3.512472380E-3,-3.054323839E-3,-3.054323839E-3
8.552466524E2,-1.527161949E-4,-1.038470119E-2,-3.970621154E-3
8.557507733E2,7.177661173E-3,-2.290742937E-3,-3.054323897E-4
8.562548941E2,5.650499370E-3,1.374445739E-3,9.162971983E-4
8.567590147E2,3.054323839E-3,-1.527161920E-3,0.000000000E0
8.572631354E2,2.397644334E-2,-2.519817278E-2,-3.726275265E-2
8.577672567E2,1.802051067E-1,-1.165224537E-1,-2.962694131E-2
8.582713784E2,3.543015569E-2,-3.008509055E-2,-2.443459118E-3
8.587755007E2,4.001164436E-2,-3.268126398E-2,5.039634649E-3
8.592796234E2,5.803215504E-2,-4.001164436E-2,1.130099874E-2
8.597837466E2,-3.588830680E-2,2.748891525E-2,-1.160643063E-2
8.602878701E2,-1.023198478E-2,-1.527161949E-4,-4.276053514E-3
8.607919940E2,2.748891478E-3,-1.679878100E-3,-4.428769462E-3
8.612961180E2,9.315688163E-3,-6.872228812E-3,-9.162971983E-4
8.618002422E2,2.443459118E-3,-2.138026757E-3,-6.108647794E-4
8.623043665E2,1.374445739E-3,-1.069013379E-3,-3.054323897E-4
8.628084909E2,-4.581485991E-4,-1.527161949E-4,-4.581485991E-4
8.633126154E2,-7.177661173E-3,1.985310577E-3,-1.679878100E-3
8.638167399E2,-8.246674202E-3,1.374445739E-3,-1.221729559E-3
8.643208645E2,3.054323897E-4,2.290742937E-3,-4.581485875E-3
8.648249892E2,1.527161920E-3,1.985310577E-3,6.108647794E-4
8.653291138E2,-2.290742937E-3,4.581485991E-4,-1.527161949E-4
8.658332385E2,-3.817904973E-3,4.581485991E-4,7.635809598E-4
8.663373633E2,-5.497782957E-3,1.221729559E-3,-1.374445739E-3
8.668414882E2,-5.192350596E-3,-1.985310577E-3,1.527161949E-4
8.673456136E2,3.359756200E-3,1.069013379E-3,-3.207040019E-3
8.678497393E2,4.886918236E-3,-1.221729559E-3,7.635809598E-4
8.683538655E2,9.162971983E-4,-1.221729559E-3,2.290742937E-3
8.688579919E2,-2.748891478E-3,3.359756200E-3,-5.803215317E-3
8.693621187E2,-5.345067009E-3,-9.162971983E-4,-7.788525894E-3
8.698662459E2,-1.313359290E-2,-1.481347065E-2,-2.596175298E-3
8.703703732E2,-4.581485991E-4,-1.389717404E-2,-4.734201822E-3
8.708745008E2,3.359756200E-3,8.399390616E-3,-3.054323839E-3
8.713786286E2,-1.527161949E-4,1.069013379E-3,2.596175298E-3
8.718827567E2,-2.596175298E-3,1.374445739E-3,2.138026757E-3
8.723868847E2,-0.000000000E0,1.527161949E-4,2.901607659E-3
8.728910126E2,-3.970621154E-3,-0.000000000E0,2.748891478E-3
8.733951403E2,-5.803215317E-3,-3.054323839E-3,2.748891478E-3
8.738992678E2,4.581485991E-4,2.901607659E-3,1.069013379E-3
8.744033951E2,3.359756200E-3,2.901607659E-3,3.970621154E-3
8.749075224E2,4.581485991E-4,1.832594397E-3,4.581485875E-3
8.754116496E2,-1.679878100E-3,1.679878100E-3,4.276053514E-3
8.759157766E2,-1.069013379E-3,6.108647794E-4,4.886918236E-3
8.764199035E2,-3.665188793E-3,-2.138026757E-3,5.955931731E-3
8.769240301E2,-3.054323839E-3,-9.162971983E-4,5.192350596E-3
8.774281565E2,5.192350596E-3,2.596175298E-3,5.192350596E-3
8.779322827E2,1.679878100E-3,3.512472380E-3,3.817904973E-3
8.784364087E2,-2.138026757E-3,6.108647794E-4,8.246674202E-3
8.789405345E2,3.054323897E-4,1.832594397E-3,6.872228812E-3
8.794446601E2,-1.832594397E-3,1.527161920E-3,7.483093534E-3
8.799487853E2,1.069013379E-3,3.054323897E-4,9.162971750E-3
8.804529101E2,-4.886918236E-3,-1.374445739E-3,7.941242307E-3
8.809570346E2,-3.665188793E-3,-4.581485991E-4,8.857538924E-3
8.814611587E2,1.221729559E-3,3.054323839E-3,6.872228812E-3
8.819652825E2,3.665188793E-3,1.832594397E-3,1.267544460E-2
8.824694065E2,-9.162971983E-4,1.527161949E-4,1.114828233E-2
8.829735309E2,1.832594397E-3,2.748891478E-3,1.359174121E-2
8.834776557E2,-2.901607659E-3,3.054323839E-3,1.634063199E-2
8.839817808E2,-4.886918236E-3,4.581485991E-4,1.618791744E-2
8.844859060E2,-6.108647794E-4,-3.970621154E-3,1.328630932E-2
8.849900314E2,4.581485875E-3,7.635809598E-4,1.527161989E-2
8.854941574E2,2.138026757E-3,5.497782957E-3,1.832594350E-2
8.859982842E2,-3.817904973E-3,4.276053514E-3,1.695149764E-2
8.865024114E2,-5.955931731E-3,-1.069013379E-3,1.725693047E-2
8.870065387E2,1.160643063E-2,-5.039634649E-3,2.061668597E-2
8.875106659E2,-1.099556591E-2,-4.581485991E-4,2.290742844E-2
8.880147929E2,8.246674202E-3,2.138026757E-3,1.313359290E-2
8.885189195E2,-6.872228812E-3,-6.872228812E-3,2.122755162E-2
8.890230458E2,8.857538924E-3,3.970621154E-3,1.924224012E-2
8.895271719E2,1.527161949E-4,6.108647678E-3,1.481347065E-2
8.900313038E2,1.527161949E-4,5.192350596E-3,2.107483521E-2
8.905354232E2,-1.099556591E-2,8.704823442E-3,2.336557768E-2
8.910395483E2,1.679878100E-3,6.414080039E-3,2.000582218E-2
8.915436730E2,-7.024944760E-3,-9.162971983E-4,2.474002354E-2
8.920477973E2,4.123337101E-3,5.497782957E-3,1.527161989E-2
8.925519213E2,-9.773836471E-3,9.162971983E-4,2.672533318E-2
8.930560454E2,2.443459118E-3,9.010255337E-3,1.725693047E-2
8.935601696E2,-7.635809598E-4,9.162971983E-4,1.985310577E-2
8.940642943E2,3.359756200E-3,1.527161920E-3,2.703076601E-2
8.945684195E2,9.162971983E-4,1.527161949E-4,2.015853859E-2
8.950725454E2,-6.108647678E-3,5.192350596E-3,2.351829410E-2
8.955766717E2,-3.512472380E-3,-9.162971983E-4,2.351829410E-2
8.960807981E2,2.138026757E-3,4.276053514E-3,2.199113183E-2
8.965849244E2,-6.261364091E-3,1.145371422E-2,2.138026804E-2
8.970890509E2,-9.621120058E-3,2.748891478E-3,2.825249545E-2
8.975931777E2,-7.086031139E-2,6.658425927E-2,4.825831577E-2
8.980973049E2,-0.000000000E0,-6.872228812E-3,1.679878123E-2
8.986014327E2,1.221729536E-2,-4.581485875E-3,2.428187430E-2
8.991055610E2,9.162971750E-3,-1.221729536E-2,3.313941509E-2
8.996096896E2,-1.878409274E-2,1.221729559E-3,2.733619884E-2
9.001138181E2,6.108647794E-4,-1.679878100E-3,2.779434808E-2
9.006179461E2,1.970038936E-2,-1.069013402E-2,1.832594350E-2
9.011220737E2,6.765327603E-2,-1.863137633E-2,-3.359756200E-3
9.016262009E2,4.749473557E-2,-2.321286127E-2,4.581485875E-3
9.021303277E2,8.552107215E-2,-5.009091273E-2,-3.359756200E-3
9.026344541E2,5.604684353E-2,5.039634649E-3,3.756818548E-2
9.031385802E2,7.941242307E-2,-4.749473557E-2,-8.399390616E-3
9.036427059E2,2.191477418E-1,-7.422006875E-2,1.317940801E-1
9.041468316E2,4.841103405E-2,1.985310577E-3,-3.451386094E-2
9.046509576E2,1.038470119E-2,7.819069177E-2,-1.786779426E-2
9.051550838E2,4.123337101E-3,2.596175298E-3,1.679878100E-3
9.056592109E2,-4.810560122E-2,-4.886918236E-3,-4.886918236E-3
9.061633390E2,-1.389717404E-2,1.737910360E-1,-1.130099818E-1
9.066674683E2,-2.196058929E-1,5.513054505E-2,-5.085449293E-2
9.071715985E2,-7.513637096E-2,2.550360374E-2,-2.015853859E-2
9.076757297E2,4.718930274E-2,-1.200349256E-1,3.375028074E-2
9.081798618E2,-2.626718581E-2,1.527161920E-3,1.007926930E-2
9.086839947E2,-1.542433538E-2,7.483093534E-3,6.108647794E-4
9.091881280E2,1.817322709E-2,-1.007926930E-2,-2.901607659E-3
9.096922618E2,-1.221729559E-3,-1.832594397E-3,1.069013379E-3
9.101963956E2,-1.374445739E-3,1.679878100E-3,-1.679878100E-3
9.107005296E2,-1.069013379E-3,4.276053514E-3,-9.162971983E-4
9.112046636E2,-5.497782957E-3,-1.069013379E-3,-1.069013379E-3
9.117087977E2,-9.010255337E-3,4.428769462E-3,3.207040019E-3
9.122129321E2,-6.414080039E-3,-3.054323897E-4,-7.177661173E-3
9.127170666E2,1.175914705E-2,-1.679878100E-3,-6.261364091E-3
9.132212014E2,6.261364091E-3,-3.359756200E-3,-1.634063199E-2
9.137253367E2,2.901607659E-3,-6.108647678E-3,-7.635809947E-3
9.142294726E2,-2.748891478E-3,6.566796452E-3,-1.328630932E-2
9.147336090E2,-2.443459118E-3,3.512472380E-3,-1.328630932E-2
9.152377459E2,-2.000582218E-2,4.428769462E-3,-1.160643063E-2
9.157418831E2,5.497782957E-3,1.069013402E-2,-1.695149764E-2
9.162460206E2,1.527161949E-4,-2.901607659E-3,-6.414080039E-3
9.167501582E2,-7.177661173E-3,1.466075517E-2,-1.511890348E-2
9.172542959E2,-5.803215317E-3,4.734201822E-3,-1.023198478E-2
9.177584334E2,-2.901607659E-3,5.650499370E-3,-1.588248461E-2
9.182625706E2,-2.443459118E-3,4.276053514E-3,-1.007926930E-2
9.187667076E2,-3.970621154E-3,1.374445739E-3,-1.175914705E-2
9.192708444E2,1.374445739E-3,3.054323897E-4,-8.704823442E-3
9.197749810E2,-8.399390616E-3,5.650499370E-3,-1.710421406E-2
9.202791177E2,1.069013402E-2,-4.123337101E-3,-5.803215317E-3
9.207832543E2,-2.382372692E-2,1.618791744E-2,-1.970038936E-2
9.212873912E2,-6.414080039E-3,3.665188793E-3,-1.191186346E-2
9.217915282E2,-2.748891478E-3,-5.345067009E-3,-1.069013402E-2
9.222956651E2,2.748891478E-3,6.108647794E-4,-3.039052337E-2
9.227998017E2,-1.695149764E-2,-5.497782957E-3,-1.832594397E-3
9.233039381E2,-6.719512399E-3,-1.527161949E-4,-1.267544460E-2
9.238080742E2,-4.581485991E-4,3.207040019E-3,-8.399390616E-3
9.243122099E2,2.290742937E-3,-5.497782957E-3,-1.572976820E-2
9.248163453E2,9.162971983E-4,5.039634649E-3,-9.926552884E-3
9.253204802E2,-3.665188700E-2,2.611446939E-2,-7.635809947E-3
9.258246148E2,8.704823442E-3,1.221729559E-3,-1.175914705E-2
9.263287488E2,-2.015853859E-2,8.399390616E-3,-8.246674202E-3
9.268328825E2,-1.740964688E-2,3.817904973E-3,-1.664606482E-2
9.273370158E2,-4.276053514E-3,-3.970621154E-3,-8.246674202E-3
9.278411488E2,-6.414080039E-3,1.527161920E-3,-9.010255337E-3
9.283452815E2,-1.527161920E-3,-7.788525894E-3,-3.512472380E-3
9.288494139E2,5.039634649E-3,-1.313359290E-2,-6.261364091E-3
9.293535458E2,-1.038470119E-2,-9.162971983E-4,-1.664606482E-2
9.298576774E2,1.527161920E-3,-6.261364091E-3,-1.084284950E-2
9.303618086E2,-1.065959036E-1,9.865466505E-2,3.924806044E-2
9.308659396E2,-2.443459118E-3,-1.740964688E-2,-1.802051067E-2
9.313700704E2,-9.926552884E-3,-1.527161949E-4,-1.420260593E-2
9.318742012E2,-2.443459118E-3,-5.497782957E-3,-1.298087649E-2
9.323783321E2,4.581485875E-3,-8.857538924E-3,-1.221729536E-2
9.328824630E2,3.054323897E-4,-5.803215317E-3,-1.298087649E-2
9.333865940E2,-9.162971983E-4,-9.162971750E-3,-1.130099874E-2
9.338907251E2,-1.679878100E-3,-3.970621154E-3,-8.093958721E-3
9.343948561E2,4.428769648E-2,-1.802051067E-2,-1.786779426E-2
9.348989868E2,-1.130099874E-2,6.566796452E-3,-1.832594397E-3
9.354031176E2,-1.160643063E-2,1.267544460E-2,-1.114828233E-2
9.359072483E2,-7.177661173E-3,1.695149764E-2,-9.010255337E-3
9.364113791E2,-1.206457894E-2,1.007926930E-2,-4.886918236E-3
9.369155099E2,-1.175914705E-2,9.162971983E-4,-9.468403645E-3
9.374196408E2,6.414080039E-3,3.207040019E-3,-1.038470119E-2
9.379237715E2,-1.053741761E-2,-2.443459118E-3,-1.130099874E-2
9.384279019E2,1.374445739E-3,1.069013379E-3,-1.970038936E-2
9.389320323E2,-1.069013379E-3,2.443459118E-3,-6.872228812E-3
9.394361623E2,4.581485991E-4,9.162971983E-4,-8.246674202E-3
9.399402920E2,-3.207040019E-3,-4.123337101E-3,-7.024944760E-3
9.404444214E2,-4.581485875E-3,-2.901607659E-3,2.138026757E-3
9.409485506E2,-9.621120058E-3,3.665188793E-3,3.665188793E-3
9.414526794E2,-9.468403645E-3,1.985310577E-3,-3.817904973E-3
9.419568081E2,-3.665188793E-3,4.428769462E-3,4.886918236E-3
9.424609367E2,-7.895427197E-2,1.255327165E-1,4.138609022E-2
9.429650651E2,5.039634649E-3,-1.374445739E-3,-1.695149764E-2
9.434691935E2,9.773836471E-3,-8.704823442E-3,7.635809598E-4
9.439733217E2,-2.015853859E-2,1.542433538E-2,-7.177661173E-3
9.444774500E2,2.321286127E-2,-1.511890348E-2,-5.192350596E-3
9.449815780E2,-1.557705179E-2,-1.359174121E-2,-3.359756200E-3
9.454857060E2,-2.809977904E-2,1.481347065E-2,1.313359290E-2
9.459898340E2,-1.053741761E-2,1.069013379E-3,-3.054323897E-4
9.464939619E2,1.221729536E-2,1.679878100E-3,2.748891478E-3
9.469980898E2,-3.298669681E-2,1.267544460E-2,-1.832594397E-3
9.475022175E2,6.566796452E-3,2.596175298E-3,1.985310577E-3
9.480063450E2,-1.374445739E-3,2.443459118E-3,1.221729559E-3
9.485104724E2,1.527161949E-4,7.330377586E-3,-6.261364091E-3
9.490145996E2,-5.497782957E-3,3.817904973E-3,-7.177661173E-3
9.495187265E2,-9.315688163E-3,1.191186346E-2,-0.000000000E0
9.500228534E2,-2.596175298E-3,6.414080039E-3,-3.665188793E-3
9.505269810E2,6.414080039E-3,2.443459118E-3,-1.679878100E-3
9.510311093E2,-3.909534588E-2,6.475166976E-2,2.977965772E-2
9.515352384E2,1.985310577E-3,1.191186346E-2,-1.099556591E-2
9.520393680E2,-5.955931731E-3,-7.788525894E-3,6.108647794E-4
9.525434980E2,-2.596175298E-3,-2.748891478E-3,-5.650499370E-3
9.530476285E2,-1.130099874E-2,4.428769462E-3,1.069013379E-3
9.535517590E2,-2.596175298E-3,5.650499370E-3,-3.054323897E-4
9.540558895E2,-1.985310577E-3,2.138026757E-3,3.054323897E-4
9.545600200E2,6.261364091E-3,-3.207040019E-3,-2.596175298E-3
9.550641503E2,9.621120058E-3,-7.635809947E-3,-2.596175298E-3
9.555682803E2,9.162971983E-4,-2.748891478E-3,-1.221729559E-3
9.560724101E2,-6.872228812E-3,4.276053514E-3,-1.527161949E-4
9.565765396E2,-9.315688163E-3,1.221729559E-3,-6.108647794E-4
9.570806689E2,-1.221729559E-3,1.832594397E-3,-1.221729559E-3
9.575847980E2,4.734201822E-3,-1.527161949E-4,1.221729559E-3
9.580889270E2,1.069013379E-3,-1.221729559E-3,3.054323839E-3
9.585930558E2,3.359756200E-3,-3.054323839E-3,1.527161920E-3
9.590971843E2,-2.290742937E-3,0.000000000E0,3.970621154E-3
9.596013126E2,-5.955931731E-3,-3.054323839E-3,-4.581485991E-4
9.601054405E2,-4.581485991E-4,-4.581485875E-3,-3.054323897E-4
9.606095682E2,1.527161949E-4,1.832594397E-3,7.635809947E-3
9.611136958E2,4.581485991E-4,-2.138026757E-3,5.345067009E-3
9.616178231E2,3.054323897E-4,-1.985310577E-3,3.054323839E-3
9.621219503E2,3.665188793E-3,4.581485991E-4,7.635809598E-4
9.626260772E2,-9.162971983E-4,-4.734201822E-3,3.970621154E-3
9.631302038E2,-7.024944760E-3,-4.581485875E-3,-9.162971983E-4
9.636343299E2,1.374445739E-3,-7.635809947E-3,-2.901607659E-3
9.641384566E2,2.138026757E-3,2.748891478E-3,4.581485875E-3
9.646425837E2,4.276053514E-3,-7.635809598E-4,2.596175298E-3
9.651467111E2,1.832594397E-3,-1.221729559E-3,-4.581485991E-4
9.656508387E2,2.138026757E-3,6.108647794E-4,-1.221729559E-3
9.661549667E2,-3.512472380E-3,1.374445739E-3,3.054323897E-4
9.666590946E2,-1.527161949E-4,-5.650499370E-3,-3.817904973E-3
9.671632226E2,9.926552884E-3,-8.093958721E-3,-4.581485991E-4
9.676673505E2,2.596175298E-3,3.054323897E-4,3.970621154E-3
9.681714786E2,1.221729559E-3,-3.665188793E-3,4.581485991E-4
9.686756069E2,2.138026757E-3,-3.054323897E-4,3.054323897E-4
9.691797355E2,-6.108647794E-4,1.679878100E-3,1.527161949E-4
9.696838645E2,-3.207040019E-3,-2.290742937E-3,-3.665188793E-3
9.701879937E2,-6.108647794E-4,-5.497782957E-3,-3.970621154E-3
9.706921233E2,3.207040019E-3,4.886918236E-3,3.359756200E-3
9.711962531E2,7.483093534E-3,3.512472380E-3,4.581485991E-4
9.717003831E2,2.443459118E-3,3.054323897E-4,-1.679878100E-3
9.722045134E2,5.955931731E-3,-6.108647794E-4,-2.290742937E-3
9.727086440E2,8.552107029E-3,-1.527161920E-3,-3.359756200E-3
9.732127749E2,-6.261364091E-3,-1.527161989E-2,-1.130099874E-2
9.737169062E2,6.108647794E-4,-8.857538924E-3,-2.443459118E-3
9.742210381E2,1.237001177E-2,-1.221729559E-3,2.901607659E-3
9.747251703E2,2.443459118E-3,-3.359756200E-3,-9.162971983E-4
9.752293029E2,6.261364091E-3,-6.108647678E-3,-1.832594397E-3
9.757334360E2,6.566796452E-3,-7.941242307E-3,-3.817904973E-3
9.762375693E2,1.664606482E-2,-2.733619884E-2,-1.298087649E-2
9.767417027E2,8.307760954E-2,-8.429934084E-2,-2.489273995E-2
9.772458361E2,2.687804960E-2,-1.939495653E-2,-3.359756200E-3
9.777499699E2,1.206457894E-2,-6.414080039E-3,1.374445739E-3
9.782541040E2,1.023198478E-2,-1.114828233E-2,-1.527161949E-4
9.787582381E2,9.514218569E-2,-2.467893660E-1,3.848448023E-2
9.792623721E2,1.542433500E-1,2.443459118E-3,1.664606482E-2
9.797665060E2,1.826485693E-1,-9.773836471E-3,1.649334840E-2
9.802706400E2,1.385135949E-1,3.252854943E-2,3.054323979E-2
9.807747742E2,7.788526267E-2,-3.176496923E-2,-2.138026757E-3
9.812789084E2,-8.857538924E-3,-1.970038936E-2,1.374445762E-2
9.817830428E2,6.261364091E-3,-8.399390616E-3,9.773836471E-3
9.822871769E2,2.290742937E-3,-2.748891478E-3,4.428769462E-3
9.827913109E2,-2.596175298E-3,-1.832594397E-3,3.665188793E-3
9.832954445E2,2.748891478E-3,-1.985310577E-3,1.527161920E-3
9.837995777E2,1.832594397E-3,-4.581485875E-3,4.428769462E-3
9.843037105E2,1.374445739E-3,-1.679878100E-3,3.054323839E-3
9.848078430E2,2.443459118E-3,-0.000000000E0,1.374445739E-3
9.853119752E2,9.162971983E-4,-4.428769462E-3,5.650499370E-3
9.858161068E2,-4.581485991E-4,1.175914705E-2,-1.191186346E-2
9.863202381E2,1.527161949E-4,-1.634063199E-2,1.069013402E-2
9.868243690E2,-1.221729559E-3,-1.160643063E-2,8.399390616E-3
9.873284996E2,-1.679878100E-3,-4.276053514E-3,3.817904973E-3
9.878326299E2,5.039634649E-3,-1.221729559E-3,-1.527161949E-4
9.883367601E2,3.207040019E-3,3.054323897E-4,3.054323897E-4
9.888408900E2,-3.512472380E-3,-6.719512399E-3,4.123337101E-3
