"Time (s)","Linear Acceleration x (m/s^2)","Linear Acceleration y (m/s^2)","Linear Acceleration z (m/s^2)"
4.504590800E-2,2.279947698E-1,1.139388084E-1,-8.656978607E-2
2.466673140E-1,5.716802478E-1,-2.309846878E-1,2.280225754E-1
7.466673140E-1,-6.800054312E-1,5.049228668E-1,-7.366714478E-1
1.246667314E0,4.998805523E-1,2.158112526E-1,-3.209352493E-1
1.746667314E0,-9.577365220E-2,2.888083458E-1,-1.972751617E-1
2.246667314E0,2.603508532E-2,-1.731252670E-2,-3.783226013E-3
2.746667314E0,-1.207541227E-1,-5.740356445E-2,-2.078390121E-1
3.246667314E0,-6.103354692E-2,1.144189835E-1,1.898288727E-2
3.746667314E0,6.618386507E-1,6.766982079E-1,-6.525564194E-1
4.246667314E0,9.221384525E-1,3.191490173E-1,-1.776361465E-1
4.746667314E0,-2.871176600E-2,2.148509026E-1,-1.814794540E-1
5.246667314E0,3.776952624E-2,2.262725830E-1,-1.571893692E-1
5.746667314E0,5.408300459E-2,-8.016872406E-2,1.080656052E-1
6.246667314E0,-5.543398857E-2,1.725864410E-2,-3.572273254E-2
6.746667314E0,7.784859091E-2,9.825611115E-2,-1.358575821E-1
7.246667314E0,3.645373881E-1,6.230401993E-2,-1.383285522E-1
7.746667314E0,3.617696762E-1,1.009235382E-1,-1.922035217E-2
8.246667314E0,-3.439722061E-1,1.371622086E-2,2.308454514E-1
8.746667314E0,1.066949129E0,8.429574966E-2,1.460828781E-1
9.246667314E0,9.409770966E-1,1.129450798E-1,-8.499717712E-2
9.746667314E0,4.908090830E-1,1.142511368E-1,-8.521556854E-2
1.024666731E1,7.868695259E-2,-5.701828003E-2,8.856868744E-2
1.074666731E1,6.969237328E-2,-1.157970428E-1,6.958484650E-2
1.124666731E1,1.546876431E-1,4.697136879E-1,-3.435029984E-1
1.174666731E1,5.750846863E-2,-1.242089272E-1,1.860332489E-2
1.224666731E1,1.713941097E-1,-1.164374352E-1,-5.946254730E-2
1.274666731E1,8.944749832E-2,-1.561977863E-1,-2.799129486E-2
1.324666731E1,-3.041982651E-3,-1.531147957E-1,2.822589874E-2
1.374666731E1,7.509636879E-2,-4.935956001E-2,4.143428802E-2
1.424666731E1,2.408504486E-3,-1.220965385E-2,1.066017151E-2
1.474666731E1,7.884740829E-2,-7.977557182E-2,3.411960602E-2
1.524666731E1,-7.447743416E-2,5.089712143E-2,-1.553630829E-2
1.574666731E1,1.552486420E-2,-1.243090630E-2,9.480762482E-2
1.624666731E1,5.987644196E-3,-4.797220230E-3,2.357482910E-3
1.674666731E1,-8.657649159E-1,1.715068817E-1,8.194732666E-2
1.724666731E1,-7.753440738E-1,2.494220734E-1,-3.061389923E-2
1.774666731E1,4.063421488E-1,6.714630127E-2,-2.947216034E-1
1.824666731E1,-1.257607222E0,8.390641212E-2,1.748418808E-1
1.874666731E1,-5.704498887E-1,1.082682610E-2,3.218936920E-2
1.924666731E1,-5.187420845E-1,3.263092041E-2,6.712055206E-2
1.974666731E1,-2.418584228E-1,1.074624062E-2,2.243900299E-2
2.024666731E1,-4.480320215E-2,4.668712616E-3,-5.985260010E-3
2.074666731E1,-3.302520514E-2,1.510953903E-2,-1.935768127E-2
2.124666731E1,-4.939436913E-4,6.794929504E-4,-5.685806274E-3
2.174666731E1,1.487249136E-2,-1.954913139E-2,-9.547233582E-3
2.224666731E1,-2.049938440E-1,1.599144936E-2,2.658367157E-2
2.274666731E1,-1.920299381E-1,-1.012969017E-1,5.470371246E-2
2.324666731E1,1.012718976E-1,3.736710548E-2,-1.920223236E-2
2.374666731E1,6.308904290E-2,1.253604889E-3,-9.857177734E-3
2.424666731E1,7.987946272E-3,-2.902865410E-2,2.166557312E-2
2.474666731E1,1.177507639E-2,2.315831184E-2,-2.019977570E-2
2.524666731E1,4.620727897E-2,-1.147508621E-3,9.510993958E-3
2.574666731E1,-1.165920496E-2,-1.158738136E-2,-1.944541931E-3
2.624666731E1,1.121128798E-1,-1.534636021E-1,5.787086487E-2
2.674666731E1,6.381309032E-2,8.491516113E-2,-6.099605560E-2
2.724666731E1,1.750093699E-2,3.314614296E-2,-6.172180176E-3
2.774666731E1,-2.774178982E-3,4.824376106E-2,3.160476685E-3
2.824666731E1,-3.559488058E-2,-2.743721008E-3,-8.344650269E-3
2.874666731E1,-9.174826741E-2,2.349901199E-2,-2.347087860E-2
2.924666731E1,-7.489886880E-2,1.132369041E-2,2.341747284E-2
2.974666731E1,-9.018272161E-3,-4.535913467E-3,6.580352783E-5
3.024666731E1,-5.793690681E-3,-1.487469673E-2,2.284908295E-2
3.074666731E1,-1.428091526E-2,-2.087497711E-2,-3.189468384E-2
3.124666731E1,-1.087805629E-2,-9.824752808E-3,-6.814861298E-2
3.174666731E1,1.679033041E-2,1.805520058E-2,-5.763912201E-2
3.224666731E1,-2.244254947E-2,-1.390194893E-2,-9.436416626E-2
3.274666731E1,1.103603840E-2,1.049351692E-2,-1.021194458E-2
3.324666731E1,-1.633894444E-2,-2.614259720E-3,4.285907745E-2
3.374666731E1,-7.872472703E-2,-3.699040413E-2,-5.873680115E-3
3.424666731E1,-1.096443236E-1,-1.823520660E-2,4.692363739E-2
3.474666731E1,3.507219255E-2,8.094310760E-4,-5.321407318E-2
3.524666731E1,4.326392710E-2,-3.206467628E-2,7.483482361E-3
3.574666731E1,-3.591328859E-3,1.662111282E-2,4.987525940E-2
3.624666731E1,-5.860389769E-2,1.377892494E-2,7.654190063E-3
3.674666731E1,1.273740828E-1,1.709258556E-1,-1.550893784E-1
3.724666731E1,4.294067621E-3,3.393697739E-2,1.541709900E-2
3.774666731E1,-2.152633667E-2,-3.755164146E-2,2.036857605E-2
3.824666731E1,1.196968555E-2,-3.366065025E-2,-1.265144348E-2
3.874666731E1,-2.045780420E-2,-3.992342949E-2,3.422069550E-2
3.924666731E1,1.237879395E-1,-7.830023766E-2,-2.163505554E-2
3.974666731E1,-2.630844712E-2,-1.504421234E-3,-7.553577423E-2
4.024666731E1,-1.165173948E-1,-1.038439274E-1,-3.878688812E-2
4.074666731E1,-1.468530893E-1,-1.987767220E-2,5.177593231E-2
4.124666731E1,5.792150497E-1,-1.725554466E-2,-1.211738586E-1
4.174666731E1,3.503211141E-1,-1.619577408E-3,-7.271385193E-2
4.224666731E1,-7.105785608E-2,2.330565453E-2,3.372192383E-3
4.274666731E1,-7.559299469E-3,2.787733078E-2,6.227493286E-4
4.324666731E1,-4.148954153E-2,3.643608093E-2,-1.118373871E-2
4.374666731E1,-1.686471701E-2,3.774046898E-2,-5.310153961E-2
4.424666731E1,5.206221342E-2,1.337170601E-2,3.935813904E-3
4.474666731E1,-1.299077272E-2,1.735401154E-2,2.236843109E-2
4.524666731E1,-1.378387213E-2,-3.980517387E-2,1.517105103E-2
4.574666731E1,-1.680791378E-2,-2.923893929E-2,6.728172302E-3
4.624666731E1,-3.689032793E-2,4.224944115E-2,-4.318141937E-2
4.674666731E1,2.596378326E-4,2.462077141E-2,-5.760192871E-4
4.724666731E1,1.470595598E-2,-2.595186234E-2,-7.801246643E-2
4.774666731E1,4.001510143E-2,-4.815554619E-2,-5.455684662E-2
4.824666731E1,2.153819799E-2,-1.395535469E-2,4.634952545E-2
4.874666731E1,-8.501529694E-3,-1.526141167E-2,6.434440613E-3
4.924666731E1,-6.475389004E-3,-6.565332413E-3,1.438808441E-2
4.974666731E1,-1.188260317E-2,-6.562709808E-3,7.162094116E-4
5.024666731E1,1.116198301E-2,1.656079292E-2,-1.302528381E-2
5.074666731E1,-2.626419067E-3,-2.292037010E-2,3.233528137E-2
5.124666731E1,-3.567397594E-2,-1.085019112E-2,-5.810070038E-2
5.174666731E1,1.303535700E-2,6.865739822E-3,1.006412506E-2
5.224666731E1,-2.665877342E-3,-1.308226585E-2,-4.765987396E-2
5.274666731E1,-3.474473953E-3,-1.246905327E-2,1.443195343E-2
5.324666731E1,-4.515510798E-2,-1.083748341E-1,4.543781281E-2
5.374666731E1,4.078299999E-1,2.312858105E-1,8.009052277E-2
5.424666731E1,4.495829344E-2,9.987854958E-2,2.174472809E-2
5.474666731E1,1.447099447E-2,9.572029114E-3,-1.576423645E-3
5.524666731E1,-6.586408615E-2,1.081442833E-2,-4.441642761E-2
5.574666731E1,2.344799042E-2,4.179573059E-2,-2.318954468E-2
5.624666731E1,1.440447569E-2,-1.179313660E-2,-8.627891541E-3
5.674666731E1,-4.635870457E-2,-4.029011726E-2,1.374177933E-1
5.724666731E1,3.349274397E-2,-1.920938492E-3,4.449653625E-2
5.774666731E1,-1.789921522E-2,-3.629016876E-2,-1.712226868E-2
5.824666731E1,8.057773113E-3,2.548956871E-2,3.811168671E-2
5.874666731E1,-2.052783966E-4,-7.671117783E-3,-4.990577698E-3
5.924666731E1,-3.593856096E-2,-3.927063942E-2,1.847648621E-2
5.974666731E1,4.602777958E-2,7.267236710E-3,-2.851581573E-2
6.024666731E1,-1.649516821E-2,1.312804222E-2,-1.900863647E-2
6.074666731E1,2.282631397E-2,-8.158683777E-3,-2.136039734E-2
6.124666731E1,5.628478527E-2,4.507780075E-3,3.165149689E-2
6.174666731E1,5.994319916E-3,8.605241776E-3,-2.532005310E-2
6.224666731E1,-1.276731491E-4,-5.126953125E-3,1.005458832E-2
6.274666731E1,-4.063576460E-2,-1.065945625E-2,1.014804840E-2
6.324666731E1,2.145016193E-2,-1.669406891E-3,1.740837097E-2
6.374666731E1,3.854393959E-3,-3.929853439E-3,-2.034187317E-3
6.424666731E1,-1.671588421E-2,-2.400541306E-2,5.016231537E-2
6.474666731E1,8.090150356E-2,-3.164458275E-2,6.983184814E-2
6.524666731E1,7.774221897E-2,1.534059048E-1,-9.394168854E-2
6.574666731E1,-8.501684666E-2,6.047320366E-2,-7.392883301E-3
6.624666731E1,4.083225131E-1,-1.668660641E-1,-2.450942993E-4
6.674666731E1,-5.740070939E-1,2.125234604E-1,-8.053684235E-2
6.724666731E1,2.186241150E-1,-1.014947891E-3,-4.422950745E-2
6.774666731E1,3.046762943E-2,3.796076775E-2,-7.009601593E-2
6.824666731E1,8.651500940E-2,6.903171539E-3,1.490688324E-2
6.874666731E1,-8.019268513E-3,3.528857231E-2,1.013278961E-2
6.924666731E1,-2.294200659E-2,7.570743561E-3,4.006576538E-2
6.974666731E1,-3.067821264E-2,2.003002167E-2,-2.477645874E-3
7.024666731E1,1.609623432E-3,-7.976531982E-3,-1.344776154E-2
7.074666731E1,1.682156324E-2,2.560281754E-2,-1.568126678E-2
7.124666731E1,1.402610540E-2,-2.223253250E-2,1.370716095E-2
7.174666731E1,2.813041210E-3,2.563929558E-2,-1.999378204E-2
7.224666731E1,7.614672184E-3,-3.811335564E-2,3.683376312E-2
7.274666731E1,7.425010204E-3,-1.372170448E-2,3.454208374E-3
7.324666731E1,-4.654288292E-3,-3.696227074E-2,2.404117584E-2
7.374666731E1,2.250611782E-3,-5.782127380E-3,1.439189911E-2
7.424666731E1,-2.545654774E-3,3.370046616E-3,-7.028579712E-4
7.474666731E1,2.461135387E-3,1.240491867E-3,3.235816956E-3
7.524666731E1,6.003439426E-3,1.714777946E-2,-8.418083191E-3
7.574666731E1,-6.993114948E-3,1.231050491E-2,-6.921768188E-3
7.624666731E1,-3.870129585E-4,-1.625013351E-2,1.032352448E-2
7.674666731E1,-1.737385988E-2,-3.013467789E-2,1.073360443E-2
7.724666731E1,-9.246706963E-3,-9.047579765E-2,1.759719849E-2
7.774666731E1,2.272009850E-3,9.464502335E-3,9.341239929E-3
7.824666731E1,1.882159710E-2,1.101899147E-2,-7.596015930E-3
7.874666731E1,-3.357785940E-2,9.972167015E-2,-4.961299896E-2
7.924666731E1,3.981292248E-3,-2.633857727E-2,3.021430969E-2
7.974666731E1,1.005589962E-2,-5.580019951E-2,1.080513000E-3
8.024666731E1,-2.357125282E-2,3.094911575E-2,-7.037162781E-3
8.074666731E1,7.057785988E-3,3.930640221E-2,-4.141426086E-2
8.124666731E1,1.438379288E-2,-7.226753235E-2,4.649829865E-2
8.174666731E1,2.743780613E-3,-5.135273933E-2,1.787662506E-2
8.224666731E1,4.665809870E-2,-2.181053162E-2,1.395893097E-2
8.274666731E1,-2.324742079E-1,8.357167244E-2,-7.596015930E-3
8.324666731E1,-2.353823334E-1,7.548022270E-2,-9.943962097E-3
8.374666731E1,-7.326421142E-2,-2.447533607E-2,1.586437225E-2
8.424666731E1,-8.699935675E-2,9.269237518E-3,-3.334236145E-2
8.474666731E1,-1.931509376E-2,8.133649826E-3,1.401424408E-2
8.524666731E1,-1.714310050E-2,2.177405357E-2,-8.771991730E-2
8.574666731E1,2.080457956E-1,-1.493499279E-1,4.848957062E-2
8.624666731E1,3.867610991E-1,2.724933624E-2,-7.856655121E-2
8.674666731E1,1.022250056E-1,4.995632172E-2,-5.025386810E-2
8.724666731E1,6.502854824E-2,2.694296837E-2,-3.587722778E-3
8.774666731E1,4.019862413E-2,-2.080512047E-2,-1.027774811E-2
8.824666731E1,-9.892493486E-3,-4.314994812E-2,7.111549377E-3
8.874666731E1,-2.658635378E-2,8.182692528E-2,-9.154891968E-2
8.924666731E1,1.898318529E-3,9.104967117E-3,8.545017242E-2
8.974666731E1,2.689301968E-3,-7.927799225E-2,8.491992950E-2
9.024666731E1,3.761607409E-2,2.724020481E-1,-1.283998489E-1
9.074666731E1,4.886418581E-3,-8.568429947E-2,7.955074310E-2
9.124666731E1,-1.211586595E-2,-2.903389931E-2,9.164810181E-3
9.174666731E1,1.505970955E-3,-9.256601334E-3,4.026031494E-2
9.224666731E1,-5.048334599E-3,2.807354927E-2,-1.429557800E-2
9.274666731E1,5.003839731E-3,-2.541637421E-2,-7.011413574E-3
9.324666731E1,-3.943559527E-2,-2.760454416E-1,7.984828949E-2
9.374666731E1,-3.310805559E-2,2.053020000E-1,-8.013439178E-2
9.424666731E1,3.698962927E-2,3.051757812E-5,-2.506542206E-2
9.474666731E1,-3.847777843E-4,2.771687508E-2,-4.032421112E-2
9.524666731E1,-2.358108759E-2,-4.465913773E-2,-3.061008453E-2
9.574666731E1,-1.757264137E-3,-3.243660927E-2,2.934932709E-2
9.624666731E1,-9.810152650E-2,-1.189947128E-1,1.281042099E-1
9.674666731E1,-2.787715197E-2,-1.675379276E-1,8.569431305E-2
9.724666731E1,6.467455626E-2,1.113758087E-1,-5.692768097E-2
9.774666731E1,1.192003489E-2,7.820296288E-2,-5.506038666E-2
9.824666731E1,5.807280540E-4,2.383470535E-2,-1.137256622E-2
9.874666731E1,-2.796149254E-2,-5.261921883E-2,-1.704216003E-3
9.924666731E1,3.088301420E-2,3.545117378E-2,-3.769969940E-2
9.974666731E1,8.825600147E-3,-1.839947701E-2,-2.345371246E-2
1.002466673E2,3.260016441E-3,5.960917473E-2,1.161479950E-2
1.007466673E2,-8.055508137E-3,-2.916479111E-2,1.565456390E-2
1.012466673E2,-5.565345287E-3,2.431869507E-3,-2.964115143E-2
1.017466673E2,6.113052368E-3,4.765748978E-3,5.315494537E-2
1.022466673E2,1.035503149E-1,-1.478695869E-1,3.145885468E-2
1.027466673E2,-6.145846844E-2,1.424882412E-1,-4.939079285E-2
1.032466673E2,-1.708920300E-1,-2.450823784E-2,2.936458588E-2
1.037466673E2,-1.331794262E-2,-1.999940872E-1,8.124065399E-2
1.042466673E2,4.702306390E-1,1.726028919E-1,-1.088047028E-1
1.047466673E2,-5.427539349E-3,-3.269553185E-2,2.550792694E-2
1.052466673E2,-1.833629608E-2,-1.231288910E-2,-2.681732178E-3
1.057466673E2,-4.931390285E-3,1.618027687E-3,-1.344490051E-2
1.062466673E2,6.666243076E-3,2.086758614E-2,-1.916980743E-2
1.067466673E2,7.779061794E-3,-3.322076797E-2,-1.066303253E-2
1.072466673E2,1.018595695E-2,1.241433620E-2,-1.209354401E-2
1.077466673E2,5.718171597E-3,6.077885628E-3,2.136993408E-2
1.082466673E2,3.037869930E-3,4.463553429E-3,-3.205299377E-3
1.087466673E2,1.565039158E-3,-2.567410469E-3,6.209373474E-3
1.092466673E2,-1.394993067E-2,-1.739192009E-2,-1.497459412E-2
1.097466673E2,-8.848309517E-4,-1.434063911E-2,-9.644508362E-3
1.102466673E2,4.840195179E-3,-1.149463654E-2,2.633094788E-3
1.107466673E2,-1.092332602E-2,-2.835559845E-2,-1.685810089E-2
1.112466673E2,2.932310104E-3,1.107418537E-2,-1.483631134E-2
1.117466673E2,1.945531368E-2,1.181542873E-2,-5.854606628E-3
1.122466673E2,-1.700502634E-2,7.224440575E-3,-2.755832672E-2
1.127466673E2,9.015738964E-3,-2.544522285E-3,-8.224487305E-3
1.132466673E2,-1.133620739E-3,5.867719650E-3,4.275321960E-3
1.137466673E2,5.907833576E-3,-2.367007732E-2,-8.182525635E-3
1.142466673E2,-8.538424969E-3,-4.880428314E-3,3.790855408E-3
1.147466673E2,-4.703700542E-3,1.216626167E-2,2.407550812E-2
1.152466673E2,6.134927273E-3,1.910030842E-2,1.970767975E-2
1.157466673E2,2.968490124E-3,-1.745188236E-2,-1.916885376E-4
1.162466673E2,1.710331440E-2,1.386380196E-2,8.598327637E-3
1.167466673E2,-6.675064564E-3,1.681041718E-2,-8.702278137E-3
1.172466673E2,8.564591408E-4,-6.213665009E-3,2.250766754E-2
1.177466673E2,-5.205273628E-3,-1.101315022E-2,9.892463684E-3
1.182466673E2,-2.126038074E-3,9.833335876E-3,4.931735992E-2
1.187466673E2,1.211404800E-3,-2.709329128E-2,-3.072834015E-2
1.192466673E2,1.554530859E-2,2.473580837E-2,4.436492920E-3
1.197466673E2,-1.294046640E-2,-4.195570946E-3,-6.811141968E-3
1.202466673E2,-3.217577934E-3,1.179206371E-2,4.412937164E-2
1.207466673E2,-2.690732479E-3,8.372187614E-3,-4.037857056E-3
1.212466673E2,4.127323627E-3,1.317036152E-2,3.061389923E-2
1.217466673E2,4.536211491E-3,7.827520370E-3,3.782749176E-2
1.222466673E2,1.610326767E-2,-3.340125084E-2,-3.303527832E-2
1.227466673E2,1.173478365E-2,8.131146431E-3,1.325893402E-2
1.232466673E2,3.996491432E-3,-1.190435886E-2,-1.237773895E-2
1.237466673E2,-1.008266211E-2,-2.470135689E-2,7.941246033E-3
1.242466673E2,-1.811975241E-2,5.864143372E-3,-7.025718689E-3
1.247466673E2,8.987247944E-3,-2.734780312E-3,3.085994720E-2
1.252466673E2,6.378591061E-3,-1.282489300E-2,1.092910767E-2
1.257466673E2,8.533656597E-3,-1.798331738E-2,-3.266811371E-2
1.262466673E2,9.526431561E-3,-8.010029793E-3,3.385257721E-2
1.267466673E2,-1.821970940E-2,-6.909132004E-3,1.356792450E-2
1.272466673E2,1.152676344E-2,1.027524471E-2,2.612590790E-2
1.277466673E2,-1.291632652E-4,-1.238465309E-3,4.085445404E-2
1.282466673E2,-8.175671101E-3,7.977128029E-3,6.335258484E-3
1.287466673E2,1.977682114E-4,-1.166260242E-2,-2.772426605E-2
1.292466673E2,2.313560247E-2,2.590811253E-2,-2.075862885E-2
1.297466673E2,-1.209330559E-2,-1.231873035E-2,2.869129181E-2
1.302466673E2,5.869090557E-3,6.528496742E-3,4.074954987E-2
1.307466673E2,-1.017612219E-2,4.176616669E-3,-9.269714355E-3
1.312466673E2,-1.146572828E-2,1.702344418E-2,-2.880096436E-3
1.317466673E2,-1.753747463E-3,4.372835159E-3,7.019042969E-3
1.322466673E2,-5.538284779E-3,-1.953184605E-2,-9.748458862E-3
1.327466673E2,-1.327949762E-2,-1.241457462E-2,-6.108283997E-3
1.332466673E2,1.728487015E-2,1.218056679E-2,1.529598236E-2
1.337466673E2,-1.722675562E-2,-4.452586174E-3,8.912086487E-3
1.342466673E2,-1.532495022E-3,-1.017963886E-2,-3.582477570E-2
1.347466673E2,-8.835136890E-3,2.060306072E-2,5.726814270E-3
1.352466673E2,-1.106774807E-2,2.136826515E-3,-2.799415588E-2
1.357466673E2,1.738011837E-3,-3.726673126E-2,3.512954712E-2
1.362466673E2,1.969575882E-3,7.948040962E-3,-1.443004608E-2
1.367466673E2,-2.918779850E-3,1.403689384E-3,3.363609314E-3
1.372466673E2,-1.682424545E-2,-9.639263153E-4,2.905082703E-2
1.377466673E2,-1.192843914E-2,-4.962801933E-3,-1.826286316E-3
1.382466673E2,-5.423277617E-2,3.000009060E-2,9.519577026E-3
1.387466673E2,2.116686106E-2,-4.056024551E-2,2.279949188E-2
1.392466673E2,2.289623022E-2,-8.767843246E-3,1.889038086E-2
1.397466673E2,1.508450508E-2,1.109373569E-2,-1.238632202E-2
1.402466673E2,-5.985915661E-3,1.236259937E-2,3.120422363E-2
1.407466673E2,-8.646070957E-3,3.056788445E-2,1.653957367E-2
1.412466673E2,-1.037222147E-2,-3.763794899E-3,-1.669979095E-2
1.417466673E2,4.417717457E-3,-3.139770031E-2,-7.582664490E-3
1.422466673E2,-1.945674419E-3,5.519986153E-3,-1.146411896E-2
1.427466673E2,1.456230879E-2,1.098632812E-2,9.276390076E-3
1.432466673E2,-7.776618004E-3,7.303953171E-4,-1.727008820E-2
1.437466673E2,-2.097213268E-2,1.583993435E-2,2.415657043E-2
1.442466673E2,-9.217262268E-3,-9.099960327E-3,6.455421448E-3
1.447466673E2,8.160233498E-3,-1.815164089E-2,5.600929260E-3
1.452466673E2,-1.467227936E-3,2.303123474E-4,-3.175735474E-4
1.457466673E2,6.327092648E-3,2.640604973E-2,2.727508545E-4
1.462466673E2,-8.388698101E-3,-7.684111595E-3,-2.481746674E-2
1.467466673E2,-1.395589113E-2,-9.282112122E-3,-3.428459167E-3
1.472466673E2,-4.247963428E-3,1.083505154E-2,-2.641010284E-2
1.477466673E2,-2.639532089E-3,2.399706841E-2,3.089904785E-4
1.482466673E2,1.961171627E-3,-3.135466576E-2,-2.895450592E-2
1.487466673E2,-2.178788185E-2,2.095818520E-3,2.517223358E-2
1.492466673E2,-1.191616058E-3,-1.817023754E-2,3.678321838E-3
1.497466673E2,6.826996803E-3,2.671408653E-2,-1.278114319E-2
1.502466673E2,-1.025480032E-2,-1.801764965E-2,1.611995697E-2
1.507466673E2,6.693053246E-2,3.854930401E-2,1.617813110E-2
1.512466673E2,1.341944933E-2,-8.267164230E-4,2.974510193E-3
1.517466673E2,2.654272318E-2,-2.413880825E-2,4.632949829E-3
1.522466673E2,2.997088432E-2,3.896474838E-3,1.118278503E-2
1.527466673E2,3.407543898E-2,-4.661440849E-3,-1.648616791E-2
1.532466673E2,5.282139778E-2,-3.636837006E-3,-4.340171814E-3
1.537466673E2,5.554080009E-3,7.044672966E-3,-3.361701965E-3
1.542466673E2,-6.019598246E-2,-1.678216457E-2,1.436901093E-2
1.547466673E2,-1.017540693E-2,-2.892601490E-2,1.070117950E-2
1.552466673E2,-8.577287197E-3,1.600873470E-2,-1.548576355E-2
1.557466673E2,-1.101708412E-2,2.909183502E-3,-2.881336212E-2
1.562466673E2,-3.649514914E-2,1.558530331E-2,1.466846466E-2
1.567466673E2,-1.208066940E-3,-3.436207771E-3,-4.777908325E-4
1.572466673E2,-1.554435492E-2,2.028822899E-3,4.184055328E-2
1.577466673E2,-2.733129263E-2,-2.458095551E-2,3.420162201E-2
1.582466673E2,1.101297140E-2,1.683151722E-2,3.321743011E-2
1.587466673E2,3.032279015E-2,-1.448261738E-2,-2.185535431E-2
1.592466673E2,-2.709627151E-3,-1.761734486E-2,3.802967072E-2
1.597466673E2,-6.343543530E-3,9.352922440E-3,2.571201324E-2
1.602466673E2,-2.334332466E-2,2.201414108E-2,1.374340057E-2
1.607466673E2,6.971955299E-4,-2.326250076E-3,7.392883301E-3
1.612466673E2,1.817113161E-2,-2.574956417E-2,3.614139557E-2
1.617466673E2,9.992241859E-3,-4.950284958E-3,5.903244019E-3
1.622466673E2,-5.562901497E-3,-1.611769199E-2,3.441905975E-2
1.627466673E2,2.428948879E-3,1.660120487E-2,-1.787853241E-2
1.632466673E2,-1.912701130E-2,2.333307266E-2,1.486301422E-2
1.637466673E2,3.081220388E-2,-1.403892040E-2,-1.988124847E-2
1.642466673E2,-7.055264711E-2,3.013122082E-2,-1.368522644E-3
1.647466673E2,-5.360841751E-4,1.401197910E-2,-1.357841492E-2
1.652466673E2,-2.950486541E-2,1.600360870E-2,-1.462078094E-2
1.657466673E2,-2.284401655E-2,3.098845482E-3,8.056640625E-3
1.662466673E2,9.177762270E-2,-2.109563351E-2,-7.794380188E-3
1.667466673E2,2.348470688E-2,-2.990853786E-2,3.098583221E-2
1.672466673E2,2.761983871E-2,5.596637726E-3,-1.522064209E-2
1.677466673E2,1.868551970E-2,9.019494057E-3,4.916191101E-3
1.682466673E2,-2.543330193E-3,-1.027190685E-2,1.908588409E-2
1.687466673E2,-4.914283752E-3,-1.504755020E-2,1.486206055E-2
1.692466673E2,1.393020153E-3,-3.092288971E-3,-3.878593445E-3
1.697466673E2,-9.842574596E-3,2.689886093E-2,-3.422737122E-3
1.702466673E2,-9.981667995E-2,-7.347702980E-3,1.882648468E-2
1.707466673E2,-6.977796555E-2,-2.059650421E-2,1.133918762E-3
1.712466673E2,7.313930988E-2,1.264464855E-2,-2.942943573E-2
1.717466673E2,-6.898641586E-4,-4.524624348E-2,-6.192207336E-3
1.722466673E2,3.589546680E-2,4.768526554E-2,1.561069489E-2
1.727466673E2,6.437659264E-3,-9.487867355E-3,-1.787185669E-3
1.732466673E2,2.696633339E-3,-2.633857727E-2,-3.333091736E-2
1.737466673E2,3.005981445E-2,5.241119862E-2,-3.825664520E-2
1.742466673E2,9.892368317E-2,9.547829628E-3,1.759815216E-2
1.747466673E2,1.530802250E-2,7.151365280E-4,3.816032410E-2
1.752466673E2,-2.246153355E-2,5.626678467E-5,-1.013851166E-2
1.757466673E2,2.007961273E-3,3.502941132E-2,7.448196411E-4
1.762466673E2,2.759206295E-2,-6.321144104E-2,-3.799533844E-2
1.767466673E2,-8.880913258E-2,1.356589794E-2,1.901626587E-2
1.772466673E2,-3.162157536E-2,1.895618439E-2,4.923915863E-2
1.777466673E2,1.751857996E-2,-2.299451828E-2,5.068206787E-2
1.782466673E2,1.190319061E-1,-3.181111813E-2,-4.081726074E-4
1.787466673E2,2.781260014E-2,-2.604234219E-2,-6.010055542E-3
1.792466673E2,1.793146133E-2,1.356124878E-2,-3.280925751E-2
1.797466673E2,-6.784319878E-3,-1.146340370E-2,-7.048606873E-3
1.802466673E2,9.061217308E-3,-3.051090240E-2,1.058864594E-2
1.807466673E2,-8.104979992E-2,2.029490471E-2,3.533649445E-2
1.812466673E2,-4.455077648E-2,-1.465010643E-2,9.347915649E-3
1.817466673E2,-4.583698511E-2,2.066397667E-2,3.637027740E-2
1.822466673E2,-6.459540129E-2,9.217977524E-3,-3.543853760E-3
1.827466673E2,-2.179968357E-2,3.019666672E-2,2.452659607E-2
1.832466673E2,5.959868431E-3,-3.525424004E-2,-3.452205658E-2
1.837466673E2,-8.944272995E-3,-1.435589790E-2,3.667163849E-2
1.842466673E2,1.443892717E-1,-3.497815132E-2,-1.072216034E-2
1.847466673E2,7.248723507E-2,-1.776552200E-2,-3.399848938E-3
1.852466673E2,2.014756203E-2,8.700847626E-3,3.223705292E-2
1.857466673E2,-5.103826523E-3,-4.971075058E-2,2.781486511E-2
1.862466673E2,-7.155597210E-2,3.442049026E-2,-4.553890228E-2
1.867466673E2,-5.209267139E-2,-1.853871346E-2,3.092670441E-2
1.872466673E2,-9.882569313E-3,3.299665451E-2,-3.304195404E-2
1.877466673E2,-8.258223534E-3,-1.030778885E-2,-1.461029053E-2
1.882466673E2,1.092934608E-2,3.559374809E-2,-2.348518372E-2
1.887466673E2,-1.339006424E-2,-8.629560471E-3,-2.726650238E-2
1.892466673E2,-5.821824074E-3,4.306554794E-3,2.457618713E-2
1.897466673E2,-1.634788513E-2,-2.819371223E-2,-1.589775085E-3
1.902466673E2,2.215254307E-2,-2.184486389E-2,-1.522254944E-2
1.907466673E2,2.112460136E-2,1.966595650E-2,-4.330635071E-3
1.912466673E2,-6.847381592E-4,-1.428461075E-2,-1.666069031E-2
1.917466673E2,7.399678230E-3,1.375603676E-2,1.664543152E-2
1.922466673E2,8.722543716E-3,-2.075266838E-2,1.174926758E-3
1.927466673E2,-1.458203793E-2,4.052972794E-2,5.078315735E-3
1.932466673E2,-2.033573389E-2,-4.530179501E-2,-2.891159058E-2
1.937466673E2,2.271115780E-2,3.599405289E-3,2.660751343E-4
1.942466673E2,-6.474852562E-4,-7.430398464E-2,-2.968883514E-2
1.947466673E2,4.539191723E-3,3.627419472E-2,-1.073646545E-2
1.952466673E2,-1.516634226E-2,-4.135942459E-2,-1.687526703E-2
1.957466673E2,4.320961237E-2,5.041360855E-3,-4.047679901E-2
1.962466673E2,-2.554535866E-3,6.221532822E-3,-6.911277771E-3
1.967466673E2,9.197354317E-3,-8.699226379E-2,-2.034187317E-3
1.972466673E2,7.416546345E-3,1.817154884E-2,2.115154266E-2
1.977466673E2,-6.866222620E-2,-2.198021412E-1,8.374500275E-2
1.982466673E2,-1.880787015E-1,-2.795624733E-1,8.089923859E-2
1.987466673E2,2.933766842E-1,5.679507256E-1,-3.174266815E-1
1.992466673E2,4.555724859E-1,6.798343658E-1,-5.013332367E-1
1.997466673E2,3.556859493E-2,8.812499046E-2,-7.340335846E-2
2.002466673E2,8.414232731E-2,9.623813629E-2,4.005908966E-2
2.007466673E2,-2.648019791E-2,-1.013851166E-2,-7.012367249E-3
2.012466673E2,7.969260216E-3,7.398128510E-3,-1.012325287E-2
2.017466673E2,-2.772188187E-2,-3.985524178E-2,-1.190948486E-2
2.022466673E2,-3.581988811E-2,-2.490472794E-2,-1.469707489E-2
2.027466673E2,-3.415977955E-2,-1.337051392E-2,3.667926788E-2
2.032466673E2,1.056396961E-2,1.753687859E-2,1.938152313E-2
2.037466673E2,7.240772247E-4,4.232072830E-2,-6.544780731E-2
2.042466673E2,-5.326581001E-2,-1.150562763E-1,3.974437714E-2
2.047466673E2,9.583234787E-4,4.467010498E-3,3.115844727E-2
2.052466673E2,1.127910614E-2,-3.038072586E-2,3.267192841E-2
2.057466673E2,2.846729755E-2,4.752349854E-2,-1.544380188E-2
2.062466673E2,6.481373310E-2,7.998704910E-2,-3.615474701E-2
2.067466673E2,-6.646072865E-2,-1.251339912E-2,1.111316681E-2
2.072466673E2,6.045877934E-2,8.172726631E-2,-7.200431824E-2
2.077466673E2,-9.768092632E-2,8.817338943E-2,4.094409943E-2
2.082466673E2,2.629375458E-2,-1.630544662E-3,-5.459785461E-3
2.087466673E2,2.182967663E-1,6.319046021E-3,-8.855819702E-3
2.092466673E2,4.496312141E-2,-3.336548805E-2,-1.800441742E-2
2.097466673E2,-1.568639278E-2,2.642846107E-2,-1.578998566E-2
2.102466673E2,-5.017435551E-2,2.731156349E-2,-4.887104034E-2
2.107466673E2,2.354383469E-3,-4.498744011E-2,1.852512360E-2
2.112466673E2,-1.953232288E-2,-6.574392319E-3,1.043033600E-2
2.117466673E2,2.305376530E-2,-3.552865982E-2,-4.414653778E-2
2.122466673E2,-7.090687752E-3,9.593963623E-3,1.397132874E-3
2.127466673E2,3.221595287E-2,1.777219772E-2,-6.200790405E-3
2.132466673E2,-3.092801571E-2,-4.190874100E-2,-3.548145294E-2
2.137466673E2,4.839360714E-2,4.407119751E-2,-3.634548187E-2
2.142466673E2,6.024718285E-3,4.889607430E-2,-1.874160767E-2
2.147466673E2,1.482963562E-3,6.502747536E-2,6.068229675E-3
2.152466673E2,-4.410266876E-3,-7.204294205E-3,2.326107025E-2
2.157466673E2,9.037375450E-3,5.782771111E-2,-7.192611694E-3
2.162466673E2,-8.576035500E-3,-7.541942596E-2,-8.874893188E-3
2.167466673E2,7.517457008E-3,3.741192818E-2,3.851318359E-2
2.172466673E2,1.160240173E-2,-7.428240776E-2,-1.960277557E-2
2.177466673E2,7.556915283E-3,9.926080704E-3,2.537727356E-3
2.182466673E2,-1.378244162E-2,-2.385449409E-2,-1.020240784E-2
2.187466673E2,-2.488791943E-2,-2.381014824E-2,-4.194259644E-3
2.192466673E2,5.355298519E-3,4.486322403E-3,3.014564514E-3
2.197466673E2,1.317280531E-2,-2.185368538E-2,-2.247810364E-2
2.202466673E2,-1.494311094E-1,5.714011192E-2,3.928184509E-3
2.207466673E2,-1.233122349E-1,-2.539467812E-2,1.038265228E-2
2.212466673E2,1.627105474E-2,2.423691750E-2,-8.307456970E-3
2.217466673E2,2.813678980E-2,-1.656222343E-2,1.111888885E-2
2.222466673E2,1.710992455E-1,-6.143426895E-2,1.853752136E-2
2.227466673E2,8.819389343E-2,-8.511543274E-3,-4.008865356E-2
2.232466673E2,6.151896715E-2,-1.243352890E-3,1.713848114E-2
2.237466673E2,-3.440499306E-3,1.389265060E-3,1.494503021E-2
2.242466673E2,-3.296017647E-3,-3.878903389E-2,2.462100983E-2
2.247466673E2,2.065938711E-2,5.871558189E-2,-3.129005432E-2
2.252466673E2,-5.941885710E-2,-2.234697342E-3,3.130435944E-2
2.257466673E2,-2.307856083E-2,5.301165581E-2,-4.151344299E-3
2.262466673E2,-3.906160593E-2,-3.139710426E-2,5.031108856E-2
2.267466673E2,-5.699276924E-3,3.964757919E-2,-2.437019348E-2
2.272466673E2,-2.614223957E-2,-2.599930763E-2,4.610252380E-2
2.277466673E2,-4.306972027E-3,1.586532593E-2,-4.036903381E-3
2.282466673E2,-2.676784992E-2,1.509141922E-2,-1.543331146E-2
2.287466673E2,1.559197903E-3,1.254749298E-2,-3.748893738E-3
2.292466673E2,6.071507931E-3,-4.872560501E-3,-1.383781433E-2
2.297466673E2,-4.567205906E-3,-7.388758659E-2,6.914138794E-4
2.302466673E2,-1.343214512E-2,4.097437859E-2,2.955913544E-2
2.307466673E2,1.458048820E-3,-2.985811234E-2,-1.401329041E-2
2.312466673E2,-5.166053772E-3,1.605057716E-2,3.746986389E-3
2.317466673E2,-5.364179611E-3,1.373815536E-2,9.247779846E-3
2.322466673E2,-2.985715866E-3,-4.498958588E-4,-9.019851685E-3
2.327466673E2,-1.457113028E-2,-1.223134995E-2,7.889747620E-3
2.332466673E2,5.674362183E-4,-3.929376602E-2,2.118110657E-3
2.337466673E2,-9.846329689E-3,-4.527282715E-2,2.059555054E-2
2.342466673E2,-4.923343658E-4,1.023840904E-2,-9.280204773E-3
2.347466673E2,-1.700794697E-2,2.354526520E-2,1.945972443E-2
2.352466673E2,-1.176166534E-2,7.151603699E-3,-4.834175110E-3
2.357466673E2,-5.851888657E-2,1.372051239E-2,1.106643677E-2
2.362466673E2,-3.167831898E-2,-2.018189430E-2,-7.330894470E-3
2.367466673E2,4.827821255E-2,-1.768851280E-2,2.814292908E-3
2.372466673E2,-1.243281364E-2,-4.325628281E-3,-2.608394623E-2
2.377466673E2,3.452360630E-2,-1.245403290E-2,-1.258993149E-1
2.382466673E2,6.243586540E-3,3.225803375E-2,3.381919861E-2
2.387466673E2,-2.872109413E-3,-2.997756004E-2,1.411151886E-2
2.392466673E2,-9.648203850E-3,1.055390835E-1,1.556396484E-2
2.397466673E2,-1.048481464E-2,-3.739261627E-2,3.230285645E-2
2.402466673E2,1.235508919E-2,2.008152008E-2,-1.430606842E-2
2.407466673E2,-6.876111031E-3,-2.089810371E-2,4.233837128E-2
2.412466673E2,1.119613647E-3,1.838254929E-2,-1.633644104E-2
2.417466673E2,-1.440263987E-1,4.784417152E-2,6.773948669E-3
2.422466673E2,-2.333414555E-2,2.835273743E-3,-1.605319977E-2
2.427466673E2,-2.713012695E-2,1.734256744E-3,6.602287292E-3
2.432466673E2,-5.611121655E-3,-4.622697830E-3,-2.767467499E-2
2.437466673E2,8.957564831E-3,3.285241127E-2,-1.113224030E-2
2.442466673E2,2.783536911E-4,-1.666641235E-2,-1.062488556E-2
2.447466673E2,1.509684324E-1,-1.495862007E-2,-3.114795685E-2
2.452466673E2,4.086840153E-2,-6.204128265E-3,5.467414856E-3
2.457466673E2,3.070819378E-2,3.092622757E-2,-9.122848511E-3
2.462466673E2,-2.109587193E-2,5.466890335E-2,-2.051448822E-2
2.467466673E2,1.069295406E-2,4.370450974E-3,4.128265381E-2
2.472466673E2,2.406585217E-2,-5.175471306E-2,1.776981354E-2
2.477466673E2,3.296256065E-2,3.252482414E-2,-3.400325775E-2
2.482466673E2,9.518504143E-3,5.961108208E-2,-8.826255798E-3
2.487466673E2,1.329207420E-2,5.854988098E-2,-4.663658142E-2
2.492466673E2,2.575874329E-2,-2.427601814E-2,1.278781891E-2
2.497466673E2,-1.577496529E-1,-4.534482956E-3,2.875423431E-2
2.502466673E2,-2.658801675E-1,9.855031967E-3,4.003047943E-2
2.507466673E2,-1.191949844E-2,-3.328442574E-3,2.072811127E-2
2.512466673E2,-1.139903069E-2,-2.828657627E-2,2.247142792E-2
2.517466673E2,7.784724236E-3,2.811467648E-2,-2.425670624E-2
2.522466673E2,-7.121920586E-3,-4.077112675E-2,-2.760791779E-2
2.527466673E2,8.550286293E-3,1.562523842E-2,1.963710785E-2
2.532466673E2,2.558755875E-2,-1.422035694E-2,5.689620972E-3
2.537466673E2,3.132283688E-2,-1.633238792E-2,1.428031921E-2
2.542466673E2,1.469874382E-2,-1.170921326E-2,2.170562744E-3
2.547466673E2,-2.290201187E-2,9.828448296E-3,1.664161682E-3
2.552466673E2,8.673548698E-3,-3.510832787E-3,1.045513153E-2
2.557466673E2,3.423929214E-3,-3.622055054E-3,1.973152161E-3
2.562466673E2,6.456494331E-3,7.378458977E-3,-1.299858093E-3
2.567466673E2,1.289021969E-2,3.517746925E-3,-9.963035583E-3
2.572466673E2,3.867268562E-3,3.863215446E-3,1.998901367E-3
2.577466673E2,3.716397285E-2,-8.942723274E-3,-7.880210876E-3
2.582466673E2,-8.912801743E-3,-1.185643673E-2,-1.261711121E-3
2.587466673E2,-3.484487534E-3,-6.221652031E-3,-4.128456116E-3
2.592466673E2,-5.389094353E-3,1.142656803E-2,-2.930259705E-2
2.597466673E2,1.151478291E-2,5.992054939E-3,-6.310462952E-3
2.602466673E2,8.204698563E-3,1.051604748E-2,8.630752563E-4
2.607466673E2,2.296566963E-3,-9.204983711E-3,2.765655518E-5
2.612466673E2,4.793763161E-3,4.110932350E-3,-5.347251892E-3
2.617466673E2,-2.092373371E-2,-2.438461781E-2,4.076957703E-3
2.622466673E2,1.698315144E-2,-2.944552898E-2,5.241394043E-3
2.627466673E2,1.947033405E-2,5.390048027E-3,1.400089264E-2
2.632466673E2,7.362401485E-2,5.682110786E-3,-2.403545380E-2
2.637466673E2,9.884822369E-2,-1.854300499E-3,-1.516437531E-2
2.642466673E2,2.605521679E-2,-6.409525871E-3,1.231384277E-2
2.647466673E2,5.880665779E-2,1.849257946E-2,-2.573013306E-3
2.652466673E2,2.097082138E-2,-1.826429367E-2,4.548358917E-2
2.657466673E2,1.118779182E-3,-1.475572586E-3,2.105426788E-2
2.662466673E2,2.511382103E-3,-7.630586624E-4,-5.907058716E-3
2.667466673E2,1.361668110E-2,5.337834358E-3,-9.930610657E-3
2.672466673E2,-3.416776657E-3,-1.440250874E-2,1.662063599E-2
2.677466673E2,6.680369377E-3,-7.672309875E-4,1.157569885E-2
2.682466673E2,-1.108646393E-4,-1.381814480E-2,1.794147491E-2
2.687466673E2,-1.172840595E-2,-1.908957958E-2,1.016426086E-2
2.692466673E2,-1.283669472E-2,1.973712444E-2,-6.519317627E-3
2.697466673E2,8.138537407E-3,2.752900124E-3,4.023551941E-3
2.702466673E2,2.502202988E-3,3.165006638E-4,2.279281616E-4
2.707466673E2,2.297759056E-3,1.115989685E-2,-7.433891296E-3
2.712466673E2,-7.260918617E-3,1.640796661E-3,-5.874633789E-4
2.717466673E2,-7.306575775E-3,2.089977264E-3,9.693145752E-3
2.722466673E2,1.935124397E-3,1.023519039E-2,4.030227661E-3
2.727466673E2,-1.123118401E-2,-7.850289345E-3,2.118015289E-2
2.732466673E2,6.195187569E-3,-2.363312244E-2,1.318550110E-2
2.737466673E2,1.111805439E-2,5.216717720E-3,-1.761436462E-3
2.742466673E2,-2.775621414E-2,-5.489110947E-3,1.224994659E-2
2.747466673E2,-2.653837204E-2,6.843328476E-3,-5.603504181E-2
2.752466673E2,-1.024595499E-1,1.272559166E-2,-6.711959839E-3
2.757466673E2,-5.196154118E-2,2.077603340E-2,-1.030921936E-2
2.762466673E2,-5.229485035E-2,1.112699509E-2,7.758140564E-3
2.767466673E2,-6.659591198E-2,3.222584724E-3,3.208160400E-3
2.772466673E2,-1.102703810E-2,2.684950829E-3,9.540557861E-3
2.777466673E2,1.001572609E-2,6.839156151E-3,-1.437854767E-2
2.782466673E2,3.798961639E-3,-5.119919777E-3,1.002311707E-3
2.787466673E2,-5.642044544E-2,7.699489594E-3,-6.227493286E-4
2.792466673E2,2.917838097E-2,-5.247592926E-4,-5.923271179E-3
2.797466673E2,4.167300463E-2,-2.044892311E-2,-8.417129517E-3
2.802466673E2,4.258245230E-2,-6.412148476E-3,7.724761963E-5
2.807466673E2,-6.866812706E-3,5.308985710E-3,3.490447998E-3
2.812466673E2,-3.329396248E-3,5.677223206E-3,-1.893997192E-3
2.817466673E2,-1.127183437E-2,-1.008641720E-2,8.030891418E-3
2.822466673E2,-9.018182755E-4,7.898688316E-3,-2.182960510E-3
2.827466673E2,-4.022061825E-3,-2.262961864E-2,-4.822731018E-3
2.832466673E2,9.052395821E-3,-5.016922951E-3,-3.020286560E-3
2.837466673E2,1.096570492E-2,1.522231102E-2,-5.824089050E-3
2.842466673E2,6.906986237E-3,1.506686211E-3,-9.112358093E-3
2.847466673E2,8.808374405E-4,6.578326225E-3,4.212379456E-3
2.852466673E2,1.333069801E-2,2.457141876E-2,-1.512050629E-2
2.857466673E2,-1.234495640E-2,-6.915688515E-3,4.343032837E-3
2.862466673E2,-1.740038395E-3,-2.359449863E-2,-8.583068848E-5
2.867466673E2,2.544343472E-3,-8.894324303E-3,9.367942810E-3
2.872466673E2,-6.952643394E-3,2.914547920E-3,3.471374512E-4
2.877466673E2,-1.076877117E-2,8.619189262E-3,-7.403373718E-3
2.882466673E2,-9.843945503E-3,2.785921097E-4,1.365566254E-2
2.887466673E2,7.535398006E-3,9.484648705E-3,1.869201660E-4
2.892466673E2,-1.561760902E-3,-1.400494576E-2,-1.707077026E-3
2.897466673E2,1.232469082E-2,-1.819813251E-2,-1.011562347E-2
2.902466673E2,3.962695599E-3,5.292892456E-5,2.083778381E-3
2.907466673E2,5.214393139E-3,5.140662193E-3,-7.362365723E-4
2.912466673E2,-6.718099117E-3,-2.952218056E-3,-1.379966736E-3
2.917466673E2,2.279222012E-3,-1.274096966E-2,9.153366089E-3
2.922466673E2,-6.759822369E-3,3.316521645E-3,4.571914673E-3
2.927466673E2,-1.269441843E-2,1.810789108E-4,5.167961121E-3
2.932466673E2,-1.525878906E-4,-4.727721214E-3,1.192092896E-4
2.937466673E2,9.626686573E-3,7.511734962E-3,-5.145072937E-3
2.942466673E2,1.022660732E-2,2.070784569E-3,-6.543159485E-3
2.947466673E2,1.725554466E-4,1.356148720E-2,-5.005836487E-3
2.952466673E2,-3.869712353E-3,-2.373576164E-3,8.658409119E-3
2.957466673E2,-2.670884132E-4,-5.730628967E-3,6.113052368E-4
2.962466673E2,-9.091734886E-3,7.840037346E-3,-4.541397095E-3
2.967466673E2,-1.626390219E-2,-7.725119591E-3,4.958152771E-3
2.972466673E2,-1.063346863E-2,-1.274824142E-3,1.010799408E-2
2.977466673E2,6.393194199E-3,1.058804989E-2,-8.752822876E-3
2.982466673E2,-3.315210342E-4,1.824498177E-3,5.095481873E-3
2.987466673E2,-8.274555206E-3,9.295940399E-4,-1.222038269E-2
2.992466673E2,-2.828240395E-4,-1.563429832E-3,-2.332592010E-2
2.997466673E2,-7.338225842E-3,-7.516741753E-3,-7.229804993E-3
3.002466673E2,5.489706993E-3,6.331443787E-3,-2.861118317E-2
3.007466673E2,2.881705761E-3,-2.230322361E-2,7.190704346E-3
3.012466673E2,5.060255527E-3,-3.046512604E-3,-2.431869507E-4
3.017466673E2,-8.079230785E-3,-1.001167297E-2,-2.111434937E-2
3.022466673E2,-7.306873798E-3,-1.020729542E-2,1.021099091E-2
3.027466673E2,-2.557218075E-3,-5.947709084E-3,-3.706932068E-3
3.032466673E2,-6.309986115E-3,6.717324257E-3,7.411956787E-3
3.037466673E2,3.539919853E-4,2.957308292E-2,-1.923656464E-2
3.042466673E2,-1.317578554E-2,-8.379876614E-3,-9.421348572E-3
3.047466673E2,-2.897131145E-1,-3.090870380E-2,1.614475250E-1
3.052466673E2,-2.245162427E-1,3.782165051E-2,-1.207637787E-2
3.057466673E2,-3.120491803E-1,7.715094090E-2,-9.550094604E-3
3.062466673E2,-2.117352486E-1,4.896402359E-3,3.748893738E-3
3.067466673E2,-3.335005045E-2,2.124440670E-2,-1.474475861E-2
3.072466673E2,-1.197415590E-2,-1.083838940E-2,-9.255409241E-3
3.077466673E2,7.367730141E-4,-4.849195480E-3,1.091098785E-2
3.082466673E2,1.993924379E-2,-1.658439636E-2,-9.919166565E-3
3.087466673E2,1.746302843E-2,1.957976818E-2,-1.270294189E-3
3.092466673E2,1.237374544E-2,2.199213505E-1,-2.145662308E-1
3.097466673E2,-1.935395598E-2,-1.756346226E-2,4.179286957E-2
3.102466673E2,9.160305560E-2,-4.286265373E-2,-1.688003540E-4
3.107466673E2,2.378341556E-2,-3.138065338E-3,-1.878738403E-4
3.112466673E2,6.530553102E-3,-1.738190651E-3,2.422618866E-2
3.117466673E2,7.411445677E-2,6.042122841E-3,-8.886337280E-3
3.122466673E2,5.089383572E-2,-4.952192307E-3,-4.562377930E-3
3.127466673E2,3.069727123E-2,1.541268826E-2,8.769035339E-3
3.132466673E2,-7.882632315E-3,9.467959404E-3,-4.271697998E-2
3.137466673E2,8.294895291E-3,-3.229379654E-4,1.307010651E-2
3.142466673E2,3.010188788E-2,4.796147346E-3,-1.593589783E-2
3.147466673E2,1.571156085E-3,2.079176903E-2,-2.143001556E-2
3.152466673E2,-5.400225520E-3,-4.381000996E-2,-8.557319641E-3
3.157466673E2,-6.670892239E-3,1.120913029E-2,5.064964294E-3
3.162466673E2,-3.547961637E-2,2.461564541E-2,-2.728748322E-2
3.167466673E2,-1.420570910E-2,-3.566694260E-2,4.199028015E-3
3.172466673E2,1.744376868E-2,8.637988567E-2,-2.887153625E-2
3.177466673E2,2.906650677E-2,2.295732498E-3,2.034473419E-2
3.182466673E2,8.666945994E-2,1.663804054E-3,-2.030372620E-2
3.187466673E2,-3.449118882E-2,6.237268448E-2,1.985836029E-2
3.192466673E2,-5.100145936E-3,5.649435520E-2,1.623249054E-2
3.197466673E2,1.458359063E-1,-1.197189093E-1,-5.058002472E-2
3.202466673E2,1.051529348E-1,1.049953699E-1,4.946899414E-2
3.207466673E2,-1.690605432E-1,-6.366622448E-2,-2.479934692E-2
3.212466673E2,-1.530308425E-1,2.849663496E-1,-7.191658020E-3
3.217466673E2,4.438591003E-2,-2.499139309E-2,-6.565189362E-2
3.222466673E2,3.138830662E-1,-2.989375591E-2,-7.309246063E-2
3.227466673E2,1.663255095E-1,-4.717934132E-2,2.255344391E-2
3.232466673E2,8.228474855E-2,-2.774119377E-3,-2.464866638E-2
3.237466673E2,-3.134822845E-2,5.839073658E-2,-1.077165604E-1
3.242466673E2,-2.525818348E-2,-1.002589464E-1,-2.711868286E-2
3.247466673E2,-2.469658852E-2,3.639233112E-2,3.018293381E-1
3.252466673E2,-5.591392517E-3,1.676511765E-2,-1.076221466E-2
3.257466673E2,-5.151808262E-3,-1.593517661E-1,-3.498458862E-2
3.262466673E2,1.463890076E-2,1.104741096E-1,1.633644104E-3
3.267466673E2,1.801574230E-2,3.246867657E-2,-2.215576172E-2
3.272466673E2,-2.251172066E-2,-2.097523212E-2,-1.354217529E-3
3.277466673E2,-3.989166021E-2,-2.829992771E-2,3.833866119E-2
3.282466673E2,-3.427898884E-2,5.396246910E-2,3.894138336E-2
3.287466673E2,-1.132738590E-2,1.843663454E-1,-7.149982452E-2
3.292466673E2,-3.628724813E-2,-2.173841000E-2,-5.273914337E-2
3.297466673E2,5.294024944E-3,1.517347097E-1,-1.673698425E-3
3.302466673E2,3.485661745E-2,2.971363068E-2,1.266107559E-1
3.307466673E2,1.875686646E-2,1.031552553E-1,5.015087128E-2
3.312466673E2,-3.889143467E-3,6.213307381E-2,-2.004528046E-2
3.317466673E2,-9.419798851E-3,-5.058050156E-4,-4.503154755E-2
3.322466673E2,1.985716820E-2,-6.385278702E-2,1.197118759E-1
3.327466673E2,5.445671082E-2,-1.210999489E-2,-7.625865936E-2
3.332466673E2,-3.284275532E-3,-3.773748875E-2,7.101821899E-2
3.337466673E2,-1.162493229E-2,-7.254779339E-2,-1.595020294E-2
3.342466673E2,-3.492295742E-3,-1.189062595E-1,-1.772403717E-2
3.347466673E2,7.876217365E-3,-1.750572920E-1,-3.723430634E-2
3.352466673E2,-2.340126038E-2,6.610035896E-2,3.528594971E-5
3.357466673E2,-4.696428776E-3,-1.285672188E-1,1.904773712E-2
3.362466673E2,7.038235664E-3,5.354547501E-2,-2.289676666E-2
3.367466673E2,-4.204058647E-2,-1.105514765E-1,2.090358734E-2
3.372466673E2,1.970673800E-1,-6.373405457E-3,-5.928993225E-3
3.377466673E2,-6.428861618E-2,2.470183372E-2,1.205253601E-2
3.382466673E2,-2.850589752E-1,4.695999622E-2,5.551147461E-2
3.387466673E2,-2.934253216E-2,2.321088314E-2,5.704593658E-2
3.392466673E2,-5.080997944E-2,7.015895844E-2,-6.925678253E-2
3.397466673E2,-8.529692888E-2,-3.216862679E-2,6.396007538E-2
3.402466673E2,-1.089668274E-2,1.380578279E-1,-4.315376282E-3
3.407466673E2,-3.322511911E-2,-1.699231863E-1,-5.611515045E-2
3.412466673E2,-1.236140728E-3,-1.761138439E-2,-5.393981934E-3
3.417466673E2,1.978427172E-2,5.266749859E-2,-1.146030426E-1
3.422466673E2,6.488144398E-3,-1.294183731E-2,-3.110790253E-2
3.427466673E2,1.436185837E-2,-1.271768808E-1,2.083683014E-2
3.432466673E2,-2.903819084E-3,2.218306065E-2,8.576393127E-3
3.437466673E2,8.630746603E-2,-2.569735050E-2,-2.242946625E-2
3.442466673E2,4.837781191E-2,-8.058416843E-2,-1.864433289E-3
3.447466673E2,3.393191099E-2,-8.660435677E-3,5.437088013E-2
3.452466673E2,1.316189766E-3,-2.392876148E-2,-2.719879150E-2
3.457466673E2,3.827214241E-3,7.751512527E-2,2.254772186E-2
3.462466673E2,-4.544079304E-2,-5.588918924E-2,3.333091736E-3
3.467466673E2,-2.275407314E-2,-9.139174223E-2,-8.001327515E-3
3.472466673E2,-1.574456692E-2,4.127871990E-2,3.826045990E-2
3.477466673E2,2.732473612E-2,1.140828133E-1,-4.336929321E-2
3.482466673E2,-4.855632782E-3,-6.764602661E-2,-1.247119904E-2
3.487466673E2,-3.665977716E-2,-3.324687481E-2,4.496192932E-2
3.492466673E2,4.352331161E-3,-7.224881649E-2,2.702140808E-2
3.497466673E2,2.383053303E-2,-5.643129349E-2,5.443382263E-2
3.502466673E2,-1.296822429E-1,-1.922917366E-2,1.347599030E-1
3.507466673E2,6.674808264E-2,1.391421556E-1,-4.405956268E-1
3.512466673E2,-5.016553402E-1,1.859922409E-1,4.501819611E-2
3.517466673E2,6.889694929E-2,-5.009174347E-3,-1.190757751E-2
3.522466673E2,3.063222766E-2,-1.796686649E-2,-2.496814728E-2
3.527466673E2,6.724208593E-3,3.254354000E-2,5.575084686E-2
3.532466673E2,-4.008412361E-3,2.673506737E-3,-1.470088959E-2
3.537466673E2,-5.035549402E-3,1.127076149E-2,-1.181602478E-2
3.542466673E2,-1.795139909E-2,3.100496531E-2,2.917480469E-2
3.547466673E2,2.826076746E-2,-4.047322273E-2,4.707050323E-2
3.552466673E2,6.543576717E-3,1.027430296E-1,1.795959473E-2
3.557466673E2,1.542240381E-3,6.623500586E-2,3.013706207E-2
3.562466673E2,1.382440329E-3,-9.569662809E-2,-2.465724945E-2
3.567466673E2,2.275010943E-2,9.371531010E-2,3.189754486E-2
3.572466673E2,-7.796585560E-4,-4.217237234E-2,3.420829773E-3
3.577466673E2,-1.096710563E-2,-1.239222288E-2,-6.008148193E-5
3.582466673E2,1.409855485E-2,-5.505329370E-2,2.570819855E-2
3.587466673E2,5.593776703E-3,6.573116779E-2,2.859687805E-2
3.592466673E2,1.825290918E-2,1.344978809E-3,1.400375366E-2
3.597466673E2,7.079377770E-3,8.831995726E-2,1.988506317E-2
3.602466673E2,-4.290537536E-2,1.683402658E-1,4.094409943E-2
3.607466673E2,-5.833454430E-2,-1.607372761E-1,-6.373405457E-3
3.612466673E2,4.088577628E-2,-1.256521344E-1,-2.117252350E-2
3.617466673E2,1.553308964E-2,6.853449345E-2,1.385593414E-2
3.622466673E2,2.129931748E-2,4.922968149E-2,4.658985138E-2
3.627466673E2,-8.474737406E-3,-1.104545593E-1,-5.696487427E-2
3.632466673E2,-2.886503935E-3,-9.297066927E-2,-9.562492371E-3
3.637466673E2,2.709253132E-2,-1.108594537E-1,8.588790894E-3
3.642466673E2,-3.659199178E-2,3.703099489E-2,5.401229858E-2
3.647466673E2,-1.306995451E-1,4.779160023E-3,-1.687335968E-2
3.652466673E2,3.817647696E-2,5.130839348E-2,-3.234672546E-2
3.657466673E2,2.311520278E-2,-1.237000227E-1,5.916595459E-3
3.662466673E2,3.444213420E-2,-2.998632193E-2,-6.105518341E-2
3.667466673E2,4.802207649E-2,-7.376492023E-3,1.786136627E-2
3.672466673E2,1.112295836E-1,-2.341008782E-1,9.483337402E-3
3.677466673E2,1.109436303E-1,1.529443860E-1,9.787845612E-2
3.682466673E2,1.234203577E-3,4.014909267E-2,6.654834747E-2
3.687466673E2,2.216172218E-2,5.396479368E-2,2.718257904E-2
3.692466673E2,2.781686187E-2,4.814070463E-2,-1.304626465E-2
3.697466673E2,-1.374541223E-2,6.148332357E-2,-1.750087738E-2
3.702466673E2,-2.057777345E-2,-7.657867670E-2,-2.979755402E-2
3.707466673E2,-4.119372368E-2,-1.111952066E-1,-8.368778229E-2
3.712466673E2,2.115017176E-2,6.928294897E-2,-6.630897522E-3
3.717466673E2,3.912293911E-2,-1.946407557E-2,-1.646709442E-2
3.722466673E2,1.235260069E-2,1.059120893E-1,3.448772430E-2
3.727466673E2,2.635018528E-2,5.358058214E-2,2.664089203E-2
3.732466673E2,-4.893496633E-3,-2.528321743E-2,-8.461952209E-3
3.737466673E2,-2.130810916E-2,5.893582106E-2,4.634284973E-2
3.742466673E2,-1.824201643E-2,-5.893397331E-2,9.339332581E-3
3.747466673E2,-2.318736911E-2,-6.427288055E-2,-4.539680481E-2
3.752466673E2,2.178618312E-2,-1.371425390E-2,2.872657776E-2
3.757466673E2,2.400067449E-2,1.628830433E-1,1.887798309E-2
3.762466673E2,6.363734603E-3,-6.057685614E-2,-5.632114410E-2
3.767466673E2,-1.694874465E-2,6.493026018E-2,9.986972809E-2
3.772466673E2,-9.959295392E-3,-8.210730553E-2,-1.982212067E-2
3.777466673E2,-4.726558924E-3,-9.919053316E-2,-1.253795624E-2
3.782466673E2,-3.809839487E-3,-9.140020609E-2,7.963848114E-2
3.787466673E2,-9.732738137E-3,-2.763313055E-2,4.578685760E-2
3.792466673E2,-5.216911435E-3,-1.335516572E-1,-8.787155151E-3
3.797466673E2,3.782317042E-3,-8.052664995E-2,-3.320598602E-2
3.802466673E2,1.657217741E-3,-3.511524200E-2,4.209804535E-2
3.807466673E2,1.140818596E-1,-6.251591444E-2,1.227378845E-3
3.812466673E2,-1.754766703E-2,3.825724125E-4,-7.271766663E-3
3.817466673E2,8.611142635E-3,2.541700006E-2,-2.189922333E-2
3.822466673E2,4.224371910E-2,5.675941706E-3,-3.845596313E-2
3.827466673E2,9.717345238E-3,-3.565329313E-2,-2.733516693E-2
3.832466673E2,1.921010017E-2,7.236644626E-2,6.387042999E-2
3.837466673E2,-2.336144447E-2,3.072747588E-2,-1.067161560E-3
3.842466673E2,-2.704828978E-2,7.131755352E-3,-3.669834137E-2
3.847466673E2,-3.927350044E-4,1.065638065E-1,-1.573371887E-2
3.852466673E2,1.100695133E-2,-3.155618906E-2,3.705692291E-2
3.857466673E2,2.807492018E-2,1.767649651E-1,-1.909160614E-2
3.862466673E2,-2.503818274E-2,4.263168573E-2,-1.200580597E-2
3.867466673E2,-5.187094212E-3,8.851474524E-2,5.938434601E-2
3.872466673E2,4.490417242E-2,8.375012875E-2,3.712081909E-2
3.877466673E2,-5.880415440E-3,1.972609758E-2,9.957313538E-3
3.882466673E2,-3.996372223E-3,5.933588743E-2,1.010036469E-2
3.887466673E2,1.890939474E-2,3.193825483E-2,-3.610038757E-2
3.892466673E2,1.988613605E-2,5.259460211E-2,-4.221725464E-2
3.897466673E2,-4.208552837E-2,-8.144247532E-2,1.591968536E-2
3.902466673E2,4.238992929E-2,7.593333721E-3,-2.577877045E-2
3.907466673E2,3.939247131E-2,-3.679114580E-2,2.879047394E-2
3.912466673E2,6.659817696E-2,5.614101887E-3,1.166248322E-2
3.917466673E2,1.886105537E-2,-2.357625961E-2,2.067661285E-2
3.922466673E2,5.722522736E-3,-3.493154049E-2,1.716899872E-2
3.927466673E2,2.218377590E-2,-1.829212904E-2,6.196022034E-3
3.932466673E2,-4.604756832E-2,3.933030367E-2,-2.926826477E-3
3.937466673E2,1.704049110E-2,-3.298527002E-2,-7.838249207E-3
3.942466673E2,-5.845904350E-3,5.162656307E-3,-1.604080200E-3
3.947466673E2,1.190686226E-2,1.403421164E-2,5.485534668E-3
3.952466673E2,3.378629684E-3,-9.631693363E-3,-2.636909485E-3
3.957466673E2,1.104378700E-2,-2.893459797E-2,7.934570312E-3
3.962466673E2,1.329398155E-2,1.085287333E-2,-3.084659576E-2
3.967466673E2,-8.420825005E-3,-2.610445023E-3,1.224994659E-2
3.972466673E2,-1.556221843E-1,7.729589939E-3,1.728916168E-2
3.977466673E2,-9.130972624E-2,1.252382994E-2,-1.962184906E-2
3.982466673E2,-2.797311544E-2,1.042640209E-2,6.867408752E-3
3.987466673E2,-5.801498890E-3,-1.317447424E-2,3.677368164E-3
3.992466673E2,-1.083153486E-2,-5.596280098E-3,1.665782928E-2
3.997466673E2,7.262760401E-2,1.291078329E-2,-5.316829681E-2
4.002466673E2,1.036217213E-1,1.827180386E-3,-2.133750916E-2
4.007466673E2,4.610514641E-2,-6.318986416E-3,9.377479553E-3
4.012466673E2,5.346179008E-3,3.223180771E-3,1.214408875E-2
4.017466673E2,2.730500698E-2,-1.404786110E-2,-7.641792297E-3
4.022466673E2,1.024985313E-2,4.539787769E-3,-4.418373108E-3
4.027466673E2,2.323269844E-3,-1.234298944E-2,-1.340007782E-2
4.032466673E2,-1.895999908E-2,-5.083084106E-4,-1.065158844E-2
4.037466673E2,-8.919554949E-2,2.652060986E-2,1.216030121E-2
4.042466673E2,-9.111493826E-2,1.266431808E-2,1.240348816E-2
4.047466673E2,-6.516575813E-2,-1.118957996E-3,-4.242038727E-2
4.052466673E2,-5.449527502E-2,-3.151166439E-2,-3.212642670E-2
4.057466673E2,-3.075270653E-1,3.325849771E-2,-5.451679230E-2
4.062466673E2,5.341032147E-2,-8.446931839E-3,-1.529407501E-2
4.067466673E2,-2.495157719E-2,-3.242135048E-3,3.343582153E-3
4.072466673E2,2.421578765E-2,-3.698647022E-3,5.780220032E-3
4.077466673E2,-6.563991308E-3,-5.569577217E-3,-7.288932800E-3
4.082466673E2,1.931011677E-2,-1.817739010E-2,-9.012222290E-4
4.087466673E2,1.494529843E-2,-5.573987961E-3,1.821517944E-3
4.092466673E2,-5.244612694E-4,5.173921585E-3,6.114006042E-3
4.097466673E2,-1.198588312E-2,-1.301527023E-3,6.940841675E-3
4.102466673E2,-1.330481470E-2,3.337264061E-4,-2.427101135E-3
4.107466673E2,5.991518497E-3,2.814829350E-3,1.027107239E-3
4.112466673E2,-1.804974675E-2,9.396255016E-3,-2.974510193E-3
4.117466673E2,-8.722841740E-4,5.655348301E-3,-5.718231201E-3
4.122466673E2,1.621147990E-2,-5.533218384E-3,-1.505565643E-2
4.127466673E2,2.358853817E-4,2.582848072E-3,-6.442070007E-3
4.132466673E2,7.384210825E-3,-9.883582592E-3,1.382827759E-4
4.137466673E2,5.656570196E-3,9.255826473E-3,-3.565788269E-3
4.142466673E2,-8.557945490E-3,1.326262951E-3,-9.081840515E-3
4.147466673E2,2.424299717E-3,-1.545745134E-2,1.569080353E-2
4.152466673E2,1.075306535E-2,-9.395718575E-3,7.731437683E-3
4.157466673E2,-1.196533442E-3,1.683920622E-2,-5.524635315E-3
4.162466673E2,-8.239418268E-3,4.383504391E-3,2.063751221E-3
4.167466673E2,5.510151386E-4,1.120269299E-3,8.070945740E-3
4.172466673E2,9.083598852E-3,8.241653442E-3,1.587867737E-3
4.177466673E2,-2.617955208E-3,-5.002796650E-3,1.134872437E-3
4.182466673E2,9.572416544E-3,-2.939188480E-2,1.941680908E-3
4.187466673E2,5.501180887E-3,4.009723663E-3,-1.100444794E-2
4.192466673E2,-7.094442844E-4,9.189665318E-3,5.128860474E-3
4.197466673E2,-5.679234862E-3,-6.523311138E-3,-1.042366028E-3
4.202466673E2,-4.852965474E-3,1.782476902E-3,-5.628585815E-3
4.207466673E2,-1.328219473E-2,5.964338779E-3,-1.690006256E-2
4.212466673E2,1.054257154E-2,-1.897501945E-2,-5.149841309E-3
4.217466673E2,6.247788668E-3,1.943707466E-3,1.890182495E-3
4.222466673E2,-1.099407673E-3,4.487097263E-3,3.867149353E-3
4.227466673E2,5.964696407E-3,1.114648581E-2,-6.904602051E-4
4.232466673E2,-1.204773784E-2,-4.337430000E-4,5.111694336E-4
4.237466673E2,-2.850502729E-3,-3.553986549E-3,7.643699646E-3
4.242466673E2,-9.141877294E-3,-3.393888474E-3,6.878852844E-3
4.247466673E2,2.963304520E-3,-4.821240902E-3,3.557205200E-4
4.252466673E2,1.387029886E-2,-6.952285767E-4,1.511573792E-3
4.257466673E2,-2.089351416E-3,4.991769791E-3,6.551742554E-4
4.262466673E2,-3.316015005E-3,-4.604518414E-3,-8.096694946E-4
4.267466673E2,-6.609305739E-3,-1.243710518E-3,1.195716858E-2
4.272466673E2,-1.101002097E-3,-1.755571365E-2,2.216339111E-3
4.277466673E2,-2.698088884E-1,4.933315516E-2,7.801437378E-2
4.282466673E2,-2.214006782E-1,-7.733106613E-3,3.874492645E-2
4.287466673E2,-9.246641397E-2,2.879792452E-2,-3.048992157E-2
4.292466673E2,-9.918838739E-2,3.564333916E-2,-3.686809540E-2
4.297466673E2,2.105462551E-2,2.837198973E-2,1.035022736E-2
4.302466673E2,-4.251778126E-3,-4.567027092E-3,1.503181458E-2
4.307466673E2,3.088730574E-2,7.587015629E-3,-1.857280731E-2
4.312466673E2,3.575801849E-3,-1.554000378E-2,8.490562439E-3
4.317466673E2,2.613401413E-2,4.166960716E-3,-9.779930115E-3
4.322466673E2,1.128584146E-2,-4.451990128E-3,4.638671875E-3
4.327466673E2,3.358185291E-3,-5.928099155E-3,-1.287460327E-4
4.332466673E2,9.160935879E-3,1.123303175E-2,-2.298164368E-2
4.337466673E2,-3.539383411E-3,5.147874355E-3,-3.208160400E-3
4.342466673E2,5.616605282E-3,-7.723033428E-3,7.333755493E-4
4.347466673E2,1.684933901E-2,-2.177876234E-2,1.945018768E-2
4.352466673E2,-9.312033653E-4,2.359062433E-2,-1.171588898E-2
4.357466673E2,-1.765966415E-3,-1.579672098E-2,-2.737045288E-2
4.362466673E2,-1.068776846E-2,1.549381018E-2,2.974033356E-2
4.367466673E2,2.337753773E-3,2.081334591E-3,2.061843872E-2
4.372466673E2,-1.584088802E-2,-3.194338083E-2,-1.637840271E-2
4.377466673E2,-8.433109522E-2,5.220478773E-2,2.861785889E-2
4.382466673E2,3.802138567E-2,1.973634958E-2,1.400089264E-2
4.387466673E2,-2.629339695E-3,1.008947492E-1,-4.446983337E-3
4.392466673E2,-1.099105477E-1,-7.740405202E-2,-1.138210297E-2
4.397466673E2,1.086905003E-1,1.578643024E-1,-2.186679840E-2
4.402466673E2,-9.366333485E-3,-3.950276971E-2,-3.794574738E-2
4.407466673E2,3.222060204E-2,1.099047065E-1,3.561115265E-2
4.412466673E2,3.234654665E-2,5.977591872E-2,-2.358436584E-2
4.417466673E2,7.505041361E-2,1.368554831E-1,-2.355289459E-2
4.422466673E2,8.987087011E-2,1.095344126E-1,-1.929092407E-2
4.427466673E2,1.314265728E-1,8.653336763E-2,-8.076667786E-3
4.432466673E2,1.291486770E-1,-2.601391077E-2,2.443695068E-2
4.437466673E2,2.604990602E-1,4.724535346E-2,-6.921768188E-3
4.442466673E2,1.305222213E-1,-7.733029127E-2,-2.474403381E-2
4.447466673E2,7.319483161E-2,9.612023830E-3,4.434680939E-2
4.452466673E2,1.454779506E-2,-1.144303083E-1,5.703449249E-2
4.457466673E2,1.895955205E-2,-5.963319540E-2,2.896022797E-2
4.462466673E2,-1.653692126E-2,-6.721019745E-2,9.153461456E-2
4.467466673E2,1.422166824E-4,-1.769553721E-1,6.789207458E-3
4.472466673E2,1.732265949E-2,-7.018905878E-2,5.778598785E-2
4.477466673E2,-2.885681391E-2,2.621096373E-2,1.113128662E-2
4.482466673E2,4.451870918E-3,-9.043532610E-2,-3.352928162E-2
4.487466673E2,-2.756646276E-2,9.011387825E-2,3.750801086E-3
4.492466673E2,-1.305615902E-2,-7.544699311E-2,-3.499126434E-2
4.497466673E2,-1.956304908E-2,8.032870293E-2,-3.018093109E-2
4.502466673E2,-3.854918480E-2,-5.476728082E-2,-6.295013428E-2
4.507466673E2,-1.505225897E-3,1.834502816E-2,-1.315116882E-2
4.512466673E2,3.316253424E-3,9.866744280E-3,-3.542804718E-2
4.517466673E2,-3.568498790E-2,-3.281053901E-2,7.174110413E-2
4.522466673E2,-1.813903451E-2,6.837880611E-2,3.651523590E-2
4.527466673E2,-1.692730188E-2,4.694023728E-2,-1.838016510E-2
4.532466673E2,1.615136862E-3,3.495436907E-2,-1.510906219E-2
4.537466673E2,-1.731246710E-3,1.298273206E-1,-2.652263641E-2
4.542466673E2,-1.510748267E-2,-2.796709538E-2,-3.284263611E-2
4.547466673E2,3.773957491E-3,-2.819097042E-2,3.632640839E-2
4.552466673E2,3.095030785E-3,2.083003521E-3,2.099037170E-2
4.557466673E2,-2.261137962E-2,1.182484627E-2,5.155277252E-2
4.562466673E2,-2.604335546E-2,-2.472761273E-2,6.552791595E-2
4.567466673E2,-1.282268763E-2,-6.394326687E-3,-1.495361328E-3
4.572466673E2,-1.494094729E-2,2.728646994E-2,4.405689240E-2
4.577466673E2,8.028805256E-3,-2.179819345E-2,3.067874908E-2
4.582466673E2,6.540566683E-3,1.183477640E-1,-5.377578735E-2
4.587466673E2,-2.513732016E-2,2.616941929E-4,-5.701732635E-2
4.592466673E2,6.474614143E-2,-5.243751407E-2,-3.719425201E-2
4.597466673E2,2.598443627E-2,1.477581263E-2,-1.599407196E-2
4.602466673E2,3.124982119E-2,4.307544231E-2,3.359794617E-3
4.607466673E2,-1.300093532E-2,-5.319559574E-2,2.516174316E-2
4.612466673E2,-1.349145174E-2,-5.829128623E-2,-2.058124542E-2
4.617466673E2,8.865028620E-3,1.108962297E-2,3.085803986E-2
4.622466673E2,5.529189110E-2,-9.430646896E-2,-3.532123566E-2
4.627466673E2,4.704716802E-2,8.288729191E-2,-1.165390015E-2
4.632466673E2,2.008584142E-2,-4.840391874E-2,-1.497173309E-2
4.637466673E2,2.718788385E-2,-1.361644268E-2,-3.358745575E-2
4.642466673E2,1.740571856E-2,-9.877353907E-3,5.758094788E-2
4.647466673E2,1.814961433E-5,-8.800062537E-2,3.718090057E-2
4.652466673E2,5.402335525E-2,-4.513588548E-2,-2.300739288E-2
4.657466673E2,2.675518394E-2,-1.822620630E-2,-5.608272552E-2
4.662466673E2,2.230179310E-2,-4.327043891E-3,-3.796577454E-3
4.667466673E2,2.753084898E-2,-1.012994647E-1,-8.902549744E-3
4.672466673E2,1.019209623E-2,1.215799004E-1,2.474975586E-2
4.677466673E2,1.906268299E-2,-2.093946934E-2,-5.271339417E-2
4.682466673E2,2.124506235E-2,1.019595116E-1,-2.593326569E-2
4.687466673E2,7.042586803E-4,1.442072988E-1,-6.352424622E-2
4.692466673E2,2.054390311E-2,3.095313907E-2,-5.741977692E-2
4.697466673E2,6.802976131E-2,2.730309963E-3,-6.315326691E-2
4.702466673E2,2.170941234E-2,5.384999514E-2,1.022624969E-2
4.707466673E2,8.250784874E-2,9.696173668E-2,-2.447605133E-2
4.712466673E2,6.232137978E-2,2.108407021E-1,4.473686218E-3
4.717466673E2,-3.051070869E-2,2.009361386E-1,8.794307709E-2
4.722466673E2,-7.761120796E-4,-2.455651760E-2,-3.135490417E-2
4.727466673E2,-1.731187999E-1,1.527607441E-2,3.224086761E-2
4.732466673E2,3.191882372E-2,1.862001419E-2,3.270816803E-2
4.737466673E2,-4.342794418E-3,-1.892888546E-2,3.164577484E-2
4.742466673E2,-2.699893713E-2,-7.887005806E-3,-2.583503723E-3
4.747466673E2,3.530919552E-2,-6.062448025E-2,1.464939117E-2
4.752466673E2,-7.980525494E-2,4.770410061E-2,1.252937317E-2
4.757466673E2,6.446450949E-2,2.587033510E-1,-4.335117340E-2
4.762466673E2,-3.189021349E-2,-1.555200815E-1,-3.533077240E-2
4.767466673E2,9.149062634E-2,5.238854885E-2,-6.069374084E-2
4.772466673E2,4.337090254E-2,-1.008124352E-1,-2.037525177E-2
4.777466673E2,1.407211423E-1,-5.872130394E-2,-4.036617279E-2
4.782466673E2,2.517670393E-1,-1.978528500E-2,-2.581119537E-2
4.787466673E2,6.829202175E-2,-4.715681076E-2,-4.985904694E-2
4.792466673E2,1.858333349E-1,-3.978824615E-2,1.722812653E-2
4.797466673E2,1.991301775E-1,-1.515958905E-1,-1.085376740E-2
4.802466673E2,4.793715477E-2,2.216541767E-2,1.658916473E-2
4.807466673E2,2.925670147E-2,-3.578495979E-2,2.016353607E-2
4.812466673E2,1.825463772E-2,1.033325195E-1,-7.405281067E-3
4.817466673E2,-3.604900837E-2,-4.821842909E-2,5.645370483E-2
4.822466673E2,1.130855083E-2,-5.609530210E-2,4.398059845E-2
4.827466673E2,2.479720116E-2,1.903420687E-2,1.808547974E-2
4.832466673E2,2.844667435E-2,-2.628278732E-2,5.457878113E-3
4.837466673E2,-5.794644356E-3,1.110166311E-2,-1.830005646E-2
4.842466673E2,-1.449012756E-2,-1.217716932E-2,3.598213196E-3
4.847466673E2,2.720403671E-2,-5.249857903E-3,4.682826996E-2
4.852466673E2,1.340937614E-2,-9.835720062E-3,-1.651573181E-2
4.857466673E2,-1.837877035E-1,-4.988551140E-3,-7.696151733E-4
4.862466673E2,3.494118452E-1,-6.692653894E-2,-6.142902374E-2
4.867466673E2,1.054036617E-1,1.574635506E-2,-9.456634521E-3
4.872466673E2,-7.702350616E-2,1.269078255E-2,-2.943706512E-2
4.877466673E2,-7.575523853E-2,9.256005287E-4,1.615810394E-2
4.882466673E2,-8.737719059E-2,-5.407929420E-4,-9.652137756E-3
4.887466673E2,-1.314272881E-1,7.995009422E-3,3.507900238E-2
4.892466673E2,-5.328798294E-2,-2.981048822E-2,7.792472839E-3
4.897466673E2,-3.058826923E-2,1.112377644E-2,-3.610610962E-3
4.902466673E2,-1.173293591E-2,-3.261506557E-3,-3.125190735E-3
4.907466673E2,-1.620531082E-3,1.356184483E-3,-5.653381348E-3
4.912466673E2,4.931926727E-3,-3.399968147E-3,1.780891418E-2
4.917466673E2,2.487778664E-3,7.013082504E-4,-1.186370850E-3
4.922466673E2,-1.854169369E-2,-8.587062359E-3,2.050399780E-4
4.927466673E2,-9.826070070E-2,2.611756325E-3,1.421928406E-3
4.932466673E2,-9.903502464E-2,-1.991689205E-2,-2.542972565E-2
4.937466673E2,-4.730097651E-1,8.275675774E-2,5.563068390E-2
4.942466673E2,-3.504766822E-1,7.619082928E-2,7.390022278E-3
4.947466673E2,-4.453107715E-2,1.946437359E-2,-1.307487488E-3
4.952466673E2,-3.610327840E-2,2.443790436E-2,2.687454224E-3
4.957466673E2,-1.985082030E-2,2.073407173E-3,-9.913444519E-3
4.962466673E2,-1.814553142E-2,-1.993572712E-2,5.617141724E-4
4.967466673E2,-3.387004137E-3,6.215572357E-3,4.800796509E-3
4.972466673E2,4.180461168E-3,-2.818226814E-3,-8.186340332E-3
4.977466673E2,-1.773208380E-3,-6.062507629E-3,-1.630973816E-2
4.982466673E2,9.232580662E-3,-3.887414932E-4,1.942825317E-2
4.987466673E2,-2.095103264E-4,-4.197239876E-3,-1.196861267E-3
4.992466673E2,1.475563645E-2,-7.172822952E-4,-1.629257202E-2
4.997466673E2,1.631453633E-2,2.853262424E-2,-7.800102234E-3
5.002466673E2,-1.289215684E-2,-1.954269409E-2,1.920795441E-2
5.007466673E2,1.645877957E-2,3.419268131E-2,5.924224854E-3
5.012466673E2,-1.477259398E-2,8.738160133E-3,-1.240062714E-2
5.017466673E2,2.373337746E-3,1.358783245E-2,9.854316711E-3
5.022466673E2,-3.327041864E-3,-1.719355583E-3,4.179954529E-3
5.027466673E2,3.797650337E-2,4.749214649E-2,-3.592491150E-3
5.032466673E2,2.696859837E-2,9.940743446E-3,7.826805115E-3
5.037466673E2,6.079345942E-3,2.941131592E-3,-3.656387329E-3
5.042466673E2,-6.131738424E-3,8.479237556E-3,-1.039791107E-2
5.047466673E2,3.995984793E-3,-1.369476318E-3,4.663467407E-4
5.052466673E2,1.555979252E-3,7.822871208E-3,1.708030701E-3
5.057466673E2,-1.524299383E-3,4.622101784E-3,-7.946968079E-3
5.062466673E2,-2.371966839E-4,-2.503931522E-2,6.827354431E-3
5.067466673E2,1.375907660E-2,1.892209053E-3,7.952690125E-3
5.072466673E2,3.186473250E-2,-3.157854080E-4,1.630783081E-4
5.077466673E2,-2.552413940E-2,1.626765728E-2,-5.196571350E-3
5.082466673E2,-1.143395901E-2,1.171791553E-2,-6.082534790E-3
5.087466673E2,-1.300409436E-2,3.012061119E-3,1.034736633E-3
5.092466673E2,1.602447033E-2,-7.485151291E-4,-7.847785950E-3
5.097466673E2,-1.152059436E-2,-1.128554344E-3,-2.661705017E-3
5.102466673E2,1.235753298E-3,6.474137306E-3,4.175186157E-3
5.107466673E2,1.351565123E-3,7.256150246E-3,5.265235901E-3
5.112466673E2,-1.109895110E-2,4.767298698E-3,1.889228821E-3
5.117466673E2,-1.071962714E-2,1.225113869E-3,-9.384155273E-4
5.122466673E2,5.293905735E-3,-1.796317101E-2,-5.297660828E-3
5.127466673E2,1.616805792E-3,-1.348817348E-2,1.290321350E-3
5.132466673E2,4.550784826E-3,1.148581505E-2,-7.448196411E-3
5.137466673E2,-2.904176712E-3,-3.787279129E-4,4.130363464E-3
5.142466673E2,-6.716415286E-2,-2.989447117E-2,2.166938782E-2
5.147466673E2,-3.052914739E-1,2.981102467E-2,1.032552719E-1
5.152466673E2,-4.523824751E-1,3.588080406E-3,-2.069759369E-2
5.157466673E2,-1.638025045E-2,-8.611321449E-3,-3.668785095E-3
5.162466673E2,1.246911287E-2,-8.200049400E-3,-1.260089874E-2
5.167466673E2,-1.555436850E-2,3.457522392E-2,-1.451492310E-2
5.172466673E2,6.958901882E-3,1.456415653E-2,5.724906921E-3
5.177466673E2,-5.298197269E-3,2.103388309E-2,7.057189941E-4
5.182466673E2,-5.789101124E-3,-3.127694130E-3,1.530838013E-2
5.187466673E2,1.030817628E-1,-1.782476902E-2,1.921653748E-2
5.192466673E2,5.324715376E-2,-6.941199303E-3,7.324218750E-3
5.197466673E2,1.808828115E-2,-1.742601395E-3,-3.775596619E-3
5.202466673E2,1.802849770E-2,6.112217903E-3,3.529548645E-3
5.207466673E2,-1.882416010E-2,-1.292240620E-2,-3.834724426E-3
5.212466673E2,-4.279875755E-2,1.585364342E-2,-1.062202454E-2
5.217466673E2,-1.668765396E-1,-3.933447599E-1,1.163578033E-1
5.222466673E2,3.495173454E-1,7.665252686E-1,-3.137884140E-1
5.227466673E2,9.821991622E-2,3.574030399E-1,-8.694744110E-2
5.232466673E2,8.395171911E-2,1.198723316E-1,-1.484012604E-2
5.237466673E2,8.369842917E-2,1.086633205E-1,-3.580379486E-2
5.242466673E2,4.604476318E-2,4.109406471E-2,-5.912876129E-2
5.247466673E2,-2.101387829E-2,4.003548622E-2,-9.664535522E-3
5.252466673E2,1.777358353E-1,-8.757138252E-2,-5.434226990E-2
5.257466673E2,3.737983108E-2,-3.878355026E-2,2.447319031E-2
5.262466673E2,-9.229153395E-3,7.947397232E-2,5.948162079E-2
5.267466673E2,-1.016908661E-1,-1.827456951E-1,9.196662903E-2
5.272466673E2,-4.265915602E-2,2.134375572E-1,-7.308006287E-2
5.277466673E2,2.940551937E-2,-2.785376310E-1,-2.423286438E-2
5.282466673E2,-2.141613513E-2,3.063933849E-1,2.476978302E-2
5.287466673E2,2.614301443E-2,-2.257066965E-1,-9.132385254E-3
5.292466673E2,2.375960350E-1,2.107942104E-1,-2.812004089E-2
5.297466673E2,4.624921083E-1,-9.590125084E-2,-1.621398926E-1
5.302466673E2,1.243939400E-1,-4.894781113E-2,-5.153560638E-2
5.307466673E2,1.141315699E-1,1.237630844E-3,-2.071952820E-2
5.312466673E2,1.721596718E-2,7.857799530E-3,-4.103565216E-2
5.317466673E2,2.460002899E-2,-1.949455738E-1,-6.460571289E-2
5.322466673E2,-8.444428444E-3,-9.239387512E-2,-7.320404053E-3
5.327466673E2,4.566419125E-2,1.758217812E-2,2.367305756E-2
5.332466673E2,-6.028175354E-3,2.704424858E-1,-2.894401550E-2
5.337466673E2,-3.464853764E-2,-2.781847715E-1,1.385307312E-2
5.342466673E2,-3.489315510E-2,-4.462265968E-2,1.482868195E-2
5.347466673E2,-7.841587067E-4,7.096409798E-2,-2.987384796E-2
5.352466673E2,-2.761244774E-3,5.220580101E-2,-1.495361328E-2
5.357466673E2,-1.732516289E-2,-6.537413597E-2,-1.447772980E-2
5.362466673E2,-1.840901375E-2,-1.388657093E-2,4.434680939E-2
5.367466673E2,3.737759590E-2,-3.117477894E-2,4.226684570E-3
5.372466673E2,-1.650214195E-3,-4.260981083E-2,4.263401031E-2
5.377466673E2,1.080727577E-2,5.330967903E-2,2.240276337E-2
5.382466673E2,1.170277596E-2,-1.807367802E-2,-1.496601105E-2
5.387466673E2,-6.217563152E-2,-1.128941774E-1,2.734470367E-2
5.392466673E2,1.790815592E-1,-4.753470421E-2,1.066780090E-2
5.397466673E2,8.281457424E-2,4.667732716E-1,-3.289985657E-2
5.402466673E2,5.330932140E-2,8.720040321E-2,-4.580211639E-2
5.407466673E2,-3.972864151E-2,2.626729012E-2,9.327602386E-2
5.412466673E2,4.094088078E-2,6.637978554E-2,3.969192505E-2
5.417466673E2,-7.265365124E-2,2.486729622E-2,-2.169895172E-2
5.422466673E2,9.185910225E-2,4.543924332E-2,-6.473541260E-3
5.427466673E2,4.695332050E-2,8.279347420E-2,-3.594207764E-2
5.432466673E2,-4.092943668E-2,4.552531242E-2,7.196426392E-3
5.437466673E2,3.707659245E-2,-7.433652878E-3,8.306503296E-4
5.442466673E2,5.831718445E-2,1.496477127E-1,-1.654338837E-2
5.447466673E2,-9.208440781E-2,1.455788612E-1,-7.915496826E-4
5.452466673E2,-4.171848297E-3,-2.309901714E-1,-6.293296814E-3
5.457466673E2,-7.925695181E-2,-2.216334343E-1,1.783847809E-2
5.462466673E2,-2.561132014E-1,1.275100708E-1,3.600406647E-2
5.467466673E2,-2.407325804E-1,4.781270027E-2,-3.075885773E-2
5.472466673E2,-2.830335498E-2,3.761792183E-2,-1.349449158E-3
5.477466673E2,5.423092842E-2,8.658432961E-2,-1.481246948E-2
5.482466673E2,1.979330182E-2,4.910326004E-2,-1.404762268E-3
5.487466673E2,7.027524710E-2,3.858089447E-3,-1.546955109E-2
5.492466673E2,2.070518136E-1,-1.253302097E-1,1.604366302E-2
5.497466673E2,1.479855776E-1,-1.268470287E-1,-3.273773193E-2
5.502466673E2,2.558487654E-1,4.065680504E-2,-4.000949860E-2
5.507466673E2,7.503974438E-2,-2.056717873E-2,-7.016181946E-3
5.512466673E2,7.351672649E-2,-1.264884472E-1,-3.871917725E-3
5.517466673E2,7.510185242E-3,-9.565591812E-3,1.176166534E-2
5.522466673E2,1.025903225E-2,7.460117340E-4,2.203941345E-3
5.527466673E2,7.868051529E-3,7.038831711E-3,2.911758423E-2
5.532466673E2,-7.240295410E-3,3.652024269E-2,4.827213287E-2
5.537466673E2,-4.400408268E-2,-4.623889923E-2,-5.183696747E-2
5.542466673E2,2.189069986E-1,-1.646435261E-1,-3.759384155E-2
5.547466673E2,2.656116486E-1,-3.161644936E-2,6.407737732E-3
5.552466673E2,-2.326750755E-2,9.443259239E-2,2.376079559E-2
5.557466673E2,5.765438080E-3,2.145528793E-3,-6.583213806E-3
5.562466673E2,-4.917144775E-2,-6.668066978E-2,-2.757167816E-2
5.567466673E2,3.259778023E-2,5.965232849E-3,9.193420410E-3
5.572466673E2,-1.674751043E-1,1.521704197E-1,-1.395130157E-2
5.577466673E2,-1.199977398E-1,-1.183662415E-1,5.963325500E-3
5.582466673E2,-4.148757458E-2,-4.565596581E-2,-1.694774628E-2
5.587466673E2,-5.179286003E-3,4.357051849E-2,-6.021213531E-2
5.592466673E2,-3.475844860E-3,-1.337444782E-1,-9.037971497E-3
5.597466673E2,4.100978374E-3,1.625063419E-1,-2.500534058E-2
5.602466673E2,-1.473474503E-2,-1.115703583E-2,3.499031067E-3
5.607466673E2,-2.509933710E-2,6.266331673E-2,-5.624771118E-3
5.612466673E2,-1.816928387E-3,-5.352687836E-2,1.456642151E-2
5.617466673E2,-6.465137005E-3,3.930282593E-2,3.433704376E-2
5.622466673E2,9.126603603E-3,6.986927986E-2,5.533218384E-3
5.627466673E2,-1.451224089E-2,-2.872157097E-2,6.086635590E-2
5.632466673E2,-1.816093922E-3,4.856824875E-2,3.020191193E-2
5.637466673E2,-9.031414986E-3,1.728415489E-2,1.648521423E-2
5.642466673E2,7.912516594E-4,-3.252482414E-2,-1.870250702E-2
5.647466673E2,-1.434677839E-2,8.496236801E-2,-1.739978790E-2
5.652466673E2,-3.159821033E-3,-1.091002226E-1,3.032779694E-2
5.657466673E2,1.083850861E-2,6.107664108E-2,-4.496288300E-2
5.662466673E2,8.984863758E-3,-4.378390312E-2,-4.677200317E-2
5.667466673E2,2.504581213E-2,7.141709328E-2,4.274749756E-2
5.672466673E2,7.925271988E-3,2.949714661E-3,4.359245300E-3
5.677466673E2,5.232691765E-4,2.997922897E-2,-3.233051300E-2
5.682466673E2,6.838262081E-3,6.211161613E-2,4.746437073E-3
5.687466673E2,6.303787231E-3,-2.879190445E-2,-3.016471863E-3
5.692466673E2,2.981561422E-2,-1.579451561E-2,7.070541382E-3
5.697466673E2,8.570611477E-3,-7.017207146E-2,1.364707947E-3
5.702466673E2,1.199805737E-2,-8.803915977E-2,3.280353546E-2
5.707466673E2,-7.796287537E-5,-1.669156551E-1,2.006912231E-2
5.712466673E2,1.676762104E-2,-1.119649410E-1,-4.349708557E-3
5.717466673E2,2.473998070E-2,-9.828138351E-2,-4.254913330E-2
5.722466673E2,3.897690773E-2,-4.651761055E-2,-1.345634460E-3
5.727466673E2,5.693525076E-2,-5.088090897E-2,2.634048462E-2
5.732466673E2,1.598954201E-2,1.406574249E-2,-6.787300110E-3
5.737466673E2,3.322660923E-3,-4.705691338E-2,2.221393585E-2
5.742466673E2,4.404950142E-2,-1.039481163E-2,-6.237030029E-3
5.747466673E2,4.820942879E-2,2.389168739E-2,-4.660892487E-2
5.752466673E2,1.110345125E-2,2.333307266E-2,-6.292438507E-2
5.757466673E2,-1.124845743E-1,1.840329170E-2,-2.719020844E-2
5.762466673E2,-1.562714875E-1,7.638716698E-2,-3.320026398E-2
5.767466673E2,4.381537437E-2,4.141092300E-2,-4.875755310E-2
5.772466673E2,-1.902359724E-2,3.196239471E-3,6.089210510E-3
5.777466673E2,1.430231333E-2,-2.954459190E-2,8.058547974E-3
5.782466673E2,-2.072826028E-2,-2.562117577E-2,3.373432159E-2
5.787466673E2,4.940330982E-3,4.121661186E-2,-1.776409149E-2
5.792466673E2,-8.795461059E-2,4.488396645E-2,2.044200897E-2
5.797466673E2,-4.685088992E-2,6.103229523E-2,-2.108860016E-2
5.802466673E2,-2.753858268E-2,4.837870598E-2,-3.615283966E-2
5.807466673E2,-8.328393102E-3,6.414842606E-2,-2.447986603E-2
5.812466673E2,-1.627163589E-2,1.719596386E-1,-1.467418671E-2
5.817466673E2,2.169358730E-2,-8.158957958E-2,2.681732178E-2
5.822466673E2,9.366413951E-2,1.143240929E-1,-1.573562622E-2
5.827466673E2,5.991742015E-2,2.370142937E-2,-4.809951782E-2
5.832466673E2,2.060505748E-2,1.098768711E-1,-2.399253845E-2
5.837466673E2,5.627173185E-2,6.572246552E-2,-1.339912415E-3
5.842466673E2,2.659541368E-2,5.717349052E-2,-1.687908173E-2
5.847466673E2,-2.401411533E-3,4.461741447E-2,-2.838325500E-2
5.852466673E2,4.600405693E-3,2.031850815E-2,-2.610492706E-2
5.857466673E2,2.251809835E-2,1.153365374E-1,-3.272628784E-2
5.862466673E2,-1.073545218E-2,2.997982502E-2,1.739692688E-2
5.867466673E2,3.318333626E-2,6.568884850E-2,-4.021739960E-2
5.872466673E2,1.176622510E-2,7.653141022E-2,3.450965881E-2
5.877466673E2,6.994923949E-2,1.705574989E-2,-7.707500458E-2
5.882466673E2,4.802048206E-2,9.434199333E-2,2.839088440E-2
5.887466673E2,3.977823257E-2,-2.286791801E-2,2.164077759E-2
5.892466673E2,5.753135681E-2,4.819989204E-2,7.259368896E-3
5.897466673E2,9.813058376E-2,-3.446757793E-2,-6.539249420E-2
5.902466673E2,1.909941435E-1,-5.429530144E-2,2.762794495E-3
5.907466673E2,7.091832161E-2,4.814934731E-2,9.292602539E-3
5.912466673E2,4.431843758E-3,-9.424197674E-2,4.830360413E-3
5.917466673E2,9.675025940E-3,-5.224883556E-2,-1.969337463E-3
5.922466673E2,7.508873940E-3,-5.052292347E-2,3.603458405E-2
5.927466673E2,2.547496557E-2,-2.780079842E-3,-5.960178375E-2
5.932466673E2,-1.057517529E-2,-1.221808195E-1,2.281284332E-2
5.937466673E2,4.910540581E-2,-4.327678680E-2,2.233123779E-2
5.942466673E2,-5.766719580E-2,-9.794414043E-2,1.507854462E-2
5.947466673E2,-2.499073744E-2,-8.298492432E-2,-2.019500732E-2
5.952466673E2,1.306974888E-2,-2.524375916E-3,1.889896393E-2
5.957466673E2,-3.136533499E-2,-9.141051769E-2,5.174446106E-2
5.962466673E2,-1.792728901E-3,-3.224897385E-2,-1.959323883E-2
5.967466673E2,3.138923645E-2,-4.743540287E-2,-1.881694794E-2
5.972466673E2,8.179461956E-2,-2.401554585E-2,-2.300071716E-2
5.977466673E2,4.824173450E-2,-5.405068398E-3,-2.210807800E-2
5.982466673E2,7.262837887E-2,1.625692844E-2,-7.504463196E-3
5.987466673E2,1.237740517E-1,6.352066994E-3,1.358222961E-2
5.992466673E2,3.852665424E-2,6.718325615E-2,1.954555511E-2
5.997466673E2,6.798660755E-2,-5.964338779E-2,5.149841309E-5
6.002466673E2,5.469977856E-2,5.415320396E-2,-9.908676147E-3
6.007466673E2,1.976954937E-2,-6.153738499E-2,6.472587585E-3
6.012466673E2,1.760828495E-2,3.013908863E-2,-6.237983704E-3
6.017466673E2,1.517856121E-2,-3.625285625E-2,-8.935928345E-4
6.022466673E2,9.370803833E-3,3.079926968E-2,1.038646698E-2
6.027466673E2,-5.454802513E-2,-5.858063698E-3,4.107475281E-2
6.032466673E2,-8.207440376E-3,1.430428028E-2,1.747798920E-2
6.037466673E2,-1.106560230E-2,8.578300476E-3,-7.733345032E-3
6.042466673E2,5.655860901E-2,-3.927886486E-2,-2.654552460E-2
6.047466673E2,1.056406498E-1,3.614902496E-3,-6.633758545E-3
6.052466673E2,1.361453533E-1,1.330602169E-2,-6.731319427E-2
6.057466673E2,-1.188862324E-2,-1.273810863E-2,-1.872539520E-2
6.062466673E2,-6.782114506E-2,3.206825256E-2,-1.516866684E-1
6.067466673E2,-4.108667374E-3,-1.327812672E-2,-1.993846893E-1
6.072466673E2,-9.731411934E-3,1.100397110E-2,3.973960876E-3
6.077466673E2,-4.270315170E-3,1.625442505E-2,-4.455852509E-2
6.082466673E2,4.152059555E-4,-5.238997936E-2,-4.809188843E-2
6.087466673E2,7.398521900E-2,1.484274864E-3,-5.173778534E-2
6.092466673E2,-1.455641985E-1,5.082857609E-2,3.159809113E-2
6.097466673E2,-2.276395559E-1,4.600048065E-3,2.369976044E-2
6.102466673E2,-3.720555902E-1,6.987500191E-2,2.041625977E-2
6.107466673E2,8.652627468E-3,-2.629733086E-2,7.371902466E-4
6.112466673E2,-9.544390440E-2,7.775068283E-3,8.316993713E-3
6.117466673E2,7.377803326E-3,-6.243705750E-3,-7.081031799E-3
6.122466673E2,-1.177471876E-2,-7.740259171E-4,3.178596497E-3
6.127466673E2,-8.872687817E-3,6.896257401E-4,-1.115798950E-4
6.132466673E2,4.686534405E-3,2.406716347E-3,-5.938529968E-3
6.137466673E2,1.257175207E-2,1.360166073E-2,-8.878707886E-4
6.142466673E2,-1.290321350E-3,6.758809090E-3,1.548099518E-2
6.147466673E2,1.301854849E-2,-2.348506451E-2,-3.269386292E-2
6.152466673E2,2.599418163E-3,1.148462296E-3,1.964950562E-2
6.157466673E2,-4.866427183E-2,-2.001345158E-2,5.724906921E-3
6.162466673E2,-8.162873983E-2,-1.499998569E-1,-2.084827423E-2
6.167466673E2,-1.461820126E0,-6.173443794E-1,6.821632385E-1
6.172466673E2,-1.571660042E-1,1.739385128E-1,-1.101112366E-1
6.177466673E2,1.964855194E-2,1.703333855E-2,2.164363861E-2
6.182466673E2,7.792067528E-2,2.421102524E-1,-1.966295242E-1
6.187466673E2,2.333748341E-2,-7.145905495E-2,6.980895996E-4
6.192466673E2,-5.365788937E-2,-1.150033474E-1,3.623676300E-2
6.197466673E2,-7.421851158E-2,-5.063199997E-2,2.827548981E-2
6.202466673E2,-6.496083736E-2,-1.174449921E-3,2.608299255E-3
6.207466673E2,-2.087062597E-2,3.888607025E-4,7.445335388E-3
6.212466673E2,-1.907533407E-2,1.380681992E-3,-9.438514709E-3
6.217466673E2,-6.788253784E-3,-6.754159927E-3,9.021759033E-4
6.222466673E2,-8.774995804E-4,-1.472830772E-2,-4.554748535E-3
6.227466673E2,-2.659916878E-3,8.731126785E-3,-4.415512085E-4
6.232466673E2,1.461160183E-2,1.379942894E-2,-3.952980042E-3
6.237466673E2,1.298427582E-3,2.649545670E-3,-4.062652588E-3
6.242466673E2,-7.159650326E-3,1.068830490E-3,8.868217468E-3
6.247466673E2,1.680850983E-4,2.288722992E-2,7.969856262E-3
6.252466673E2,-1.496613026E-3,4.323959351E-3,-4.683494568E-3
6.257466673E2,-7.367134094E-5,-2.440774441E-2,9.981155396E-3
6.262466673E2,3.247678280E-3,-1.344907284E-2,5.007743835E-3
6.267466673E2,2.591073513E-3,1.127195358E-2,-1.046085358E-2
6.272466673E2,2.966105938E-3,-5.264282227E-4,-8.196830750E-3
6.277466673E2,-2.325415611E-3,5.970478058E-3,-1.433372498E-3
6.282466673E2,-3.918468952E-3,1.871609688E-2,-7.571220398E-3
6.287466673E2,2.074122429E-3,7.913589478E-3,1.420021057E-3
6.292466673E2,-5.324250460E-2,-6.268799305E-2,2.073192596E-2
6.297466673E2,-8.406996727E-3,-4.209208488E-2,5.253791809E-3
6.302466673E2,5.278909206E-2,8.292460442E-2,-3.897285461E-2
6.307466673E2,-1.513504982E-2,1.005744934E-2,6.934165955E-3
6.312466673E2,-1.059823036E-1,2.495265007E-2,4.538059235E-2
6.317466673E2,-1.933691800E-1,1.081776619E-2,4.133796692E-2
6.322466673E2,-3.618719876E-1,2.006888390E-2,5.038833618E-2
6.327466673E2,-2.283466160E-1,2.242088318E-2,5.578994751E-2
6.332466673E2,-1.441357136E-1,7.787942886E-3,3.564834595E-3
6.337466673E2,9.048237652E-2,-1.841473579E-2,-2.944183350E-2
6.342466673E2,4.696960747E-2,1.598858833E-2,1.790046692E-3
6.347466673E2,1.167262346E-2,3.139972687E-4,8.546829224E-3
6.352466673E2,-2.152390778E-3,-2.472352982E-2,5.910873413E-3
6.357466673E2,1.397500932E-2,4.106760025E-3,-1.055240631E-2
6.362466673E2,-5.012594163E-3,1.162958145E-2,-1.240539551E-2
6.367466673E2,-1.749207824E-2,-2.847504616E-2,1.014995575E-2
6.372466673E2,-2.527482808E-3,-1.853466034E-2,-1.430511475E-5
6.377466673E2,-1.789778471E-2,5.628585815E-3,5.276679993E-3
6.382466673E2,-8.976466954E-3,-3.050470352E-2,4.966735840E-3
6.387466673E2,-1.351223141E-2,-1.545071602E-2,2.157878876E-2
6.392466673E2,-1.233300939E-2,-2.489829063E-2,7.133483887E-4
6.397466673E2,4.645392299E-2,2.632784843E-2,-1.214504242E-2
6.402466673E2,1.769699156E-3,-5.037236214E-2,-1.338672638E-2
6.407466673E2,1.274262071E-1,-8.965015411E-3,-1.515579224E-2
6.412466673E2,1.106463075E-1,-4.925513268E-2,5.167961121E-3
6.417466673E2,-7.314924896E-2,-5.077791214E-2,-5.012512207E-3
6.422466673E2,-7.441407442E-2,2.297472954E-2,3.550434113E-2
6.427466673E2,-5.926208198E-2,-5.115246773E-2,-3.070831299E-3
6.432466673E2,-2.331729978E-2,-2.975535393E-2,2.577304840E-2
6.437466673E2,3.793917596E-3,-1.313924789E-3,-2.040195465E-2
6.442466673E2,-2.853874303E-2,-3.735208511E-2,3.943443298E-3
6.447466673E2,-2.372954786E-2,-4.442620277E-2,-2.226638794E-2
6.452466673E2,-1.015072316E-2,7.489919662E-3,-3.073883057E-2
6.457466673E2,-8.446499705E-3,-2.793884277E-2,-3.988361359E-2
6.462466673E2,-3.371722996E-2,3.609871864E-2,4.340553284E-2
6.467466673E2,3.168097138E-2,-1.107263565E-2,-5.381584167E-3
6.472466673E2,5.146744847E-2,5.850768089E-2,3.845024109E-2
6.477466673E2,2.027297020E-2,1.623106003E-2,7.585525513E-3
6.482466673E2,1.950493455E-2,1.139404774E-1,-1.616477966E-3
6.487466673E2,4.758098722E-2,7.122111320E-2,1.888370514E-2
6.492466673E2,4.824778438E-2,5.956363678E-2,1.926136017E-2
6.497466673E2,3.357797861E-2,-2.957177162E-2,4.936313629E-2
6.502466673E2,1.003267169E-1,1.680414677E-1,-2.890968323E-2
6.507466673E2,5.780816078E-2,2.096636295E-1,1.922607422E-3
6.512466673E2,7.958787680E-2,-6.258726120E-3,3.827857971E-2
6.517466673E2,8.042585850E-2,2.244760990E-1,-9.514904022E-2
6.522466673E2,4.691165686E-2,1.700813770E-1,-5.995082855E-2
6.527466673E2,3.716146946E-2,1.902470589E-1,5.521774292E-4
6.532466673E2,5.218613148E-2,2.081568241E-1,8.816623688E-2
6.537466673E2,4.138946533E-2,1.745350361E-1,-2.145862579E-2
6.542466673E2,5.900818110E-2,1.472032070E-1,-5.572319031E-3
6.547466673E2,4.845535755E-2,1.088976860E-2,-1.257896423E-2
6.552466673E2,6.728869677E-2,7.679915428E-2,6.863021851E-2
6.557466673E2,7.469421625E-2,-3.800511360E-2,-9.698867798E-3
6.562466673E2,5.940347910E-2,6.288361549E-2,1.059150696E-2
6.567466673E2,6.542706490E-2,4.906964302E-2,5.571651459E-2
6.572466673E2,7.735878229E-2,9.003472328E-2,-3.251361847E-2
6.577466673E2,3.527998924E-2,4.982733727E-2,-3.026962280E-3
6.582466673E2,2.094936371E-2,7.714033127E-3,-1.674079895E-2
6.587466673E2,1.257669926E-2,-3.440928459E-2,-2.936077118E-2
6.592466673E2,4.168069363E-2,-1.689870358E-1,2.944660187E-2
6.597466673E2,4.214942455E-2,-8.613085747E-2,-3.357887268E-3
6.602466673E2,3.465026617E-2,-2.411940098E-1,3.448772430E-2
6.607466673E2,1.918852329E-2,-8.801102638E-2,6.024360657E-3
6.612466673E2,1.829624176E-2,-3.454642296E-1,1.140613556E-1
6.617466673E2,-1.437330246E-2,4.129409790E-3,9.334564209E-2
6.622466673E2,4.005610943E-3,-2.250858545E-1,1.733589172E-2
6.627466673E2,1.504951715E-2,1.294703484E-1,7.991886139E-2
6.632466673E2,1.169461012E-2,-4.590535164E-2,-6.844806671E-2
6.637466673E2,6.575047970E-3,2.080941200E-2,9.702682495E-3
6.642466673E2,-2.715426683E-2,-4.660201073E-2,-5.445480347E-3
6.647466673E2,-1.507663727E-2,-1.416611671E-2,-1.490592957E-3
6.652466673E2,7.284998894E-3,-1.051855087E-2,-2.316951752E-2
6.657466673E2,1.982438564E-2,1.082870960E-1,1.117229462E-2
6.662466673E2,1.060527563E-2,-1.783515215E-1,-4.291534424E-4
6.667466673E2,-2.406358719E-3,1.652073860E-2,3.559398651E-2
6.672466673E2,1.203590631E-2,-1.052093506E-1,-7.157230377E-2
6.677466673E2,2.837151289E-2,3.421545029E-3,-9.536743164E-3
6.682466673E2,-2.802449465E-2,5.806910992E-2,3.365516663E-3
6.687466673E2,2.983272076E-3,-3.306567669E-2,-2.093410492E-2
6.692466673E2,-2.003371716E-2,1.744759083E-2,3.595829010E-2
6.697466673E2,4.775279760E-2,7.053816319E-2,1.421928406E-2
6.702466673E2,8.167701960E-2,1.704090834E-1,-5.592250824E-2
6.707466673E2,-9.895378351E-2,-1.503276825E-2,2.073574066E-2
6.712466673E2,-9.639969468E-2,5.544531345E-2,-3.746032715E-2
6.717466673E2,-6.135559082E-2,-3.127467632E-2,2.387523651E-2
6.722466673E2,-1.726421714E-2,1.570808887E-2,-1.975440979E-2
6.727466673E2,1.379135251E-2,1.068800688E-1,7.451820374E-2
6.732466673E2,-1.275539398E-3,-1.033184528E-1,-1.646518707E-2
6.737466673E2,5.367007852E-2,9.491288662E-2,5.572319031E-3
6.742466673E2,5.538621545E-2,-7.995963097E-3,-2.156352997E-2
6.747466673E2,3.018808365E-2,2.790582180E-1,2.848434448E-2
6.752466673E2,1.835638285E-2,-3.279805183E-3,-5.865097046E-2
6.757466673E2,1.093208790E-3,1.086233854E-1,5.697154999E-2
6.762466673E2,-3.599286079E-3,9.931564331E-2,-6.456375122E-4
6.767466673E2,9.091436863E-3,2.068704367E-1,1.427745819E-2
6.772466673E2,5.711191893E-2,1.204123497E-1,-6.077098846E-2
6.777466673E2,8.621811867E-3,3.703439236E-2,-8.307456970E-3
6.782466673E2,6.401282549E-2,-3.442811966E-2,3.302955627E-2
6.787466673E2,3.850293159E-2,2.132058144E-2,-3.472423553E-2
6.792466673E2,6.316483021E-3,6.807088852E-3,-3.373432159E-2
6.797466673E2,6.393569708E-2,-2.131826878E-1,6.246566772E-4
6.802466673E2,1.934438944E-2,-3.550100327E-2,1.478672028E-2
6.807466673E2,-4.506826401E-3,-1.037522554E-1,-6.983566284E-2
6.812466673E2,2.588039637E-2,-1.842184067E-1,-6.286907196E-2
6.817466673E2,4.297852516E-3,-1.647865772E-2,-1.965999603E-2
6.822466673E2,6.643474102E-3,-6.277406216E-2,-2.271938324E-2
6.827466673E2,-2.000415325E-2,-7.272291183E-2,-1.943778992E-2
6.832466673E2,-1.078778505E-2,-3.946185112E-2,3.869438171E-2
6.837466673E2,-1.856574416E-1,-1.131113768E-1,1.654224396E-1
6.842466673E2,-1.894267648E-1,5.789935589E-2,4.050827026E-2
6.847466673E2,-1.875624657E-1,-2.023851871E-2,1.070013046E-1
6.852466673E2,-8.170382679E-2,-1.742959023E-3,-3.567218781E-2
6.857466673E2,-9.931454808E-2,1.706683636E-2,2.402782440E-2
6.862466673E2,2.416332066E-2,-2.357817888E-1,2.404022217E-2
6.867466673E2,-7.720164955E-2,1.424454451E-1,1.820659637E-2
6.872466673E2,1.648882404E-2,-1.302207708E-1,1.810932159E-2
6.877466673E2,2.389946580E-2,1.060962677E-4,2.928256989E-2
6.882466673E2,3.144475818E-2,-7.711172104E-3,-5.408191681E-2
6.887466673E2,3.197088838E-3,2.724587917E-2,1.457881927E-2
6.892466673E2,-6.568193436E-3,-4.535448551E-2,-3.602695465E-2
6.897466673E2,-3.827509284E-2,6.801700592E-2,6.628036499E-2
6.902466673E2,-6.175731122E-2,-4.595100880E-2,2.762889862E-2
6.907466673E2,1.143121272E-1,4.875814915E-2,1.907444000E-2
6.912466673E2,2.218855917E-1,5.924916267E-2,-1.560983658E-1
6.917466673E2,3.902444243E-2,2.120482922E-1,-9.517955780E-2
6.922466673E2,8.515477180E-3,2.246177197E-2,-2.167196274E-1
6.927466673E2,-1.005905867E-2,1.186474562E-1,-2.729129791E-2
6.932466673E2,-1.174944639E-2,8.212244511E-2,-4.970550537E-2
6.937466673E2,4.978179932E-4,6.256186962E-2,-4.333400726E-2
6.942466673E2,-5.419629812E-2,1.099780798E-1,3.915786743E-2
6.947466673E2,-4.024565220E-2,5.735015869E-2,5.429744720E-2
6.952466673E2,-5.393505096E-3,-7.472836971E-2,-1.372337341E-3
6.957466673E2,1.638549566E-2,1.692525148E-1,-1.453399658E-3
6.962466673E2,5.920106173E-2,-4.679656029E-2,-5.129718781E-2
6.967466673E2,2.970606089E-2,3.745090961E-2,2.012252808E-4
6.972466673E2,8.376586437E-2,-2.776169777E-2,-9.827041626E-2
6.977466673E2,4.573541880E-2,-9.758722782E-2,4.422760010E-2
6.982466673E2,2.108901143E-1,5.322313309E-2,1.866626740E-2
6.987466673E2,3.430092335E-2,2.946019173E-3,3.531360626E-2
6.992466673E2,8.779561520E-2,-4.586303234E-2,5.000495911E-2
6.997466673E2,2.444016933E-2,8.365488052E-2,7.574176788E-2
7.002466673E2,3.771758080E-2,-1.793335676E-1,1.097974777E-1
7.007466673E2,-3.428721428E-2,2.276008129E-1,-7.359695435E-2
7.012466673E2,-4.767060280E-3,-1.318702698E-1,-6.552505493E-2
7.017466673E2,-3.390759230E-2,4.734337330E-2,2.552032471E-2
7.022466673E2,-5.288428068E-2,-8.053100109E-2,-5.000400543E-2
7.027466673E2,1.581603289E-2,6.884419918E-2,-1.039409637E-2
7.032466673E2,6.096780300E-3,-7.209742069E-2,-4.331111908E-2
7.037466673E2,1.249086857E-2,2.208673954E-2,4.547595978E-2
7.042466673E2,2.743154764E-2,-4.110217094E-3,7.940292358E-3
7.047466673E2,1.178392768E-1,-1.314938068E-2,6.398200989E-3
7.052466673E2,8.654683828E-2,4.167783260E-2,-4.673004150E-3
7.057466673E2,4.030466080E-3,-1.769161224E-2,1.144886017E-2
7.062466673E2,-2.606213093E-2,-2.715289593E-2,1.402378082E-2
7.067466673E2,7.346129417E-2,-6.170713902E-2,-2.076435089E-2
7.072466673E2,1.119679213E-1,8.653128147E-2,-4.037570953E-2
7.077466673E2,-2.894997597E-3,1.389098167E-2,1.130008698E-2
7.082466673E2,2.858269215E-2,6.399190426E-2,-9.908676147E-3
7.087466673E2,2.359557152E-2,3.289735317E-2,-8.989334106E-3
7.092466673E2,-5.064356327E-2,1.753294468E-2,1.399135590E-2
7.097466673E2,-8.545792103E-2,-1.067161560E-2,7.498741150E-3
7.102466673E2,-1.190155745E-1,1.278805733E-2,6.406784058E-3
7.107466673E2,-4.019486904E-2,-7.363796234E-3,-1.084423065E-2
7.112466673E2,-2.042865753E-2,-1.997673512E-2,1.020908356E-2
7.117466673E2,1.544606686E-2,2.915060520E-2,8.650779724E-3
7.122466673E2,4.973292351E-3,-1.482963562E-4,-5.483627319E-4
7.127466673E2,9.516835213E-3,-4.508614540E-2,4.833984375E-2
7.132466673E2,1.288354397E-2,7.993817329E-3,-2.062320709E-2
7.137466673E2,-6.392824650E-2,1.149058342E-3,1.428222656E-2
7.142466673E2,-3.751349449E-2,2.505886555E-2,-6.520271301E-3
7.147466673E2,-1.231753826E-2,-3.498554230E-3,-7.476806641E-4
7.152466673E2,1.377296448E-2,-3.272056580E-3,-3.046989441E-3
7.157466673E2,1.766920090E-2,6.082296371E-3,9.254455566E-3
7.162466673E2,-5.944132805E-3,-1.967155933E-2,9.924888611E-3
7.167466673E2,-2.756630778E-1,5.523478985E-2,9.834289551E-3
7.172466673E2,-2.982067168E-1,6.444573402E-2,7.710456848E-3
7.177466673E2,2.546226978E-2,-1.171982288E-2,-4.101753235E-3
7.182466673E2,-4.925966263E-3,-1.835823059E-4,1.914024353E-3
7.187466673E2,-8.684277534E-3,1.743328571E-2,-4.431724548E-3
7.192466673E2,-7.172465324E-3,8.650541306E-3,-2.819061279E-3
7.197466673E2,1.629412174E-3,-2.176535130E-2,-1.013755798E-2
7.202466673E2,-6.960034370E-4,-8.803963661E-3,1.053810120E-3
7.207466673E2,-8.700191975E-3,4.450798035E-3,-2.523422241E-3
7.212466673E2,1.462256908E-2,-2.259969711E-2,4.900932312E-3
7.217466673E2,-3.238260746E-3,-9.093046188E-3,-1.170825958E-2
7.222466673E2,9.150326252E-3,-8.981347084E-3,-1.107501984E-2
7.227466673E2,-9.492576122E-3,2.660393715E-3,-9.850502014E-3
7.232466673E2,-1.041328907E-2,5.357742310E-3,-9.531974792E-3
7.237466673E2,2.057397366E-2,-5.805492401E-3,-1.723289490E-3
7.242466673E2,-3.846949339E-2,-5.895948410E-2,1.261997223E-2
7.247466673E2,2.597576380E-2,1.442098618E-2,-4.420375824E-2
7.252466673E2,-1.154281497E-1,-1.978206635E-2,1.645088196E-2
7.257466673E2,1.874285936E-2,4.723930359E-2,-8.716583252E-3
7.262466673E2,4.853844643E-3,2.186083794E-2,-4.263019562E-2
7.267466673E2,-2.872508764E-2,-5.309045315E-2,3.939151764E-2
7.272466673E2,1.562654972E-2,1.447772980E-2,-7.611274719E-3
7.277466673E2,2.453303337E-2,-9.319305420E-3,-1.378250122E-2
7.282466673E2,-3.833115101E-3,-6.661176682E-3,-4.840850830E-3
7.287466673E2,-3.002345562E-3,-4.336118698E-3,1.384258270E-2
7.292466673E2,2.199023962E-2,1.133680344E-4,1.534366608E-2
7.297466673E2,3.927052021E-3,3.126716614E-2,-1.704883575E-2
7.302466673E2,-2.950906754E-3,-2.156567574E-2,2.254104614E-2
7.307466673E2,-4.590570927E-3,4.816293716E-3,3.738403320E-4
7.312466673E2,1.828742027E-2,3.745198250E-3,-1.263332367E-2
7.317466673E2,-4.811811447E-2,-4.404664040E-3,7.610321045E-3
7.322466673E2,-1.507893205E-1,-1.003409624E-1,4.156589508E-2
7.327466673E2,-6.377786398E-2,5.080628395E-2,-4.883003235E-2
7.332466673E2,1.241165400E-2,-6.254911423E-4,-2.505302429E-2
7.337466673E2,-6.282329559E-5,-1.499569416E-2,-1.214313507E-2
7.342466673E2,-1.695781946E-2,7.091403008E-3,1.972103119E-2
7.347466673E2,2.116763592E-2,-3.371238708E-3,1.814270020E-2
7.352466673E2,-5.203485489E-5,6.672739983E-3,-1.574993134E-2
7.357466673E2,-6.740629673E-3,-3.462433815E-3,-1.601219177E-3
7.362466673E2,-4.802882671E-3,2.351474762E-2,-2.683448792E-2
7.367466673E2,2.187490463E-3,-5.984306335E-3,4.880905151E-3
7.372466673E2,5.109369755E-3,-2.841281891E-2,-3.878593445E-3
7.377466673E2,6.977915764E-4,2.394533157E-2,-4.849433899E-3
7.382466673E2,6.633210182E-2,4.682505131E-2,-3.143501282E-2
7.387466673E2,3.577607870E-2,-9.488344193E-3,-2.333545685E-2
7.392466673E2,-4.301226139E-2,3.468990326E-3,1.328563690E-2
7.397466673E2,1.037770510E-2,8.710741997E-3,-5.298614502E-3
7.402466673E2,-3.244799376E-2,-3.443133831E-2,4.450511932E-2
7.407466673E2,3.227680922E-2,2.018344402E-2,-2.889633179E-3
7.412466673E2,4.474884272E-2,-1.131212711E-2,1.878643036E-2
7.417466673E2,-4.119801521E-2,-2.085554600E-2,-2.368259430E-2
7.422466673E2,-1.166257262E-1,8.991122246E-3,-6.003856659E-2
7.427466673E2,-4.370126128E-1,4.282963276E-2,-3.881454468E-4
7.432466673E2,-4.273034930E-1,2.402627468E-2,-5.167961121E-3
7.437466673E2,1.047665477E-1,-2.909219265E-2,2.044105530E-2
7.442466673E2,-1.802154183E-1,-1.277589798E-2,-1.223564148E-3
7.447466673E2,2.432173491E-2,1.090109348E-2,-5.578041077E-3
7.452466673E2,4.081183672E-2,1.909506321E-2,-8.139610291E-3
7.457466673E2,5.482017994E-3,4.106879234E-3,4.274368286E-3
7.462466673E2,1.019179821E-3,-2.705323696E-2,3.976821899E-3
7.467466673E2,2.779883146E-2,4.012107849E-3,4.375457764E-3
7.472466673E2,8.622533083E-2,1.187276840E-2,-9.175300598E-3
7.477466673E2,1.779282093E-2,1.448988914E-2,-8.294105530E-3
7.482466673E2,6.616115570E-4,7.640242577E-3,7.043838501E-3
7.487466673E2,-6.974381208E-2,-3.406167030E-3,3.756523132E-3
7.492466673E2,8.673617244E-2,1.197934151E-3,2.431011200E-2
7.497466673E2,-1.583480239E-1,-2.514994144E-2,2.285575867E-2
7.502466673E2,-8.575916290E-4,3.205513954E-2,1.906394958E-3
7.507466673E2,-4.609894753E-2,1.948034763E-2,-1.295089722E-3
7.512466673E2,-5.336117744E-2,-2.145648003E-3,1.223278046E-2
7.517466673E2,-9.764552116E-3,3.062748909E-2,-1.478290558E-2
7.522466673E2,4.349052906E-3,1.239395142E-2,-1.954650879E-2
7.527466673E2,-2.741175890E-2,4.313850403E-2,-2.547645569E-2
7.532466673E2,-2.906268835E-2,7.216346264E-2,2.786064148E-2
7.537466673E2,-2.377665043E-2,-3.149545193E-2,-8.362293243E-2
7.542466673E2,8.654221892E-2,1.152244806E-1,-6.800746918E-2
7.547466673E2,-1.326113939E-2,-2.468180656E-2,4.316997528E-2
7.552466673E2,1.873707771E-2,5.039155483E-2,7.386207581E-3
7.557466673E2,7.001921535E-3,-6.489527225E-2,2.765369415E-2
7.562466673E2,2.015823126E-2,-6.753802299E-2,4.231643677E-2
7.567466673E2,3.560448438E-2,5.256879330E-2,4.543113708E-2
7.572466673E2,-1.193969697E-2,-1.739454269E-2,-2.680110931E-2
7.577466673E2,8.583883755E-3,8.666312695E-2,-7.296752930E-2
7.582466673E2,1.801242493E-2,-7.841324806E-2,6.665039062E-2
7.587466673E2,5.883377045E-2,7.257521152E-2,-2.228927612E-2
7.592466673E2,3.512850404E-2,-8.762562275E-2,6.280040741E-2
7.597466673E2,-2.366416156E-2,1.452171803E-1,8.410739899E-2
7.602466673E2,2.106010728E-2,-2.533090115E-2,-2.755260468E-2
7.607466673E2,4.366323352E-2,6.867551804E-2,-1.047039032E-2
7.612466673E2,4.068489000E-2,-1.899611950E-2,-3.934192657E-2
7.617466673E2,1.732774079E-3,1.633429527E-2,-3.529644012E-2
7.622466673E2,6.058849394E-3,8.033919334E-2,5.022621155E-2
7.627466673E2,4.147604108E-2,5.943417549E-2,-8.792591095E-2
7.632466673E2,-8.350433409E-2,-5.892300606E-2,-6.202411652E-2
7.637466673E2,-1.051608846E-2,-4.482531548E-2,-4.261302948E-2
7.642466673E2,4.995416850E-2,3.902268410E-2,6.149291992E-2
7.647466673E2,-3.002726845E-2,-2.878594398E-2,-4.857063293E-3
7.652466673E2,-5.176573992E-3,-1.989340782E-2,-2.964973450E-3
7.657466673E2,7.004794478E-2,-7.594823837E-3,-6.528186798E-2
7.662466673E2,5.598589778E-2,4.709601402E-2,-5.468654633E-2
7.667466673E2,1.380902529E-2,2.012157440E-2,1.145143509E-1
7.672466673E2,8.745014668E-3,-8.040666580E-2,1.141901016E-1
7.677466673E2,1.521023512E-1,8.427739143E-2,5.173397064E-2
7.682466673E2,1.658099890E-2,2.930974960E-2,-1.205015182E-1
7.687466673E2,1.041278243E-1,6.938886642E-2,-8.758544922E-2
7.692466673E2,8.648633957E-3,-7.231688499E-2,-1.547908783E-2
7.697466673E2,1.228010654E-2,-1.494026184E-2,-1.785278320E-3
7.702466673E2,9.718000889E-3,-3.320598602E-2,-2.954006195E-2
7.707466673E2,4.538148642E-2,-4.760336876E-2,-1.499032974E-1
7.712466673E2,-2.286290675E-1,1.053905487E-2,2.466964722E-2
7.717466673E2,-1.307798326E-1,-2.023959160E-2,-5.840873718E-2
7.722466673E2,2.636089921E-2,-1.252985001E-2,-7.690048218E-2
7.727466673E2,-3.967252374E-2,-1.900124550E-2,4.133415222E-2
7.732466673E2,-1.182439923E-2,-1.107168198E-2,-2.185344696E-2
7.737466673E2,-3.347447515E-2,-2.496647835E-2,2.277660370E-2
7.742466673E2,5.940273404E-2,3.845953941E-2,5.617618561E-2
7.747466673E2,3.156438470E-2,1.027598381E-1,-2.611160278E-2
7.752466673E2,-2.825137973E-2,-5.874824524E-2,3.960704803E-2
7.757466673E2,1.344278455E-2,3.676176071E-3,1.402664185E-2
7.762466673E2,-3.003886342E-2,-1.371561289E-1,-3.769493103E-2
7.767466673E2,1.174721122E-2,4.504370689E-2,-6.969070435E-2
7.772466673E2,2.467308939E-2,-5.760312080E-2,6.490135193E-2
7.777466673E2,2.473680675E-2,6.430983543E-2,-6.366825104E-2
7.782466673E2,-3.592713177E-2,-1.469945908E-2,8.570671082E-2
7.787466673E2,-8.588860929E-2,-1.497483253E-2,4.492855072E-2
7.792466673E2,-2.461584657E-2,1.060332060E-1,-4.475402832E-2
7.797466673E2,-1.916627586E-2,-5.379247665E-2,2.551364899E-2
7.802466673E2,-1.676758379E-2,-1.330852509E-2,1.119031906E-1
7.807466673E2,-1.034715474E-1,7.701444626E-2,1.097774506E-1
7.812466673E2,5.197268724E-2,4.806411266E-2,-1.158323288E-1
7.817466673E2,-3.662317991E-3,-6.928873062E-2,-2.731494904E-1
7.822466673E2,6.361395121E-2,1.481723785E-2,3.270053864E-2
7.827466673E2,2.557282150E-2,6.687402725E-3,-1.020097733E-1
7.832466673E2,-2.773199975E-2,-4.867672920E-3,8.508396149E-2
7.837466673E2,3.666187823E-2,-7.351362705E-2,-2.080726624E-2
7.842466673E2,-1.280145198E-1,9.003317356E-2,2.485265732E-1
7.847466673E2,-1.274918020E-1,1.330502033E-1,-1.038236618E-1
7.852466673E2,-5.791977048E-3,-4.447257519E-2,-1.294517517E-1
7.857466673E2,-9.660483897E-2,1.236739159E-1,-3.284254074E-1
7.862466673E2,-1.154060289E-1,-1.447666883E-1,3.204727173E-2
7.867466673E2,2.337497473E-1,-2.351987362E-2,-2.053861618E-1
7.872466673E2,8.606985211E-2,5.643975735E-2,5.943012238E-2
7.877466673E2,1.043333113E-1,-3.687179089E-2,3.615093231E-2
7.882466673E2,-2.628919482E-2,1.206493378E-1,1.887531281E-1
7.887466673E2,5.878123641E-2,-2.725183964E-2,1.349086761E-1
7.892466673E2,4.735887051E-2,1.092296839E-1,-5.195522308E-2
7.897466673E2,1.648068428E-5,4.589068890E-2,-1.416206360E-3
7.902466673E2,-2.240747213E-3,-7.222360373E-2,-1.629800797E-1
7.907466673E2,1.465466619E-2,-3.630483150E-2,-1.495466232E-1
7.912466673E2,-6.194323301E-3,3.813999891E-2,-6.734848022E-2
7.917466673E2,1.800724864E-2,4.304492474E-2,-6.247615814E-2
7.922466673E2,1.436208189E-2,-4.869025946E-2,-9.793758392E-2
7.927466673E2,4.224149883E-2,-1.025503874E-2,-3.119373322E-2
7.932466673E2,-1.545786858E-3,-8.696436882E-3,-4.994297028E-2
7.937466673E2,2.775411308E-2,-5.833250284E-2,3.340244293E-2
7.942466673E2,2.663631737E-2,1.618927717E-2,5.695629120E-2
7.947466673E2,3.669765592E-2,-7.494330406E-3,-4.768371582E-6
7.952466673E2,-2.799312025E-2,-4.085832834E-2,2.111864090E-1
7.957466673E2,-2.773329616E-3,-1.833453774E-2,-7.943248749E-2
7.962466673E2,-6.542553753E-2,-1.263597608E-2,-3.285026550E-2
7.967466673E2,-4.434025288E-2,-1.396713853E-1,-2.162256241E-1
7.972466673E2,-5.268929899E-2,-3.667634726E-2,-2.201938629E-1
7.977466673E2,4.083416611E-2,7.957074046E-2,-5.376720428E-2
7.982466673E2,-2.380087972E-4,-3.009065986E-2,-1.636838913E-1
7.987466673E2,-5.653326213E-2,-1.193924695E-1,1.105813980E-1
7.992466673E2,-3.491860628E-2,-2.825066447E-2,1.415100098E-1
7.997466673E2,9.552311152E-2,2.691095173E-1,1.084671021E-1
8.002466673E2,-4.365406185E-2,6.480598450E-2,5.387401581E-2
8.007466673E2,-5.986911058E-2,1.106205583E-2,6.991672516E-2
8.012466673E2,-1.237563416E-2,1.029017866E-1,1.087265015E-1
8.017466673E2,7.690142840E-3,-3.944990039E-2,-4.825687408E-2
8.022466673E2,8.729740977E-3,3.820404410E-2,5.303287506E-2
8.027466673E2,3.824928775E-2,-3.565967083E-2,-2.887058258E-2
8.032466673E2,-1.094182581E-2,-8.554092050E-2,3.132343292E-2
8.037466673E2,2.368211932E-2,-6.338101625E-2,-5.192852020E-2
8.042466673E2,-2.130434662E-2,-4.731437564E-2,4.450511932E-2
8.047466673E2,7.844548672E-3,-4.764389992E-2,-1.946735382E-2
8.052466673E2,-5.414858460E-3,-9.891316295E-2,4.874229431E-3
8.057466673E2,-9.820628911E-3,-4.841297865E-2,1.296997070E-2
8.062466673E2,1.067792624E-2,-2.369812131E-2,4.318332672E-2
8.067466673E2,2.354573086E-2,3.092738986E-2,4.964733124E-2
8.072466673E2,-2.461706102E-2,2.237722278E-2,4.371929169E-2
8.077466673E2,2.364944667E-2,-3.825971484E-2,1.862239838E-2
8.082466673E2,-1.531630009E-2,-1.891872287E-2,5.459594727E-2
8.087466673E2,4.023628682E-2,-3.109666705E-2,1.495361328E-3
8.092466673E2,5.429133773E-3,-1.109934598E-1,2.203941345E-3
8.097466673E2,2.783057094E-2,6.085982919E-2,8.934879303E-2
8.102466673E2,2.728864849E-1,-9.541824460E-3,4.731845856E-2
8.107466673E2,9.342984110E-2,-3.121094406E-2,9.385395050E-2
8.112466673E2,1.842254102E-1,3.233596683E-3,-1.812648773E-2
8.117466673E2,-1.204256713E-2,-2.702609450E-2,4.270076752E-2
8.122466673E2,1.168360859E-1,3.543738276E-2,-1.225624084E-1
8.127466673E2,-3.488256037E-2,-2.454609573E-1,-1.409530640E-1
8.132466673E2,7.164347917E-2,5.937096477E-2,5.491924286E-2
8.137466673E2,1.463261247E-1,6.380652636E-2,5.339336395E-2
8.142466673E2,-4.871298373E-2,2.639468908E-1,4.247951508E-2
8.147466673E2,-2.818253264E-2,2.402914017E-1,-2.259540558E-2
8.152466673E2,-1.028718352E-1,-1.756034940E-1,-5.826663971E-2
8.157466673E2,1.796713844E-2,-1.596195400E-1,-1.772375107E-1
8.162466673E2,2.215765417E-4,-9.350050241E-3,-1.125240326E-2
8.167466673E2,1.214428395E-1,4.842771962E-2,-1.253948212E-1
8.172466673E2,9.386484325E-2,7.296130061E-3,-1.165838242E-1
8.177466673E2,1.114643738E-2,3.519572318E-3,5.985927582E-2
8.182466673E2,2.240949124E-2,3.608695418E-2,4.592037201E-2
8.187466673E2,4.609853402E-2,1.562165916E-1,4.001331329E-2
8.192466673E2,-3.847408108E-3,5.388721824E-3,5.285167694E-2
8.197466673E2,-1.539850980E-1,4.109654576E-2,2.893733978E-2
8.202466673E2,-2.281756103E-1,6.403866410E-2,-1.414775848E-2
8.207466673E2,-8.150738478E-2,-7.574457675E-3,-3.228378296E-2
8.212466673E2,-2.333801985E-2,1.196731925E-1,6.092453003E-2
8.217466673E2,3.574311733E-3,3.091828339E-2,-4.016971588E-2
8.222466673E2,1.120740175E-2,2.127986774E-2,-1.525020599E-2
8.227466673E2,8.935153484E-3,-5.717587471E-2,-6.923961639E-2
8.232466673E2,2.981871367E-2,5.508278310E-2,-1.066465378E-1
8.237466673E2,1.259928942E-1,-1.198963076E-2,-3.388881683E-2
8.242466673E2,7.471475005E-2,4.079853743E-2,4.032421112E-2
8.247466673E2,3.141325712E-2,-2.752452530E-2,-4.691886902E-2
8.252466673E2,2.417016029E-2,-1.064202264E-1,-6.874084473E-3
8.257466673E2,1.183447242E-2,1.151153296E-1,4.767417908E-3
8.262466673E2,-6.127816439E-2,-1.667372435E-1,-2.274513245E-3
8.267466673E2,8.429284394E-2,1.964966804E-1,8.923625946E-2
8.272466673E2,1.769901067E-2,-1.740879267E-1,2.205753326E-2
8.277466673E2,3.016714752E-2,1.286776066E-1,-8.049964905E-3
8.282466673E2,-2.228955179E-2,-3.216954693E-2,1.893424988E-2
8.287466673E2,-8.009314537E-3,1.894074678E-2,-2.243518829E-2
8.292466673E2,-1.007181406E-2,-9.250921011E-2,-3.653812408E-2
8.297466673E2,6.503723562E-3,1.465795040E-1,-1.247119904E-2
8.302466673E2,3.349824995E-2,-1.717077792E-1,-6.029319763E-2
8.307466673E2,1.838803291E-5,1.131597981E-1,1.903533936E-2
8.312466673E2,-1.966500282E-2,-8.128647506E-2,-1.387786865E-2
8.317466673E2,-1.730088890E-2,3.120386973E-2,2.645206451E-2
8.322466673E2,-1.991285384E-2,-9.077882022E-2,-2.841281891E-2
8.327466673E2,-1.050234437E-1,5.206876248E-2,1.715660095E-3
8.332466673E2,3.575086594E-4,-3.641022742E-2,-1.230716705E-2
8.337466673E2,-6.622943282E-2,2.162722871E-2,-1.310062408E-2
8.342466673E2,-2.648460865E-2,-1.659348235E-2,-5.672454834E-3
8.347466673E2,-2.556988597E-2,1.060843654E-2,6.812095642E-3
8.352466673E2,-6.844937801E-3,-1.356509048E-2,2.928256989E-2
8.357466673E2,-1.658466458E-2,-2.528280020E-4,-1.885128021E-2
8.362466673E2,-1.622605324E-2,1.890385523E-3,3.106975555E-2
8.367466673E2,-3.155127168E-2,-4.669670016E-4,1.843166351E-2
8.372466673E2,5.518734455E-3,3.612019122E-3,1.003742218E-2
8.377466673E2,4.427787662E-2,-2.765303478E-2,1.140499115E-2
8.382466673E2,8.910030127E-3,2.749782056E-3,-1.826286316E-3
8.387466673E2,5.669057369E-2,-2.486954629E-2,1.254463196E-2
8.392466673E2,4.797475040E-2,8.479338139E-3,1.763916016E-2
8.397466673E2,1.116328686E-1,8.412502706E-3,2.923488617E-2
8.402466673E2,1.037506536E-1,-2.610617504E-2,5.094814301E-2
8.407466673E2,5.010210723E-2,8.338786662E-3,7.345199585E-3
8.412466673E2,3.673611581E-2,-6.203643978E-3,6.312370300E-3
8.417466673E2,3.702864051E-2,3.506606072E-2,-4.868507385E-3
8.422466673E2,8.533734083E-2,1.333661377E-3,-3.457260132E-2
8.427466673E2,3.336355090E-3,3.952421248E-3,4.853248596E-3
8.432466673E2,-1.287771761E-2,-3.221251070E-3,5.006790161E-3
8.437466673E2,-1.141305342E-1,3.367478400E-2,5.469322205E-3
8.442466673E2,-3.754437715E-2,2.048336715E-2,-5.032539368E-3
8.447466673E2,-3.220689297E-2,3.545857966E-3,7.580757141E-3
8.452466673E2,3.340164199E-3,-4.687227309E-3,1.342773438E-3
8.457466673E2,-2.605357207E-3,-1.400370151E-2,-1.578807831E-2
8.462466673E2,1.762783155E-3,7.586255670E-3,2.449035645E-3
8.467466673E2,7.040848956E-3,-1.291178167E-3,-3.785133362E-3
8.472466673E2,3.811312094E-2,-5.656853318E-4,2.573966980E-3
8.477466673E2,1.843303069E-2,-1.782029867E-3,2.527999878E-2
8.482466673E2,1.237063855E-2,7.732853293E-3,-4.518508911E-3
8.487466673E2,-1.907151379E-2,2.470055968E-2,-9.155273438E-4
8.492466673E2,-1.327639371E-1,-2.717883885E-2,-3.851127625E-2
8.497466673E2,-7.698085904E-2,-9.041741490E-3,-4.728031158E-2
8.502466673E2,2.873349190E-2,6.663590670E-3,-1.137065887E-2
8.507466673E2,-6.935113668E-2,1.647125930E-2,-3.147411346E-2
8.512466673E2,-1.248509586E-1,-1.067435741E-2,2.615642548E-2
8.517466673E2,6.707787514E-2,8.830800653E-3,2.717018127E-3
8.522466673E2,4.113376141E-3,-2.269761264E-2,-1.584339142E-2
8.527466673E2,-1.391011477E-1,1.701586694E-2,-6.958961487E-3
8.532466673E2,2.355462313E-2,3.844887018E-3,-6.554603577E-3
8.537466673E2,-2.137780190E-2,1.086435467E-2,-8.250236511E-3
8.542466673E2,2.424001694E-2,-8.893541992E-3,-2.558708191E-3
8.547466673E2,1.568555832E-2,8.140861988E-3,2.655982971E-3
8.552466673E2,-1.122385263E-2,5.140073597E-3,-6.982803345E-3
8.557466673E2,3.227829933E-3,-1.368892193E-2,9.059906006E-5
8.562466673E2,1.037651300E-2,-1.797728240E-3,5.224227905E-3
8.567466673E2,6.308794022E-3,2.596914768E-3,-6.027221680E-4
8.572466673E2,-3.891623020E-2,-1.289173961E-2,5.950927734E-4
8.577466673E2,-1.740618646E-1,-2.806136310E-1,2.253246307E-2
8.582466673E2,6.704632193E-2,1.366250515E-1,-4.337215424E-2
8.587466673E2,2.271586657E-2,9.500128031E-2,1.078510284E-2
8.592466673E2,-4.348720610E-2,1.395714283E-2,1.625919342E-2
8.597466673E2,1.664569676E-1,2.311475277E-1,-5.035781860E-2
8.602466673E2,2.838492393E-2,4.400980473E-2,3.933238983E-2
8.607466673E2,-1.017132401E-2,1.438975334E-3,-5.252838135E-3
8.612466673E2,-1.570919156E-2,-2.222275734E-2,1.504611969E-2
8.617466673E2,1.479986310E-2,3.722429276E-3,1.317691803E-2
8.622466673E2,8.327394724E-3,3.755211830E-3,4.370689392E-3
8.627466673E2,7.318854332E-4,1.073181629E-2,-1.088142395E-3
8.632466673E2,9.047836065E-3,9.216904640E-3,-9.676933289E-3
8.637466673E2,2.260982990E-3,8.867621422E-3,5.461692810E-3
8.642466673E2,2.631425858E-3,-1.721000671E-2,8.691787720E-3
8.647466673E2,2.491474152E-5,5.296468735E-4,3.641128540E-3
8.652466673E2,9.696781635E-4,6.962895393E-3,-1.638412476E-3
8.657466673E2,-3.414422274E-3,-1.883149147E-3,6.547927856E-3
8.662466673E2,-3.565728664E-3,-1.832246780E-4,4.769325256E-3
8.667466673E2,-8.046984673E-3,-2.198576927E-3,-5.984306335E-3
8.672466673E2,-7.968097925E-3,-3.729462624E-3,-3.308296204E-3
8.677466673E2,5.065202713E-4,-1.852154732E-3,9.908676147E-4
8.682466673E2,2.680987120E-3,3.618359566E-3,1.432418823E-3
8.687466673E2,-2.170968056E-2,2.363526821E-2,6.164550781E-3
8.692466673E2,-2.189792544E-1,2.545654774E-2,6.985664368E-3
8.697466673E2,-2.969981730E-1,1.778829098E-2,1.336574554E-2
8.702466673E2,-1.139013469E-1,1.649796963E-2,1.498222351E-3
8.707466673E2,-3.425240517E-3,-1.144778728E-2,-1.187324524E-3
8.712466673E2,-4.447224736E-2,2.363562584E-3,5.540847778E-4
8.717466673E2,-2.280858159E-2,-7.224082947E-5,-1.413059235E-2
8.722466673E2,-4.176169634E-3,-5.907893181E-3,-2.512931824E-3
8.727466673E2,-8.715033531E-3,-6.851315498E-3,2.575874329E-3
8.732466673E2,1.615405083E-3,6.828308105E-3,3.964424133E-3
8.737466673E2,3.673255444E-3,-4.330277443E-3,2.007484436E-3
8.742466673E2,3.724667430E-2,-4.055500031E-3,-5.856513977E-3
8.747466673E2,-1.548355818E-2,1.219141483E-2,-5.580902100E-3
8.752466673E2,1.105189323E-3,-8.047819138E-3,6.700515747E-3
8.757466673E2,-1.652896404E-3,-3.046274185E-3,1.822471619E-3
8.762466673E2,4.658609629E-3,-1.323831081E-2,-3.979682922E-3
8.767466673E2,-1.206961274E-2,1.193487644E-2,-2.044963837E-2
8.772466673E2,-9.357929230E-6,-2.111327648E-2,-6.940841675E-3
8.777466673E2,1.069974899E-2,-2.023553848E-2,4.422187805E-3
8.782466673E2,-2.801233530E-2,9.880065918E-4,-4.087543488E-2
8.787466673E2,-1.063576341E-1,3.923058510E-3,1.036453247E-2
8.792466673E2,-8.678644896E-3,-1.465427876E-2,-2.345943451E-2
8.797466673E2,-1.909214258E-2,-2.175891399E-2,-9.816169739E-3
8.802466673E2,-6.581217051E-3,6.580471992E-3,5.108833313E-3
8.807466673E2,-1.895195246E-2,-1.112818718E-3,1.771163940E-2
8.812466673E2,-2.035763860E-2,-2.224290371E-2,2.759456635E-2
8.817466673E2,2.851393819E-2,4.617190361E-2,2.613067627E-3
8.822466673E2,-7.410645485E-3,3.126871586E-2,-8.613586426E-3
8.827466673E2,1.484638453E-2,-1.727759838E-2,2.880573273E-2
8.832466673E2,-1.246809959E-2,-4.119098186E-3,3.263854980E-2
8.837466673E2,3.441801667E-2,-5.447226763E-2,3.318786621E-4
8.842466673E2,3.490218520E-2,7.786959410E-2,-1.852893829E-2
8.847466673E2,4.546734691E-2,4.520171881E-2,-1.118803024E-1
8.852466673E2,-1.834961772E-2,-1.015112400E-1,1.747608185E-2
8.857466673E2,1.643548906E-2,2.098405361E-2,4.079818726E-3
8.862466673E2,-9.337872267E-3,-1.181692481E-1,5.252456665E-2
8.867466673E2,-5.459347367E-2,1.002539992E-1,-1.139001846E-1
8.872466673E2,1.140214801E-1,-1.571062207E-1,-3.816699982E-2
8.877466673E2,-1.837191880E-1,3.477537632E-1,8.661613464E-1
8.882466673E2,7.793632150E-2,-2.545065284E-1,-1.404647827E-1
8.887466673E2,-6.898482144E-2,-7.926279306E-2,2.876749039E-1
8.892466673E2,7.681816816E-3,6.739747524E-2,2.558355331E-1
8.897466673E2,2.605792135E-2,9.763932228E-2,3.342275620E-1
8.902466673E2,5.446995422E-2,-3.223913908E-2,-5.099773407E-2
8.907466673E2,-2.508832514E-2,1.719960570E-1,2.626132965E-2
8.912466673E2,-4.282799363E-2,-2.046438158E-1,-1.188535690E-1
8.917466673E2,-3.721946478E-2,-5.664098263E-2,1.540918350E-1
8.922466673E2,-1.498298347E-2,5.655032396E-2,2.258911133E-1
8.927466673E2,5.604508519E-2,-2.051351368E-1,5.164241791E-2
8.932466673E2,-5.794611573E-2,1.196929812E-1,2.920293808E-1
8.937466673E2,-3.403663635E-3,-1.034373045E-2,-4.261302948E-2
8.942466673E2,5.046546832E-2,5.357426405E-2,1.325635910E-1
8.947466673E2,-6.398865581E-2,-1.237273216E-2,-1.052608490E-1
8.952466673E2,-5.137147754E-2,-8.558535576E-2,3.724384308E-2
8.957466673E2,6.202716380E-2,-7.071062922E-2,8.433246613E-2
8.962466673E2,-6.557811797E-2,3.669857979E-4,9.841251373E-2
8.967466673E2,-9.636260569E-3,3.025141358E-2,7.337760925E-2
8.972466673E2,2.378230542E-2,8.884736896E-2,-1.632308960E-2
8.977466673E2,7.828064263E-2,4.494202137E-2,-8.785057068E-2
8.982466673E2,-5.130311847E-2,-3.501001745E-2,-1.184301376E-1
8.987466673E2,-7.840648293E-2,1.615434512E-2,-4.448318481E-2
8.992466673E2,7.297821343E-2,-3.675212711E-2,1.691017151E-1
8.997466673E2,2.619067430E-1,2.325827181E-1,4.108524323E-2
9.002466673E2,3.544670045E-1,-1.527574807E-1,-1.969337463E-3
9.007466673E2,3.173304200E-1,4.605145380E-2,1.495885849E-1
9.012466673E2,-1.763440967E-1,-1.667578518E-2,1.738367081E-1
9.017466673E2,-1.042440534E-1,1.716452241E-1,-8.130073547E-3
9.022466673E2,-8.313077688E-2,4.199874401E-2,-3.735256195E-2
9.027466673E2,3.038913012E-2,1.365137100E-2,-4.764652252E-2
9.032466673E2,-1.218816638E-1,-2.465021610E-2,2.326965332E-2
9.037466673E2,-1.509833336E-1,-1.006805897E-1,-1.427717209E-1
9.042466673E2,2.872927189E-1,2.067286968E-1,-1.045379639E-1
9.047466673E2,4.940861464E-1,2.111554146E-1,-4.311542511E-1
9.052466673E2,5.373942852E-2,1.112906933E-1,1.366519928E-2
9.057466673E2,2.670764923E-3,1.779954433E-1,-1.147432327E-1
9.062466673E2,2.486317158E-1,8.737182617E-2,-1.564025879E-2
9.067466673E2,-5.885972083E-2,1.470611095E-1,1.567487717E-1
9.072466673E2,-1.432858109E-1,7.950580120E-2,-1.307916641E-1
9.077466673E2,-6.200734973E-1,-1.960546970E-1,1.582612991E-1
9.082466673E2,-1.144818068E-1,-2.147150040E-2,-4.551601410E-2
9.087466673E2,1.190765575E-2,6.182813644E-2,5.066776276E-2
9.092466673E2,-1.690142043E-2,-1.158056259E-1,-2.542800903E-1
9.097466673E2,-5.834197998E-2,5.191874504E-2,-1.666812897E-1
9.102466673E2,-2.651653439E-2,-1.016310453E-1,-2.553806305E-1
9.107466673E2,-4.538077861E-2,7.757222652E-2,-2.416105270E-1
9.112466673E2,-1.415048689E-1,7.727348804E-2,1.441850662E-1
9.117466673E2,-1.851120219E-2,3.156912327E-2,-9.988117218E-2
9.122466673E2,1.013521999E-1,2.725982666E-2,9.623146057E-2
9.127466673E2,1.657245308E-2,4.127299786E-2,-4.031352997E-1
9.132466673E2,-3.197519481E-2,-1.104497910E-2,1.712083817E-1
9.137466673E2,-6.675059348E-2,1.305449009E-1,1.529054642E-1
9.142466673E2,-1.470139623E-2,3.727436066E-3,9.203052521E-2
9.147466673E2,-2.746421844E-2,-2.126622200E-2,1.192140579E-1
9.152466673E2,-2.810619026E-2,1.109855175E-1,-1.629476547E-1
9.157466673E2,8.071631938E-2,-8.751499653E-2,-1.210803986E-1
9.162466673E2,-2.276282907E-1,2.666163445E-2,6.839275360E-2
9.167466673E2,5.450823903E-2,-6.473219395E-2,5.897903442E-2
9.172466673E2,1.633790880E-2,9.647750854E-2,4.956912994E-2
9.177466673E2,-6.954267621E-3,-1.911079884E-2,-9.126949310E-2
9.182466673E2,-9.298786521E-3,4.913759232E-2,1.187849045E-1
9.187466673E2,1.559205353E-2,1.860547066E-2,-6.183719635E-2
9.192466673E2,3.843918443E-2,-5.016863346E-2,-2.049589157E-1
9.197466673E2,1.574508846E-2,5.041003227E-3,-9.778022766E-2
9.202466673E2,-8.681464195E-2,-2.979540825E-2,8.993434906E-2
9.207466673E2,4.458293319E-3,1.719522476E-2,-4.070377350E-2
9.212466673E2,6.110371649E-2,-8.900427818E-2,-9.127616882E-2
9.217466673E2,-4.192769527E-2,5.196523666E-2,-2.549905777E-1
9.222466673E2,-7.415297627E-2,-1.255285740E-2,-5.602235794E-1
9.227466673E2,-1.571469903E-1,-4.908299446E-2,-3.743906021E-1
9.232466673E2,-1.794999838E-2,-3.107618093E-1,-8.371028900E-1
9.237466673E2,-1.158671975E-1,-7.925617695E-2,6.020002365E-1
9.242466673E2,-1.703471839E-1,-2.396283150E-1,4.013843536E-1
9.247466673E2,-1.370559037E-1,1.572408676E-1,4.086198807E-1
9.252466673E2,4.250243306E-2,1.303125620E-1,-1.463890076E-2
9.257466673E2,-1.630443335E-2,-1.061059237E-1,1.569280624E-1
9.262466673E2,-9.322988987E-2,2.428388596E-2,1.260833740E-1
9.267466673E2,4.431605339E-4,-4.072940350E-2,3.924465179E-2
9.272466673E2,-4.563719034E-2,1.020470858E-1,3.508472443E-2
9.277466673E2,5.227714777E-2,-9.873223305E-2,4.778862000E-3
9.282466673E2,-3.202801943E-2,4.313027859E-2,-8.586788177E-2
9.287466673E2,-5.921596289E-2,-5.527126789E-2,-8.954620361E-2
9.292466673E2,1.817030609E-1,-3.946113586E-2,-1.158924103E-1
9.297466673E2,1.143395901E-2,-4.951357841E-3,-5.048561096E-2
9.302466673E2,3.014048934E-2,8.730185032E-2,-5.772018433E-2
9.307466673E2,7.656776905E-2,1.068591475E-1,-3.209209442E-2
9.312466673E2,-7.160747051E-2,6.988108158E-3,-4.626941681E-2
9.317466673E2,-2.184581757E-2,2.182424068E-3,-5.152606964E-2
9.322466673E2,-9.723186493E-2,-1.457989216E-3,-1.197595596E-1
9.327466673E2,-4.423993826E-2,3.676486015E-2,-1.826953888E-2
9.332466673E2,-8.481574059E-2,-1.651453972E-2,-3.747081757E-2
9.337466673E2,-3.994125128E-2,3.680723906E-2,-5.908584595E-2
9.342466673E2,-9.416341782E-3,-4.929530621E-2,-6.304454803E-2
9.347466673E2,4.354298115E-2,-1.305460930E-2,-4.681110382E-2
9.352466673E2,1.912012696E-1,4.077398777E-2,7.724285126E-2
9.357466673E2,-7.898133993E-2,-1.045566797E-2,-5.021095276E-3
9.362466673E2,2.976244688E-2,5.808639526E-2,-2.343845367E-2
9.367466673E2,-4.152894020E-2,-6.213468313E-2,-3.853416443E-2
9.372466673E2,-3.194659948E-2,4.069864750E-3,6.129169464E-2
9.377466673E2,3.777766228E-2,2.406257391E-2,-1.109914780E-1
9.382466673E2,-8.981168270E-3,4.072254896E-2,3.876304626E-2
9.387466673E2,5.695223808E-4,3.847026825E-2,3.571224213E-2
9.392466673E2,2.413576841E-2,-5.695089698E-2,9.897708893E-2
9.397466673E2,-5.118423700E-2,3.073972464E-2,9.630489349E-2
9.402466673E2,2.600568235E-1,-2.485486865E-2,1.561365128E-1
9.407466673E2,1.816051602E-1,-1.186582446E-2,-2.926349640E-2
9.412466673E2,4.723626375E-2,-1.869544834E-1,1.151084900E-2
9.417466673E2,1.270766556E-1,-9.629139304E-2,-2.837352753E-1
9.422466673E2,-5.842964351E-2,-1.336254478E-1,1.382341385E-1
9.427466673E2,2.240641415E-1,9.997346997E-2,-2.474908829E-1
9.432466673E2,-4.962977767E-1,3.248599172E-2,2.266883850E-2
9.437466673E2,-6.443055868E-1,-7.004117966E-2,-2.833652496E-2
9.442466673E2,-2.163890600E-1,-1.930954754E-1,1.232500076E-1
9.447466673E2,2.364327908E-1,-5.166751146E-2,-1.826410294E-1
9.452466673E2,-2.349261045E-1,-2.662905157E-1,5.773353577E-1
9.457466673E2,1.419652700E-1,1.402074844E-1,2.843723297E-1
9.462466673E2,3.811277151E-1,-4.131090641E-2,3.597593307E-1
9.467466673E2,2.694581151E-1,2.118349075E-3,1.125383377E-1
9.472466673E2,1.583498120E-1,1.873169839E-1,-9.893417358E-3
9.477466673E2,5.500894785E-2,2.037836164E-1,5.877370834E-1
9.482466673E2,3.342386484E-1,-6.006443501E-2,9.022712708E-2
9.487466673E2,1.423169971E-1,1.697832346E-2,1.807498932E-2
9.492466673E2,-1.196661592E-1,-1.009673476E-1,2.081203461E-2
9.497466673E2,6.497132778E-2,1.382381022E-1,-1.096029282E-1
9.502466673E2,-3.410077095E-2,2.423333824E-1,-2.516069412E-1
9.507466673E2,-2.715607882E-1,3.549742699E-2,-1.199722290E-2
9.512466673E2,-4.762005806E-2,-1.547165513E-1,-8.395481110E-2
9.517466673E2,-2.374050617E-1,-2.986353636E-2,8.902931213E-2
9.522466673E2,1.117063761E-1,-7.593792677E-2,-5.592060089E-2
9.527466673E2,1.417967081E-1,-2.110278606E-2,4.824256897E-2
9.532466673E2,1.018083096E-1,5.537241697E-2,9.457588196E-3
9.537466673E2,8.253777027E-2,-7.474809885E-2,-2.702236176E-2
9.542466673E2,5.250108242E-2,-1.750588417E-3,-1.502418518E-2
9.547466673E2,1.942551136E-2,-1.522159576E-2,2.675342560E-2
9.552466673E2,-7.729578018E-2,-3.743660450E-2,-6.144046783E-2
9.557466673E2,-6.529796124E-2,5.286401510E-2,-3.685665131E-2
9.562466673E2,4.612445831E-3,-4.788851738E-2,-4.408550262E-2
9.567466673E2,5.747199059E-3,2.286094427E-2,-2.407932281E-2
9.572466673E2,-1.138985157E-2,-1.736700535E-2,-5.118370056E-3
9.577466673E2,5.595922470E-3,-6.155711412E-2,-3.658866882E-2
9.582466673E2,-1.060454845E-1,6.961286068E-2,3.398418427E-2
9.587466673E2,6.609559059E-2,2.220672369E-2,-2.055835724E-2
9.592466673E2,-1.826453209E-2,4.932951927E-2,-2.274799347E-2
9.597466673E2,1.555907726E-2,-2.579158545E-2,-1.111602783E-2
9.602466673E2,-7.275938988E-3,3.180611134E-2,-1.223850250E-2
9.607466673E2,2.853405476E-2,-2.979636192E-3,8.402824402E-3
9.612466673E2,-2.471256256E-2,-2.583366632E-2,3.426647186E-2
9.617466673E2,-1.635193825E-3,5.546510220E-3,-2.093315125E-3
9.622466673E2,-3.939032555E-3,8.909404278E-3,-2.016925812E-2
9.627466673E2,4.851174355E-2,1.396626234E-2,9.401893616E-2
9.632466673E2,-2.672827244E-2,6.151854992E-3,-4.725742340E-2
9.637466673E2,-9.263467789E-2,2.819436789E-2,-4.126834869E-2
9.642466673E2,-1.205849648E-2,-7.283210754E-3,-1.949310303E-2
9.647466673E2,-5.905866623E-3,3.343695402E-2,-1.222229004E-2
9.652466673E2,-6.352305412E-3,-3.769457340E-3,-7.380485535E-3
9.657466673E2,-1.761496067E-2,2.209889889E-2,4.984855652E-3
9.662466673E2,3.342270851E-3,1.207304001E-2,2.923965454E-3
9.667466673E2,5.963206291E-3,-1.119971275E-2,6.920814514E-3
9.672466673E2,5.897164345E-3,-3.585577011E-3,-2.009677887E-2
9.677466673E2,3.368949890E-2,2.191537619E-2,2.585792542E-2
9.682466673E2,2.292144299E-2,4.956662655E-3,6.606101990E-3
9.687466673E2,4.256367683E-3,-9.967625141E-3,-2.266979218E-2
9.692466673E2,1.960754395E-3,1.123666763E-3,9.578704834E-3
9.697466673E2,3.943085670E-3,4.477143288E-3,-7.943153381E-3
9.702466673E2,-1.056826115E-2,5.900681019E-3,4.719734192E-3
9.707466673E2,2.543795109E-2,-2.372235060E-2,-2.493953705E-2
9.712466673E2,-3.078579903E-2,1.499295235E-3,-4.605293274E-3
9.717466673E2,-1.611299515E-1,1.128405333E-2,-5.700206757E-2
9.722466673E2,-1.298007965E-1,1.961851120E-2,-1.381969452E-2
9.727466673E2,-2.464973927E-2,-2.093750238E-2,-1.857852936E-2
9.732466673E2,-3.047454357E-2,3.173327446E-2,-1.734638214E-2
9.737466673E2,1.107811928E-2,-9.608268738E-3,-9.700775146E-3
9.742466673E2,3.879964352E-2,8.085370064E-4,2.284622192E-2
9.747466673E2,6.906116009E-2,-1.675742865E-2,3.667831421E-3
9.752466673E2,3.677737713E-2,-1.335662603E-2,3.257751465E-3
9.757466673E2,1.951849461E-2,-3.237128258E-3,4.672050476E-3
9.762466673E2,-6.078124046E-3,1.302474737E-2,-6.800651550E-3
9.767466673E2,-9.783208370E-2,-8.531296253E-2,-2.781963348E-2
9.772466673E2,6.541121006E-2,4.374262691E-2,4.252433777E-3
9.777466673E2,6.299316883E-2,6.054001674E-2,-5.297660828E-3
9.782466673E2,9.785294533E-4,1.924168691E-2,1.004409790E-2
9.787466673E2,-2.369893193E-1,-2.939274907E-2,-8.305549622E-3
9.792466673E2,2.997995615E-1,-2.207977772E-1,1.302661896E-1
9.797466673E2,4.323348403E-1,-2.859959602E-1,-9.755229950E-2
9.802466673E2,4.713064730E-1,2.462601662E-2,-3.441429138E-2
9.807466673E2,1.594587862E-1,-4.579010010E-1,1.401233673E-1
9.812466673E2,1.818870306E-1,2.723233700E-1,-1.546669006E-1
9.817466673E2,8.922094107E-2,3.571152687E-2,-1.556968689E-2
9.822466673E2,6.171774864E-2,2.203321457E-2,-3.389072418E-2
9.827466673E2,2.135241032E-2,2.314686775E-2,-9.982109070E-3
9.832466673E2,8.457541466E-3,-2.142977715E-2,-7.134437561E-3
9.837466673E2,-9.952843189E-3,-4.152059555E-3,-8.112907410E-3
9.842466673E2,1.879239082E-2,-8.237600327E-3,5.379676819E-3
9.847466673E2,1.774978638E-2,-4.411935806E-3,5.548477173E-3
9.852466673E2,2.108347416E-2,6.127357483E-5,-6.795883179E-3
9.857466673E2,1.456129551E-2,5.439758301E-3,-1.204776764E-2
9.862466673E2,-4.847782850E-2,-5.665540695E-3,4.855155945E-3
9.867466673E2,-6.028425694E-2,9.903669357E-3,-1.630783081E-4
9.872466673E2,1.187860966E-2,9.125232697E-3,-1.109123230E-2
9.877466673E2,1.807820797E-2,-2.444911003E-2,6.312370300E-3
9.882466673E2,8.418428898E-2,-2.824783325E-3,-1.976013184E-2
9.887466673E2,-1.318371296E-2,1.393556595E-2,2.351760864E-3
9.892466673E2,-7.956027985E-4,-2.078700066E-2,1.521015167E-2
