"Time (s)","Acceleration x (m/s^2)","Acceleration y (m/s^2)","Acceleration z (m/s^2)"
0.000000000E0,1.798206210E0,4.512863636E0,8.408378601E0
1.338100800E-2,1.697707653E0,4.394418716E0,9.254241943E0
5.133810080E-1,5.779264927E0,-2.087737769E-1,8.966505051E0
1.013381008E0,2.874976397E0,-6.892525673E0,2.997010350E-1
1.513381008E0,4.193421841E0,-7.941180229E0,-2.405385017E0
2.013381008E0,3.793222189E0,-1.160638618E1,-1.874178290E0
2.513381008E0,6.907480717E0,-1.365165138E1,-5.443671346E-2
3.013381008E0,4.756931305E0,-1.346321678E1,7.591229677E-1
3.513381008E0,9.159725189E0,-1.317488194E1,1.322034478E0
4.013381008E0,6.792026997E0,-1.070668507E1,-3.125026464E0
4.513381008E0,8.722436905E0,-9.257232666E0,-1.867598057E0
5.013381008E0,6.491129398E0,-6.242276192E0,-2.941377163E0
5.513381008E0,5.227120876E0,-5.686542988E0,1.895115495E0
6.013381008E0,3.951746702E0,-4.225724697E0,-4.770092010E0
6.513381008E0,2.273181438E0,-5.839683533E0,9.349954724E-1
7.013381008E0,2.307877541E0,-5.467001438E0,-2.446661234E0
7.513381008E0,1.386640668E0,-8.886942863E0,-2.051247120E0
8.013381008E0,2.917448997E0,-9.231510162E0,-1.143769264E0
8.513381008E0,3.691527128E0,-1.043749237E1,-1.089332461E0
9.013381008E0,5.744568825E0,-1.403629780E1,9.409775138E-1
9.513381008E0,4.369294167E0,-1.396570969E1,1.266999602E0
1.001338101E1,1.023529911E1,-1.270409393E1,-5.694918036E-1
1.051338101E1,4.201796532E0,-1.227398396E1,2.365305185E0
1.101338101E1,8.940781593E0,-1.082034397E1,-2.727817774E0
1.151338101E1,5.637490273E0,-1.122353458E1,-3.637090325E-1
1.201338101E1,5.267798901E0,-8.444869041E0,-1.432104349E0
1.251338101E1,5.184648514E0,-7.326822758E0,-5.002793789E0
1.301338101E1,5.482554913E0,-7.532605648E0,-9.110672474E-1
1.351338101E1,3.065804005E0,-5.712265968E0,-4.025924206E0
1.401338101E1,3.815953970E0,-5.516652584E0,1.591825247E0
1.451338101E1,3.145963669E0,-4.710271358E0,-3.863810301E0
1.501338101E1,-6.580262631E-2,-5.674578667E0,3.577269912E-1
1.551338101E1,1.719243050E0,-4.716851711E0,-1.815554142E0
1.601338101E1,1.317847013E0,-6.275775433E0,-1.328016520E-1
1.651338101E1,9.924231768E-1,-8.002795219E0,-1.360319614E0
1.701338101E1,1.078564763E0,-9.531808853E0,-1.549352646E0
1.751338101E1,3.523431301E0,-1.036092186E1,1.722832322E-1
1.801338101E1,1.500898004E0,-1.207777214E1,-9.972088337E-1
1.851338101E1,5.215157032E0,-1.286680603E1,-6.221338734E-2
1.901338101E1,3.209971666E0,-1.174696445E1,-7.531409264E-1
1.951338101E1,6.156134605E0,-1.389571953E1,1.039681435E0
2.001338101E1,3.552145243E0,-1.172662544E1,1.092323542E0
2.051338101E1,8.097311974E0,-1.235055447E1,-6.143572330E-1
2.101338101E1,2.438884497E0,-1.497248936E1,-2.506481707E-1
2.151338101E1,5.109872818E0,-9.492925644E0,-2.349751949E0
2.201338101E1,6.381059647E0,-6.869195461E0,-5.020142078E0
2.251338101E1,4.380660057E0,-7.255038261E0,1.639681697E0
2.301338101E1,5.446064472E0,-4.900500774E0,-1.460818172E0
2.351338101E1,3.201596737E0,-5.750551224E0,2.260619164E0
2.401338101E1,4.437489510E0,-3.717249870E0,-2.608176708E0
2.451338101E1,2.017747641E0,-7.366902828E0,4.773681164E-1
2.501338101E1,2.434697151E0,-6.075974941E0,-1.698904037E0
2.551338101E1,8.147560954E-1,-8.889934540E0,-7.812566161E-1
2.601338101E1,1.831705689E0,-1.138863945E1,-1.962114573E-1
2.651338101E1,1.920838356E0,-1.142213917E1,5.515456200E-1
2.701338101E1,6.884748936E0,-1.162612724E1,7.645068169E-1
2.751338101E1,1.594816327E0,-1.274417305E1,1.800599098E-1
2.801338101E1,6.926024914E0,-1.249232864E1,1.386042476E0
2.851338101E1,1.487139225E0,-1.270947742E1,2.853440940E-1
2.901338101E1,8.674580574E0,-1.068754196E1,-3.044866920E-1
2.951338101E1,4.130012035E0,-1.485823250E1,-9.463613629E-1
3.001338101E1,8.543573380E0,-8.863015175E0,-3.092723370E0
3.051338101E1,5.840281963E0,-7.022336483E0,-2.568695068E0
3.101338101E1,5.059623718E0,-1.004806042E1,1.115055323E0
3.151338101E1,6.264409542E0,-7.470392227E0,-3.949951887E0
3.201338101E1,9.158528447E-1,-7.341179848E0,3.379862010E-1
3.251338101E1,1.933400750E0,-6.280561447E0,-3.334398270E0
3.301338101E1,2.493321180E0,-5.342574596E0,2.080559254E0
3.351338101E1,3.343969584E0,-5.506483078E0,-2.490330219E0
3.401338101E1,2.408375978E0,-7.172485828E0,1.389033556E0
3.451338101E1,3.358326674E0,-6.157330990E0,-1.919043779E0
3.501338101E1,1.532602906E0,-9.060422897E0,-6.687939167E-1
3.551338101E1,2.720041037E0,-1.005284595E1,-5.623133108E-2
3.601338101E1,2.796611547E0,-1.022812080E1,-1.933400750E0
3.651338101E1,5.128417015E0,-9.857233047E0,-1.289133191E0
3.701338101E1,3.434298754E0,-1.050808048E1,-2.443670034E0
3.751338101E1,6.032904148E0,-1.289133167E1,1.902294010E-1
3.801338101E1,3.936791420E0,-1.139940739E1,-5.036891699E-1
3.851338101E1,7.216753006E0,-1.236730385E1,1.599601984E0
3.901338101E1,3.442075491E0,-1.176790142E1,5.168496966E-1
3.951338101E1,8.054241180E0,-1.247617722E1,-8.733802289E-2
4.001338101E1,6.186643124E0,-1.265444279E1,1.714457393E0
4.051338101E1,7.761120319E0,-1.141196918E1,-8.117650747E-1
4.101338101E1,5.910272121E0,-1.272024536E1,2.100898266E0
4.151338101E1,7.922037601E0,-1.055234814E1,-2.490330219E0
4.201338101E1,7.995616913E0,-9.290133476E0,4.767699242E-1
4.251338101E1,5.860620975E0,-9.177073479E0,-2.447259426E0
4.301338101E1,4.759922504E0,-8.801998138E0,-4.155734539E0
4.351338101E1,3.705883980E0,-8.939585686E0,-6.137589812E-1
4.401338101E1,3.356531858E0,-6.575476646E0,-5.739783287E0
4.451338101E1,3.413361549E0,-7.298109055E0,1.765903115E0
4.501338101E1,4.089931965E0,-5.498706341E0,-4.250849247E0
4.551338101E1,1.648056626E0,-5.550152302E0,2.011765718E0
4.601338101E1,3.510869026E0,-3.879961967E0,-3.085544825E0
4.651338101E1,1.673181176E0,-6.211767673E0,6.394818425E-1
4.701338101E1,2.198405743E0,-5.009374142E0,-2.492124796E0
4.751338101E1,1.762313843E0,-8.048258781E0,-6.580262445E-3
4.801338101E1,3.265006542E0,-8.478966713E0,2.644068897E-1
4.851338101E1,2.877369165E0,-9.014361382E0,-1.458425403E0
4.901338101E1,3.597010612E0,-1.054397297E1,-1.148554832E-1
4.951338101E1,3.450450182E0,-1.192223835E1,-6.490531564E-1
5.001338101E1,5.681757450E0,-1.417867088E1,9.236295223E-1
5.051338101E1,2.927618504E0,-1.142154026E1,-1.262213886E-1
5.101338101E1,6.191428661E0,-1.269512081E1,1.511067510E0
5.151338101E1,3.105883837E0,-1.430249882E1,1.051047325E0
5.201338101E1,7.802396297E0,-1.162253761E1,-6.903293133E-1
5.251338101E1,5.178068161E0,-1.352602863E1,2.955136001E-1
5.301338101E1,6.227321148E0,-9.363713264E0,-3.323032379E0
5.351338101E1,4.927420139E0,-1.050568771E1,-2.230110645E0
5.401338101E1,1.322632670E0,-8.762516975E0,1.710269928E0
5.451338101E1,2.595016241E0,-5.588437080E0,-3.244667530E0
5.501338101E1,1.989632010E0,-5.115854740E0,2.276770830E0
5.551338101E1,1.764706731E0,-5.606981754E0,-2.163111687E0
5.601338101E1,8.482556343E-1,-6.245266914E0,-1.758724600E-1
5.651338101E1,2.166700840E0,-6.160920143E0,-2.596810818E0
5.701338101E1,5.922235847E-1,-8.782855988E0,-9.266205430E-1
5.751338101E1,6.137589812E-1,-8.382656097E0,-2.213959217E0
5.801338101E1,7.668996453E-1,-9.622138023E0,-1.179063320E0
5.851338101E1,1.764108539E0,-8.655437469E0,4.127619043E-2
5.901338101E1,2.032702923E0,-1.042612648E1,-1.508674622E0
5.951338101E1,6.845267296E0,-8.974281311E0,8.673982024E-1
6.001338101E1,1.931606054E0,-1.219023514E1,1.411765337E0
6.051338101E1,5.397011280E0,-1.268016529E1,-3.230310604E-2
6.101338101E1,2.614158630E0,-1.329930782E1,6.699903607E-1
6.151338101E1,7.277770042E0,-1.346022511E1,4.881358147E-1
6.201338101E1,2.616551638E0,-1.228475189E1,-6.155536175E-1
6.251338101E1,6.960123062E0,-1.265444279E1,-3.146561682E-1
6.301338101E1,4.985445976E0,-1.133061314E1,-1.004985452E0
6.351338101E1,6.617351055E0,-7.980661869E0,-2.600399971E0
6.401338101E1,6.061617851E0,-8.421539307E0,-3.580859184E0
6.451338101E1,6.571887493E0,-9.877572060E0,-4.329812527E0
6.501338101E1,3.858426571E0,-7.138986588E0,-4.578666210E0
6.551338101E1,3.056830883E0,-8.475378036E0,5.389832854E-1
6.601338101E1,4.160520554E0,-5.770291805E0,-4.143172264E0
6.651338101E1,4.070789337E0,-5.559125423E0,3.232105255E0
6.701338101E1,4.173082829E0,-5.007579803E0,-2.882753134E0
6.751338101E1,1.687538147E0,-6.227321148E0,1.716252089E0
6.801338101E1,1.917847395E0,-5.827121258E0,-1.427916884E0
6.851338101E1,1.983051777E0,-6.769893646E0,8.404789567E-1
6.901338101E1,1.595414519E0,-6.674180508E0,-7.692924738E-1
6.951338101E1,2.089532375E0,-7.167101860E0,9.391828626E-2
7.001338101E1,2.501696110E0,-7.275377274E0,3.538386583E0
7.051338101E1,9.678967595E-1,-7.133602619E0,6.011967063E-1
7.101338101E1,9.110672474E-1,-8.191828728E0,5.455635786E-1
7.151338101E1,1.582852125E0,-7.706683636E0,-7.166503668E-1
7.201338101E1,1.111466169E0,-8.310871124E0,7.148557901E-1
7.251338101E1,1.906481385E0,-9.151947975E0,-3.367897868E-1
7.301338101E1,4.037888050E0,-1.113500023E1,4.965107143E-2
7.351338101E1,2.492124796E0,-1.116491032E1,8.183453679E-1
7.401338101E1,4.914857864E0,-1.233739376E1,-3.385843933E-1
7.451338101E1,4.643870354E0,-1.090768242E1,2.008774519E0
7.501338101E1,5.487938881E0,-1.231346512E1,3.888336718E-1
7.551338101E1,6.634698868E0,-1.163031483E1,3.074777126E-1
7.601338101E1,2.383251429E0,-1.066540909E1,-5.521438122E-1
7.651338101E1,3.821935892E0,-8.584251404E0,-2.432304144E0
7.701338101E1,3.203391314E0,-9.572486877E0,4.959124923E-1
7.751338101E1,4.089931965E0,-6.153143406E0,-2.802593470E0
7.801338101E1,4.243072987E0,-6.588038921E0,2.037488461E0
7.851338101E1,4.851447940E-1,-5.964110374E0,-3.346960783E0
7.901338101E1,2.668595552E0,-5.801996708E0,2.529811859E0
7.951338101E1,2.927618504E0,-4.871787071E0,-2.035095692E0
8.001338101E1,2.048256159E0,-5.962913990E0,1.708475351E0
8.051338101E1,2.442473650E0,-5.662614822E0,-1.668993831E0
8.101338101E1,1.487139225E0,-6.644270420E0,-2.440679073E-1
8.151338101E1,1.738983870E0,-6.100501537E0,-1.843669891E0
8.201338101E1,1.179063320E0,-7.249056339E0,-2.356930375E-1
8.251338101E1,2.890529871E0,-7.988438606E0,-1.866401732E-1
8.301338101E1,1.070788145E0,-8.830712318E0,-5.587241054E-1
8.351338101E1,1.676770449E0,-8.566305161E0,-1.190429211E0
8.401338101E1,1.676172256E0,-9.837491989E0,-1.666600943E0
8.451338101E1,1.968096614E0,-1.094357395E1,-7.238288522E-1
8.501338101E1,1.687538147E0,-1.098006535E1,-1.972882271E0
8.551338101E1,4.563711166E0,-1.151725388E1,1.590030670E0
8.601338101E1,1.510469317E0,-1.205324554E1,1.413560033E0
8.651338101E1,4.080958843E0,-1.254437256E1,-1.555334684E-2
8.701338101E1,3.006581545E0,-1.122592735E1,1.140179992E0
8.751338101E1,6.392425537E0,-1.255454254E1,4.582255483E-1
8.801338101E1,3.118446112E0,-1.189113235E1,1.238285661E0
8.851338101E1,7.377670288E0,-1.135992527E1,-3.272184849E0
8.901338101E1,2.872583628E0,-1.202273750E1,-1.735394597E0
8.951338101E1,6.413960934E0,-1.163510036E1,-3.677170277E0
9.001338101E1,4.932205677E0,-1.033998489E1,-9.176474810E-1
9.051338101E1,6.717251301E0,-1.055055332E1,-2.670390129E0
9.101338101E1,6.289534092E0,-9.915857315E0,-8.195417523E-1
9.151338101E1,3.117249727E0,-9.647860527E0,-1.604387641E0
9.201338101E1,5.882754326E0,-7.814958572E0,-2.030908108E0
9.251338101E1,2.968296528E0,-8.033902168E0,3.481557071E-1
9.301338101E1,4.037290096E0,-5.758925915E0,-2.924029350E0
9.351338101E1,1.743171334E0,-6.056832314E0,2.764308453E0
9.401338101E1,3.253042459E0,-5.071587563E0,-2.759522676E0
9.451338101E1,1.202393413E0,-6.286543369E0,9.966106415E-1
9.501338101E1,2.839682341E0,-6.222535133E0,-2.298904419E0
9.551338101E1,1.681556106E0,-7.765905857E0,-5.138586760E-1
9.601338101E1,1.514058471E0,-8.778069496E0,7.004988194E-1
9.651338101E1,2.509472847E0,-1.143410301E1,1.298106313E0
9.701338101E1,3.387040377E0,-1.137069321E1,-3.361915946E-1
9.751338101E1,2.375474691E0,-1.177388382E1,1.408176184E0
9.801338101E1,5.683551788E0,-1.272204018E1,-1.022931710E-1
9.851338101E1,1.496710539E0,-1.224168110E1,-3.696911037E-1
9.901338101E1,7.689335346E0,-1.165603733E1,-4.292723656E0
9.951338101E1,3.956532240E0,-1.315095329E1,1.836491376E-1
1.000133810E2,6.495316982E0,-1.003908730E1,-2.287538528E0
1.005133810E2,5.833701611E0,-8.135597229E0,-2.491526604E0
1.010133810E2,4.174279213E0,-7.974081516E0,1.634896040E0
1.015133810E2,3.568894863E0,-5.460421085E0,-3.282952785E0
1.020133810E2,2.968894720E0,-6.203990936E0,2.290529490E0
1.025133810E2,3.126222849E0,-4.138386726E0,-2.566302299E0
1.030133810E2,2.252244234E0,-6.798607349E0,2.420340061E0
1.035133810E2,2.705085993E0,-5.851647854E0,-2.145763636E0
1.040133810E2,8.775677085E-1,-8.328817368E0,2.057827413E-1
1.045133810E2,2.439482689E0,-7.028318405E0,-1.579262972E0
1.050133810E2,1.107278705E0,-9.175876617E0,-6.430711150E-1
1.055133810E2,2.462812662E0,-9.113064766E0,-3.206382394E-1
1.060133810E2,1.550549030E0,-1.119242764E1,-2.241476536E0
1.065133810E2,7.768298626E0,-1.274058437E1,3.150749207E0
1.070133810E2,1.878963947E0,-1.140419292E1,5.730810165E-1
1.075133810E2,5.682355404E0,-1.372343636E1,1.060618639E0
1.080133810E2,2.340180635E0,-1.264247799E1,-1.022931710E-1
1.085133810E2,6.076572895E0,-1.203769207E1,-9.044869542E-1
1.090133810E2,1.743769526E0,-1.291346550E1,-6.424728632E-1
1.095133810E2,7.214958668E0,-9.810572624E0,-1.983051777E0
1.100133810E2,3.209373474E0,-1.191326618E1,-8.117650747E-1
1.105133810E2,7.821538925E0,-8.961718559E0,-2.294118643E0
1.110133810E2,6.703492641E0,-9.122636795E0,-2.317448616E0
1.115133810E2,4.412364960E0,-8.428717613E0,-4.947160780E-1
1.120133810E2,5.599205017E0,-8.543573380E0,-2.346760750E0
1.125133810E2,4.150351048E0,-7.725826263E0,1.333400369E0
1.130133810E2,3.448655605E0,-5.414359570E0,-3.504886866E0
1.135133810E2,3.279363394E0,-6.372684956E0,2.091326952E0
1.140133810E2,2.794816732E0,-5.444868088E0,-2.955734253E0
1.145133810E2,2.970091105E0,-6.495316982E0,2.082952023E0
1.150133810E2,3.544368505E0,-4.759922504E0,-2.555534601E0
1.155133810E2,2.394019127E0,-7.405188084E0,1.003789067E0
1.160133810E2,3.311666489E0,-6.626922131E0,-2.109273195E0
1.165133810E2,8.069794178E-1,-8.858229637E0,3.601198196E-1
1.170133810E2,2.216950178E0,-7.808976650E0,-8.195417523E-1
1.175133810E2,6.472585201E-1,-8.457431793E0,-1.024128079E0
1.180133810E2,2.137388945E0,-8.422736168E0,1.435693651E-1
1.185133810E2,2.215753794E0,-8.700303078E0,-1.314856052E0
1.190133810E2,3.241676569E0,-1.007079220E1,7.962117195E-1
1.195133810E2,3.174677372E0,-1.045543861E1,9.541380405E-1
1.200133810E2,2.070389748E0,-8.952147484E0,-4.115654826E-1
1.205133810E2,1.639681697E0,-1.145862961E1,6.586244106E-1
1.210133810E2,2.849253654E0,-1.234517002E1,5.042873621E-1
1.215133810E2,3.166302681E0,-1.277468204E1,1.186840057E0
1.220133810E2,4.851448059E0,-1.344586849E1,-1.269392371E0
1.225133810E2,2.175673962E0,-1.318445301E1,-1.962114573E-1
1.230133810E2,3.326023579E0,-1.182413292E1,-9.104689956E-1
1.235133810E2,2.577668190E0,-1.195753288E1,-3.170489892E-2
1.240133810E2,5.926423550E0,-1.131147099E1,-1.347757339E0
1.245133810E2,3.818944931E0,-1.164227867E1,-2.035095692E0
1.250133810E2,3.408575773E0,-1.318923855E1,3.597010612E0
1.255133810E2,4.601995945E0,-8.216953278E0,-2.499303341E0
1.260133810E2,8.775677085E-1,-8.645866394E0,2.356332064E0
1.265133810E2,3.265604734E0,-6.988836765E0,-2.676970243E0
1.270133810E2,2.563311338E0,-5.806184292E0,-6.634100676E-1
1.275133810E2,2.801397085E0,-5.009374142E0,-1.721635938E0
1.280133810E2,-2.153540403E-1,-6.080760479E0,-5.982056726E-3
1.285133810E2,9.487541914E-1,-7.024130821E0,-2.040479422E0
1.290133810E2,1.368694544E0,-7.807182312E0,-1.677966833E0
1.295133810E2,1.018146038E0,-8.025527000E0,-1.397408366E0
1.300133810E2,1.360319614E0,-9.022735596E0,-1.517049551E0
1.305133810E2,1.091127157E0,-8.813961983E0,-1.478764415E0
1.310133810E2,1.556531072E0,-9.371489525E0,-1.133001566E0
1.315133810E2,4.278367043E0,-7.995018482E0,-7.597211599E-1
1.320133810E2,3.538386583E0,-1.101177025E1,-1.972882271E0
1.325133810E2,5.363512039E0,-1.183131123E1,1.228714466E0
1.330133810E2,2.075773716E0,-1.102134132E1,-1.325623751E0
1.335133810E2,6.328417778E0,-1.153340530E1,8.315058947E-1
1.340133810E2,2.097309113E0,-1.186840057E1,4.325026870E-1
1.345133810E2,8.087740898E0,-1.173260784E1,-4.031906128E-1
1.350133810E2,3.233301640E0,-1.158126163E1,2.787638307E-1
1.355133810E2,7.871190071E0,-1.165005493E1,-8.362914920E-1
1.360133810E2,1.499103427E0,-1.207537937E1,-7.525427341E-1
1.365133810E2,8.860024452E0,-1.035912704E1,-1.365703583E0
1.370133810E2,4.823930264E0,-1.183131123E1,-1.692323804E0
1.375133810E2,8.760722160E0,-1.008215809E1,-1.563709617E0
1.380133810E2,5.405984402E0,-1.299900913E1,-8.548358679E-1
1.385133810E2,8.166105270E0,-1.033878803E1,-1.889133453E0
1.390133810E2,6.981060028E0,-8.129614830E0,-3.978665829E0
1.395133810E2,4.896911621E0,-9.858428955E0,8.147560954E-1
1.400133810E2,7.198806763E0,-5.680561066E0,-1.259821177E0
1.405133810E2,5.036293507E0,-7.148557663E0,2.350948334E0
1.410133810E2,6.534200668E0,-4.906482697E0,-2.264806747E0
1.415133810E2,3.019742250E0,-6.597609997E0,3.180659533E0
1.420133810E2,3.185445070E0,-4.822135925E0,-2.516052961E0
1.425133810E2,2.041675806E0,-7.697112083E0,9.649057388E-1
1.430133810E2,3.041875839E0,-5.543571949E0,-3.228515863E0
1.435133810E2,1.814955950E0,-8.342576027E0,1.435693540E-2
1.440133810E2,2.630908489E0,-7.810173035E0,-1.968096614E0
1.445133810E2,1.728814363E0,-9.224929810E0,-1.319043517E0
1.450133810E2,2.874976397E0,-8.407182693E0,-1.304686546E0
1.455133810E2,2.657827854E0,-9.605986595E0,-1.153340459E0
1.460133810E2,3.989433527E0,-1.073599720E1,5.473581553E-1
1.465133810E2,2.841476917E0,-1.108833981E1,-8.889335990E-1
1.470133810E2,5.108078003E0,-1.236251831E1,5.886343718E-1
1.475133810E2,2.092523336E0,-1.130668545E1,1.352542996E0
1.480133810E2,6.191428661E0,-1.154596710E1,5.006981492E-1
1.485133810E2,3.834498405E0,-1.124028397E1,-4.546363056E-1
1.490133810E2,6.975676060E0,-1.203589821E1,-9.571290575E-3
1.495133810E2,3.954737663E0,-1.066361427E1,-2.470589429E-1
1.500133810E2,7.371688366E0,-1.188455200E1,6.478567123E-1
1.505133810E2,2.738585472E0,-1.105125141E1,-1.405185103E0
1.510133810E2,4.509872437E0,-1.045663452E1,-1.064207911E0
1.515133810E2,2.784049034E0,-1.108475113E1,-1.070788145E0
1.520133810E2,6.379265308E0,-1.244387436E1,2.500499785E-1
1.525133810E2,3.787240028E0,-1.067019463E1,-4.085744619E-1
1.530133810E2,6.398407936E0,-1.239123249E1,2.901297510E-1
1.535133810E2,4.812564373E0,-1.032263660E1,-1.235892892E0
1.540133810E2,6.990631580E0,-1.197846985E1,1.290927768E0
1.545133810E2,3.860819340E0,-1.053619671E1,-3.290131092E-1
1.550133810E2,6.897909641E0,-1.165304661E1,1.228714466E0
1.555133810E2,2.544168711E0,-1.188395405E1,-2.167897224E0
1.560133810E2,6.052046776E0,-1.260838032E1,-7.573283911E-1
1.565133810E2,2.642872572E0,-1.131625652E1,2.123630047E-1
1.570133810E2,6.811169624E0,-1.293081379E1,4.366901219E-1
1.575133810E2,3.145963669E0,-1.382931805E1,-7.208378315E-1
1.580133810E2,5.787639618E0,-1.193659592E1,-1.316052489E-2
1.585133810E2,2.816950560E0,-1.265504074E1,1.362114310E0
1.590133810E2,5.772684574E0,-1.130489063E1,1.070788145E0
1.595133810E2,2.429911375E0,-1.271366501E1,1.869392633E0
1.600133810E2,9.141778946E0,-1.081196880E1,-7.256234884E-1
1.605133810E2,3.589233875E0,-1.172842026E1,2.105683982E-1
1.610133810E2,9.026923180E0,-9.065806389E0,-1.979462504E0
1.615133810E2,6.330212116E0,-1.061336517E1,-3.912265003E-1
1.620133810E2,9.973284721E0,-7.843672752E0,-2.308475733E0
1.625133810E2,7.988438606E0,-1.039801121E1,7.483552694E-1
1.630133810E2,6.763911247E0,-8.162516594E0,-2.458625317E0
1.635133810E2,6.631708145E0,-8.153543472E0,-1.676770449E0
1.640133810E2,5.359922886E0,-8.339585304E0,4.528416991E-1
1.645133810E2,4.805984497E0,-6.967899323E0,-2.244467735E0
1.650133810E2,1.939980984E0,-7.898109436E0,1.738983870E0
1.655133810E2,3.970889091E0,-4.453640938E0,-2.236690998E0
1.660133810E2,2.697907448E0,-5.913861275E0,1.128215909E0
1.665133810E2,2.845664263E0,-3.365504980E0,-3.817150354E0
1.670133810E2,3.499503136E0,-8.368897438E0,-3.358326674E0
1.675133810E2,6.009573936E0,-1.228176022E1,1.923829436E0
1.680133810E2,2.967100143E0,-1.221296692E1,4.049852192E-1
1.685133810E2,9.937990189E0,-1.253480148E1,-6.999006122E-2
1.690133810E2,5.105087280E0,-1.001156998E1,4.085744619E-1
1.695133810E2,7.971090317E0,-9.094520569E0,7.962117195E-1
1.700133810E2,5.619544029E0,-7.855038643E0,-1.636690736E0
1.705133810E2,3.934996843E0,-9.271589279E0,2.293520451E0
1.710133810E2,6.843472958E0,-7.265805721E0,-3.198605776E0
1.715133810E2,5.114658356E0,-8.730812073E0,1.344766378E0
1.720133810E2,5.894120216E0,-5.810969830E0,-3.071187973E0
1.725133810E2,3.229114056E0,-9.884152412E0,9.918249846E-1
1.730133810E2,5.170291424E0,-5.310271740E0,-1.683350682E0
1.735133810E2,2.173879385E0,-8.796015739E0,-3.469592705E-2
1.740133810E2,4.555934429E0,-6.549753666E0,-2.054238319E0
1.745133810E2,1.164706469E0,-7.752745152E0,-4.815555513E-1
1.750133810E2,5.298905849E0,-7.089335442E0,3.002992272E-1
1.755133810E2,2.212164640E0,-9.055637360E0,-6.873382926E-1
1.760133810E2,2.885744095E0,-8.228319168E0,7.621139884E-1
1.765133810E2,1.205982566E0,-8.602795601E0,-6.717849374E-1
1.770133810E2,4.292723656E0,-6.656832695E0,-1.877767563E0
1.775133810E2,6.591628075E0,-7.752745152E0,-1.740778536E-1
1.780133810E2,5.211567879E0,-8.124829292E0,-7.573283911E-1
1.785133810E2,6.473183632E0,-6.856633186E0,6.400800347E-1
1.790133810E2,4.548157692E0,-1.115414238E1,-2.333002090E-1
1.795133810E2,1.300858021E1,-6.997809887E0,-4.606183618E-2
1.800133810E2,4.040879250E0,-1.499940872E1,-1.298704505E0
1.805133810E2,7.211967468E0,-1.018385315E1,1.738983870E0
1.810133810E2,9.086744308E0,-8.434102058E0,-2.572284341E-1
1.815133810E2,4.703093052E0,-9.491728783E0,4.612165689E-1
1.820133810E2,4.972285271E0,-7.550551891E0,-3.375076294E0
1.825133810E2,3.647858143E0,-9.027522087E0,1.166501045E-1
1.830133810E2,1.059900761E1,-6.612565517E0,-3.444468260E0
1.835133810E2,2.315055847E0,-9.991230965E0,-5.551348329E-1
1.840133810E2,8.170890808E0,-8.451449394E0,-4.651647091E0
1.845133810E2,6.463612080E0,-9.381061554E0,-1.691127419E0
1.850133810E2,3.610171080E0,-1.416251945E1,-2.283949137E0
1.855133810E2,6.142973900E0,-1.142991543E1,-2.030309916E0
1.860133810E2,2.357528448E0,-1.204546928E1,-1.869990945E0
1.865133810E2,8.414361000E0,-1.163031483E1,1.121635556E0
1.870133810E2,4.175475538E-1,-9.121439934E0,-2.414956331E0
1.875133810E2,7.894520283E0,-9.821340561E0,4.975874901E0
1.880133810E2,3.107080221E0,-9.439086914E0,-1.788634956E-1
1.885133810E2,1.071984577E1,-8.904889107E0,2.609373093E0
1.890133810E2,1.006122112E1,-1.151067352E1,4.200001717E0
1.895133810E2,1.004387283E1,-1.054935646E1,-1.363908887E0
1.900133810E2,5.369493961E0,-1.205384445E1,-4.677968323E-1
1.905133810E2,5.650052547E0,-8.295317650E0,4.701896608E-1
1.910133810E2,5.745765209E0,-5.020142078E0,-5.701498032E0
1.915133810E2,5.807978630E0,-8.167302132E0,1.484746456E0
1.920133810E2,4.421936035E0,-5.740979671E0,-4.034298897E0
1.925133810E2,3.292523861E0,-7.602595806E0,1.515853167E0
1.930133810E2,5.062016487E0,-5.673980713E0,-2.481955290E0
1.935133810E2,7.034898400E-1,-7.581658363E0,1.745564103E0
1.940133810E2,7.704889178E-1,-6.742974281E0,-4.289134502E0
1.945133810E2,2.592623234E0,-7.597810268E0,1.813759565E0
1.950133810E2,3.265006542E0,-8.413164139E0,2.931207716E-1
1.955133810E2,2.148754835E0,-9.918848038E0,-1.207179070E0
1.960133810E2,6.288337708E0,-1.096271706E1,1.292124242E-1
1.965133810E2,3.211168051E0,-1.216869926E1,-2.745763958E-1
1.970133810E2,5.899504185E0,-1.085743237E1,1.663609982E0
1.975133810E2,9.541380405E-1,-1.157827091E1,1.066002488E0
1.980133810E2,7.657032490E0,-1.377129269E1,-5.300102234E-1
1.985133810E2,3.446861029E0,-1.184626675E1,-8.356932998E-1
1.990133810E2,8.726025581E0,-1.113918781E1,8.171489239E-1
1.995133810E2,7.406982422E0,-1.284108257E1,1.510469317E0
2.000133810E2,8.751151085E0,-8.340183258E0,-1.311266780E0
2.005133810E2,7.021738052E0,-8.237292290E0,-7.591229677E-1
2.010133810E2,5.997610092E0,-7.768298626E0,1.637887120E0
2.015133810E2,5.249852657E0,-6.212964058E0,-2.697907448E0
2.020133810E2,4.490729809E0,-6.826124668E0,2.314457655E0
2.025133810E2,3.756731510E0,-4.652843475E0,-3.675375462E0
2.030133810E2,3.477967739E0,-6.645466805E0,-7.256234884E-1
2.035133810E2,3.633501291E0,-5.221138954E0,-3.265604734E0
2.040133810E2,1.777269006E0,-7.830512047E0,-2.086541414E0
2.045133810E2,4.412364960E0,-8.665607452E0,1.338784218E0
2.050133810E2,2.279761791E0,-8.327022552E0,-1.515853167E0
2.055133810E2,4.504488468E0,-1.075633621E1,1.588834286E0
2.060133810E2,1.701895118E0,-1.107518005E1,1.601994753E0
2.065133810E2,7.183253765E0,-1.444965744E1,2.094916344E0
2.070133810E2,2.442473650E0,-1.504726505E1,4.462614357E-1
2.075133810E2,1.112961674E1,-8.023732185E0,-1.215553880E0
2.080133810E2,6.960123062E0,-7.404589653E0,-2.078166485E0
2.085133810E2,4.195814610E0,-7.084549427E0,1.511067510E0
2.090133810E2,3.653241873E0,-6.175277233E0,-5.104488850E0
2.095133810E2,5.083551884E0,-6.400202274E0,2.985046148E0
2.100133810E2,3.152543783E0,-5.781059742E0,-1.993819475E0
2.105133810E2,5.395814776E-1,-9.370293617E0,-6.305087805E-1
2.110133810E2,3.793222189E0,-8.012965202E0,7.860422134E-1
2.115133810E2,2.181057930E0,-1.180140114E1,8.362914920E-1
2.120133810E2,4.253242016E0,-1.166142082E1,3.265006542E0
2.125133810E2,-7.166503668E-1,-1.119063377E1,-1.915454507E0
2.130133810E2,4.184448719E0,-8.688937187E0,1.440479279E0
2.135133810E2,2.731407166E0,-5.415555954E0,-3.546163082E0
2.140133810E2,2.568695068E0,-7.368099213E0,-1.131206870E0
2.145133810E2,4.013959885E0,-8.309076309E0,1.107278705E0
2.150133810E2,4.175475538E-1,-1.317667580E1,2.384447813E0
2.155133810E2,7.165905476E0,-1.546361637E1,1.697109461E0
2.160133810E2,3.369094372E0,-1.514656734E1,-2.420340061E0
2.165133810E2,5.178068161E0,-1.302473164E1,-1.422533035E0
2.170133810E2,3.209971666E0,-7.693522930E0,-1.822134495E0
2.175133810E2,2.315055847E0,-5.681757450E0,-4.438686073E-1
2.180133810E2,2.206182480E0,-4.737788677E0,-3.179463148E0
2.185133810E2,1.435693651E-1,-6.487540245E0,5.874379873E-1
2.190133810E2,1.231107235E0,-7.663014412E0,-3.198605776E0
2.195133810E2,2.137987137E0,-7.523034573E0,-6.340979785E-2
2.200133810E2,1.352542996E0,-6.390631199E0,-2.774477959E0
2.205133810E2,3.182454109E0,-1.264367485E1,-9.110672474E-1
2.210133810E2,3.779463291E0,-1.290867996E1,-1.312463164E0
2.215133810E2,2.448455811E0,-1.125882912E1,-1.680957913E0
2.220133810E2,6.661618233E0,-1.183669567E1,1.466202021E0
2.225133810E2,1.503889084E0,-1.111406326E1,5.084748268E-1
2.230133810E2,9.722636223E0,-1.030648518E1,-1.153340459E0
2.235133810E2,3.104687452E0,-1.275374508E1,-1.920240164E0
2.240133810E2,7.607381344E0,-9.355937004E0,-4.332205296E0
2.245133810E2,9.389435768E0,-1.081735325E1,-1.135394335E0
2.250133810E2,7.554739475E0,-1.002772141E1,-3.228515863E0
2.255133810E2,7.009175777E0,-9.509077072E0,-8.673982024E-1
2.260133810E2,5.533402443E0,-9.619147301E0,1.032503009E0
2.265133810E2,7.580461979E0,-3.638286829E0,-3.812962770E0
2.270133810E2,3.199802160E0,-7.958528042E0,1.350748420E0
2.275133810E2,6.334399700E0,-4.887938499E0,-4.256233215E0
2.280133810E2,1.977667928E0,-6.715456963E0,1.330409408E0
2.285133810E2,4.790431023E0,-4.271786690E0,-2.957528830E0
2.290133810E2,3.088535786E0,-6.157928944E0,2.941975355E0
2.295133810E2,3.640679598E0,-5.768496990E0,-4.382454872E0
2.300133810E2,2.191825628E0,-6.004788399E0,1.000199914E0
2.305133810E2,2.252842426E0,-6.726822853E0,-2.174477577E0
2.310133810E2,1.753340840E0,-6.835097790E0,-3.607180119E-1
2.315133810E2,2.761317253E0,-6.101697922E0,-1.797608018E0
2.320133810E2,1.674975872E0,-7.462615490E0,-3.227319479E0
2.325133810E2,3.158525944E0,-6.966104984E0,-1.177268744E0
2.330133810E2,2.416750908E0,-8.810373306E0,-1.330409408E0
2.335133810E2,3.396611691E0,-9.188439369E0,7.645068169E-1
2.340133810E2,4.612165451E0,-9.728020668E0,3.140579760E-1
2.345133810E2,3.796811342E0,-1.077906799E1,3.052045345E0
2.350133810E2,2.930011272E0,-1.139821053E1,4.666004330E-2
2.355133810E2,6.518048763E0,-1.485942841E1,3.766302824E0
2.360133810E2,3.815355778E0,-1.220160103E1,-4.001995921E-1
2.365133810E2,7.065407276E0,-1.245583820E1,-6.251249313E-1
2.370133810E2,3.204587698E0,-1.317368507E1,-3.798605800E-1
2.375133810E2,9.263813019E0,-1.032921696E1,1.009771109E0
2.380133810E2,6.605386734E0,-1.209512043E1,6.711867452E-1
2.385133810E2,7.247261524E0,-7.580461979E0,-1.154536963E0
2.390133810E2,5.889334679E0,-5.414359570E0,-2.709871531E0
2.395133810E2,1.453041553E0,-5.694917679E0,1.577468276E0
2.400133810E2,9.254241586E-1,-5.838487148E0,-1.548754454E0
2.405133810E2,8.404789567E-1,-5.627918720E0,1.563111424E0
2.410133810E2,1.165902853E0,-4.800002098E0,-4.630111754E-1
2.415133810E2,1.454836130E0,-5.754140377E0,-5.228317380E-1
2.420133810E2,2.536391914E-1,-6.538986206E0,-8.135596663E-2
2.425133810E2,9.696913958E-1,-9.175876617E0,-1.304088384E-1
2.430133810E2,6.155536175E-1,-9.607781410E0,1.064207911E0
2.435133810E2,1.506281853E0,-1.296790218E1,6.879364848E-1
2.440133810E2,3.389433384E0,-1.404287815E1,-4.785645287E-3
2.445133810E2,1.868196249E0,-1.274297714E1,2.507678032E0
2.450133810E2,5.268995285E0,-1.386999607E1,3.463610709E-1
2.455133810E2,2.731407166E0,-1.313779259E1,7.944171429E-1
2.460133810E2,7.409973621E0,-1.295833111E1,-2.231307030E0
2.465133810E2,5.510072231E0,-9.043074608E0,-4.163511395E-1
2.470133810E2,4.059423447E0,-8.732605934E0,-7.627122402E-1
2.475133810E2,3.378665686E0,-6.465406895E0,-3.239881754E0
2.480133810E2,2.237887383E0,-7.966304779E0,2.819941521E0
2.485133810E2,2.312663078E0,-5.611767292E0,-4.102494240E0
2.490133810E2,1.682752490E0,-6.128616810E0,1.817348838E0
2.495133810E2,1.802991867E0,-5.372485161E0,-2.181057930E0
2.500133810E2,1.234696507E0,-6.138786316E0,-3.272185028E-1
2.505133810E2,1.718046665E0,-7.631907940E0,-9.014959335E-1
2.510133810E2,1.403988719E0,-8.483154297E0,-1.083350420E0
2.515133810E2,2.158325911E0,-1.095135117E1,1.156929731E0
2.520133810E2,2.374876499E0,-1.244387436E1,1.081555843E0
2.525133810E2,5.215157032E0,-1.189053345E1,1.074975610E0
2.530133810E2,1.277767301E0,-1.236012554E1,4.863412082E-1
2.535133810E2,6.638886452E0,-1.270469189E1,2.422732860E-1
2.540133810E2,2.542972326E0,-1.268794250E1,-3.230310604E-2
2.545133810E2,8.589036942E0,-1.043569756E1,-1.070788145E0
2.550133810E2,5.295914650E0,-1.121396351E1,-3.427718580E-1
2.555133810E2,5.400002480E0,-1.040698433E1,9.212367237E-2
2.560133810E2,5.554937840E0,-6.253043652E0,-1.767697692E0
2.565133810E2,2.759522676E0,-6.762116909E0,2.216950178E0
2.570133810E2,3.669393539E0,-5.117649555E0,-2.204387903E0
2.575133810E2,1.808973908E0,-9.393025398E0,-1.896910191E0
2.580133810E2,2.988037348E0,-9.418149948E0,6.161518097E-1
2.585133810E2,2.997608662E0,-1.144905853E1,-6.203392744E-1
2.590133810E2,6.808776855E0,-1.288654613E1,1.680957913E0
2.595133810E2,3.113660574E0,-1.113260746E1,-1.292124271E0
2.600133810E2,1.024487019E1,-1.062114143E1,-7.190431952E-1
2.605133810E2,6.490531445E0,-8.422736168E0,-9.302098155E-1
2.610133810E2,6.662814617E0,-8.224729538E0,5.994020700E-1
2.615133810E2,6.772884369E0,-5.880361557E0,5.706881881E-1
2.620133810E2,1.212562919E0,-6.541976929E0,3.821935892E0
2.625133810E2,2.745764017E0,-5.566901684E0,-3.135794163E0
2.630133810E2,2.799602509E0,-4.052245140E0,1.836491376E-1
2.635133810E2,2.227119684E0,-4.819144726E0,-1.658824325E0
2.640133810E2,1.150349498E0,-6.774679184E0,-2.219343036E-1
2.645133810E2,9.637092948E-1,-9.239286423E0,-3.337987661E-1
2.650133810E2,2.952743053E0,-1.020419216E1,-1.872981906E0
2.655133810E2,2.059023857E0,-1.182832050E1,4.295116663E-1
2.660133810E2,2.496312141E0,-1.092742252E1,-1.001396298E0
2.665133810E2,3.388236761E0,-1.228176022E1,4.468596280E-1
2.670133810E2,1.743171334E0,-1.132762241E1,4.821537733E-1
2.675133810E2,6.270989895E0,-1.422951794E1,2.524427772E-1
2.680133810E2,2.635095835E0,-1.241276741E1,-5.922235921E-2
2.685133810E2,7.251449108E0,-1.185284710E1,-2.100898266E0
2.690133810E2,4.283152580E0,-1.215434265E1,-6.759724021E-1
2.695133810E2,7.275377274E0,-9.501300812E0,-1.706680775E0
2.700133810E2,5.184050083E0,-7.356733322E0,-2.252244234E0
2.705133810E2,3.978067636E0,-8.057231903E0,5.294120312E-1
2.710133810E2,6.001199245E0,-5.023731232E0,-3.105883837E0
2.715133810E2,3.967299938E0,-6.063412666E0,6.616154313E-1
2.720133810E2,2.840878725E0,-5.243870735E0,-4.131208420E0
2.725133810E2,2.697309256E0,-6.568896294E0,1.085145116E0
2.730133810E2,2.209173441E0,-6.092126369E0,-2.096112728E0
2.735133810E2,1.549352646E0,-8.084749222E0,-4.468596280E-1
2.740133810E2,1.031904817E0,-7.725227833E0,-9.972088337E-1
2.745133810E2,2.501696110E0,-1.054576778E1,-1.546959877E0
2.750133810E2,5.004588604E0,-1.200060368E1,6.975077987E-1
2.755133810E2,2.638685226E0,-1.112004471E1,-1.049252748E0
2.760133810E2,4.805984497E0,-1.259940720E1,2.046461582E0
2.765133810E2,3.014956474E0,-1.107039356E1,5.898307562E-1
2.770133810E2,7.660621643E0,-1.236251831E1,2.381456852E0
2.775133810E2,2.381456852E0,-1.135753250E1,2.428714931E-1
2.780133810E2,9.747162819E0,-9.976874352E0,-1.261615753E0
2.785133810E2,4.523631096E0,-1.198804188E1,8.919246197E-1
2.790133810E2,9.348159790E0,-9.517452240E0,-1.068993568E0
2.795133810E2,4.755734921E0,-9.687342644E0,1.201196909E0
2.800133810E2,6.012565136E0,-9.167501450E0,1.651047587E0
2.805133810E2,6.640681267E0,-5.509474277E0,-4.426721856E-2
2.810133810E2,5.201996326E0,-6.029912949E0,9.840483069E-1
2.815133810E2,4.351347923E0,-5.864210129E0,-3.244667530E0
2.820133810E2,3.546163082E0,-6.937989235E0,2.084746838E0
2.825133810E2,3.757927895E0,-5.535196781E0,-1.950748682E0
2.830133810E2,2.678765059E0,-8.545368195E0,1.133001566E0
2.835133810E2,2.745764017E0,-7.356733322E0,-2.048256159E0
2.840133810E2,-2.261217386E-1,-9.848857880E0,-4.941178858E-1
2.845133810E2,2.228914261E0,-8.846863747E0,-1.543370634E-1
2.850133810E2,4.274777889E0,-1.014676476E1,-2.721835852E0
2.855133810E2,7.747959614E0,-9.214161873E0,-1.926222295E-1
2.860133810E2,4.189234257E0,-1.087298584E1,-4.229314029E-1
2.865133810E2,8.340183258E0,-9.854840279E0,1.714457393E0
2.870133810E2,7.390232563E0,-1.133061314E1,5.168496966E-1
2.875133810E2,6.709474564E0,-1.144247818E1,1.200000525E0
2.880133810E2,4.329812527E0,-1.251326561E1,1.834696770E0
2.885133810E2,8.130811691E0,-1.182353497E1,-1.500898004E0
2.890133810E2,2.247458696E0,-1.211545944E1,1.826321840E0
2.895133810E2,5.667998791E0,-1.120199966E1,-2.154736757E0
2.900133810E2,5.766702652E0,-9.388239861E0,-1.553540111E0
2.905133810E2,2.458027124E0,-9.038289070E0,8.602197170E-1
2.910133810E2,3.178864956E0,-5.275575638E0,-3.893720627E0
2.915133810E2,3.745963812E0,-5.631507874E0,8.057830334E-1
2.920133810E2,3.323032379E0,-4.608576298E0,-2.656033039E0
2.925133810E2,2.222334146E0,-5.662614822E0,1.244267747E-1
2.930133810E2,1.847259045E0,-6.526423931E0,1.339980662E-1
2.935133810E2,-6.065805554E-1,-8.809176445E0,5.850451589E-1
2.940133810E2,1.685743570E0,-7.646264553E0,-1.631905079E0
2.945133810E2,6.807580590E-1,-1.161296654E1,-1.721037745E0
2.950133810E2,1.403988719E0,-1.075932693E1,-3.098705411E-1
2.955133810E2,1.628913999E0,-1.143410301E1,-7.112665176E-1
2.960133810E2,3.606581926E0,-1.321436310E1,6.089733839E-1
2.965133810E2,1.939980984E0,-1.235773277E1,3.409772217E-1
2.970133810E2,5.800201893E0,-1.277886963E1,6.957131624E-1
2.975133810E2,1.547558069E0,-1.206461143E1,-1.351944804E-1
2.980133810E2,6.819544315E0,-1.314915848E1,3.511467278E-1
2.985133810E2,2.689532757E0,-1.211127186E1,8.344969153E-1
2.990133810E2,7.871190071E0,-9.891928673E0,-1.992623091E0
2.995133810E2,4.839483738E0,-1.037228775E1,-3.529413342E-1
3.000133810E2,5.133202553E0,-9.060422897E0,-1.179063320E0
3.005133810E2,5.267798901E0,-6.452844620E0,-2.016551256E0
3.010133810E2,3.406183004E0,-7.441678524E0,2.477767944E0
3.015133810E2,2.734398127E0,-4.942375183E0,-3.391826153E0
3.020133810E2,2.082952023E0,-5.779862881E0,8.327022791E-1
3.025133810E2,2.063809633E0,-6.296712875E0,-6.586244106E-1
3.030133810E2,1.814955950E0,-7.524828911E0,-2.187039852E0
3.035133810E2,1.324427366E0,-9.142376900E0,-6.233302951E-1
3.040133810E2,1.808973908E0,-1.196889877E1,-5.742774606E-1
3.045133810E2,5.520840168E0,-1.335972691E1,1.033699393E0
3.050133810E2,2.757728100E0,-1.110748291E1,1.280758262E0
3.055133810E2,8.877371788E0,-1.152084255E1,-1.731207132E0
3.060133810E2,3.586242914E0,-1.164347458E1,-1.627119333E-1
3.065133810E2,4.612165451E0,-7.822735310E0,1.740778536E-1
3.070133810E2,5.146363258E0,-6.058627129E0,-2.583052158E0
3.075133810E2,1.815554142E0,-4.784449100E0,8.679963946E-1
3.080133810E2,2.458625317E0,-5.391627789E0,-2.702095032E0
3.085133810E2,1.648056626E0,-8.991030693E0,-1.195214868E0
3.090133810E2,3.662813187E0,-9.947562218E0,3.026920557E-1
3.095133810E2,1.216750264E0,-1.178046417E1,2.391626120E0
3.100133810E2,5.203192711E0,-1.333878994E1,1.890329838E0
3.105133810E2,2.241476536E0,-1.240140152E1,-8.440681696E-1
3.110133810E2,2.854039192E0,-7.016952515E0,1.986042738E0
3.115133810E2,3.336791277E0,-4.949553490E0,-3.736392498E0
3.120133810E2,2.871387079E-2,-7.765307903E0,-2.209771633E0
3.125133810E2,4.195216179E0,-9.933204651E0,1.001994491E0
3.130133810E2,1.293320656E0,-1.160638618E1,1.478764415E0
3.135133810E2,4.663012981E0,-1.177627659E1,-1.015753269E0
3.140133810E2,3.643072367E0,-1.247139168E1,-8.709874153E-1
3.145133810E2,2.453839540E0,-6.543173313E0,1.272981644E0
3.150133810E2,2.836691141E0,-4.578067780E0,-3.973282099E0
3.155133810E2,1.338784218E0,-6.186643124E0,-2.889333248E0
3.160133810E2,3.254238844E0,-7.990831375E0,-1.087537885E0
3.165133810E2,2.148754835E0,-1.238525009E1,-1.818545163E-1
3.170133810E2,3.126821041E0,-1.316052437E1,7.399803996E-1
3.175133810E2,3.034099102E0,-1.297268772E1,-2.907279432E-1
3.180133810E2,6.023931026E0,-1.077428246E1,-2.975475073E0
3.185133810E2,3.987638950E0,-5.873781204E0,-1.003190875E0
3.190133810E2,2.522035122E0,-5.109872818E0,1.435693540E-2
3.195133810E2,2.048256159E0,-5.865406513E0,-2.872583628E0
3.200133810E2,-5.144568533E-2,-7.612166882E0,-1.853839397E0
3.205133810E2,1.558325768E0,-1.134317589E1,-1.189831018E0
3.210133810E2,2.001596212E0,-1.274058437E1,-7.764709592E-1
3.215133810E2,2.556730986E0,-1.303430271E1,1.604387641E0
3.220133810E2,3.577867985E0,-1.356251907E1,9.493523836E-1
3.225133810E2,4.576273441E0,-1.410210037E1,9.505487680E-1
3.230133810E2,1.956132531E0,-1.470927906E1,-6.580262445E-3
3.235133810E2,7.969893932E0,-1.073240757E1,-1.457827210E0
3.240133810E2,4.191029072E0,-7.104888439E0,-1.443470240E0
3.245133810E2,3.968496323E0,-7.560122967E0,8.727820516E-1
3.250133810E2,4.064807415E0,-4.770092010E0,-3.200400352E0
3.255133810E2,1.939382792E0,-6.031109333E0,1.250848055E0
3.260133810E2,1.850250125E0,-5.248058319E0,-3.218944550E0
3.265133810E2,-1.351944804E-1,-7.881958008E0,-2.249253243E-1
3.270133810E2,3.505485058E-1,-7.777870178E0,-1.609173179E0
3.275133810E2,-1.578066587E0,-9.364311218E0,-9.972088337E-1
3.280133810E2,1.902892232E0,-1.025384331E1,-7.322037220E-1
3.285133810E2,1.724028707E0,-1.069232845E1,-6.017948985E-1
3.290133810E2,5.194219589E0,-1.277288723E1,1.113260746E0
3.295133810E2,1.249053478E0,-1.305882931E1,1.405783296E-1
3.300133810E2,6.117849350E0,-1.383051491E1,6.664010882E-1
3.305133810E2,9.092726111E-1,-1.188156128E1,7.357929647E-2
3.310133810E2,6.971488953E0,-1.027956581E1,-2.593819857E0
3.315133810E2,3.324826956E0,-1.231825066E1,-2.333002090E-1
3.320133810E2,5.833701611E0,-1.061575794E1,-3.906283081E-1
3.325133810E2,6.438487530E0,-6.583851337E0,-1.890329838E0
3.330133810E2,3.634099483E0,-8.598608017E0,1.768894196E0
3.335133810E2,4.555934429E0,-5.340780258E0,-3.661018610E0
3.340133810E2,2.065604210E0,-7.841877937E0,1.922034740E0
3.345133810E2,2.839682341E0,-6.495915413E0,-2.343769789E0
3.350133810E2,1.683350682E0,-8.751151085E0,3.320041299E-1
3.355133810E2,1.898704767E0,-6.963113785E0,-1.561915040E0
3.360133810E2,1.094118118E0,-1.008694363E1,-1.137188911E0
3.365133810E2,2.724826813E0,-1.137189007E1,-9.080761671E-1
3.370133810E2,2.524427772E-1,-1.122832012E1,-1.483550072E0
3.375133810E2,8.604590416E0,-1.178584766E1,-1.794617064E-2
3.380133810E2,2.914458036E0,-1.030229759E1,-1.604387641E0
3.385133810E2,6.313462734E0,-1.181874943E1,1.292124271E0
3.390133810E2,3.558725595E0,-1.158784199E1,2.283949137E0
3.395133810E2,5.420939922E0,-1.193360519E1,-1.639083475E-1
3.400133810E2,4.150351048E0,-1.004207802E1,-9.056833982E-1
3.405133810E2,6.677171707E0,-1.032144070E1,-1.579262912E-1
3.410133810E2,4.530809879E0,-1.054277611E1,-2.233101845E0
3.415133810E2,5.065007210E0,-9.322437286E0,-4.247260094E-1
3.420133810E2,4.959125042E0,-6.605985165E0,-3.774079561E0
3.425133810E2,2.036890268E0,-1.115713406E1,1.684547186E0
3.430133810E2,4.817948341E0,-6.358926296E0,-1.955534339E0
3.435133810E2,3.589233875E0,-8.248658180E0,2.191825628E0
3.440133810E2,3.407379389E0,-4.736592293E0,-2.880958557E0
3.445133810E2,2.729612350E0,-6.873383045E0,1.872981906E0
3.450133810E2,3.568894863E0,-6.026323795E0,-1.526620865E0
3.455133810E2,2.276172638E0,-7.225128174E0,-3.062812984E-1
3.460133810E2,1.287338614E0,-8.344370842E0,-3.984049559E-1
3.465133810E2,2.611765862E0,-1.015394306E1,-1.982453585E0
3.470133810E2,5.036293507E0,-1.110090256E1,1.218544960E0
3.475133810E2,2.600399971E0,-1.052542877E1,-6.011967063E-1
3.480133810E2,5.610570908E0,-1.296610737E1,1.872383714E0
3.485133810E2,2.217548370E0,-1.213520050E1,9.750752449E-1
3.490133810E2,7.743174076E0,-1.157827091E1,1.194616675E0
3.495133810E2,1.968096614E0,-1.212562847E1,-4.821537733E-1
3.500133810E2,9.287142754E0,-1.068514919E1,5.862415582E-2
3.505133810E2,4.682155609E0,-1.215194988E1,-1.091127157E0
3.510133810E2,8.831310272E0,-9.528220177E0,-1.721037745E0
3.515133810E2,5.624927998E0,-1.102253723E1,2.183450609E-1
3.520133810E2,5.806782246E0,-8.441878319E0,-1.447657645E-1
3.525133810E2,4.487739086E0,-6.216553211E0,-2.558525562E0
3.530133810E2,3.451646566E0,-7.500900745E0,2.112264156E0
3.535133810E2,4.329214573E0,-4.820939541E0,-3.396611691E0
3.540133810E2,2.689532757E0,-6.731608391E0,1.591825247E0
3.545133810E2,3.121437073E0,-5.517848969E0,-1.786242127E0
3.550133810E2,1.802393675E0,-8.210372925E0,-1.478764415E0
3.555133810E2,2.544766903E0,-8.766105652E0,-7.657032609E-1
3.560133810E2,1.887338877E0,-9.911071777E0,-1.197607756E0
3.565133810E2,4.654638290E0,-1.179781246E1,-3.044866920E-1
3.570133810E2,2.117049932E0,-1.205504036E1,-8.195417523E-1
3.575133810E2,7.074379921E0,-1.308754349E1,8.644071817E-1
3.580133810E2,2.545963287E0,-1.395195103E1,8.356932998E-1
3.585133810E2,8.525029182E0,-1.242652607E1,-3.122633696E-1
3.590133810E2,5.362913609E0,-1.224287701E1,2.274377823E0
3.595133810E2,1.007976532E1,-9.914660454E0,-1.731207132E0
3.600133810E2,6.251847267E0,-9.978070259E0,-5.042873621E-1
3.605133810E2,4.965705395E0,-8.148757935E0,2.213360928E-2
3.610133810E2,4.516452789E0,-4.634299278E0,-4.383651257E0
3.615133810E2,2.813959360E0,-6.748956203E0,1.823330879E0
3.620133810E2,1.840678811E0,-5.691926956E0,-2.518445730E0
3.625133810E2,2.149951220E0,-6.753741741E0,-2.362912297E-1
3.630133810E2,2.050050735E0,-9.084949493E0,1.808973908E0
3.635133810E2,3.367299557E0,-9.622735977E0,3.409772217E-1
3.640133810E2,3.492324591E0,-1.015155029E1,3.553341627E-1
3.645133810E2,2.228914261E0,-1.144845963E1,-9.140582681E-1
3.650133810E2,5.593223095E0,-1.242054367E1,1.089332461E0
3.655133810E2,2.464607239E0,-1.226082325E1,1.025922656E0
3.660133810E2,7.495516777E0,-1.091426182E1,6.580262631E-2
3.665133810E2,2.238485575E0,-1.228176022E1,1.188634634E0
3.670133810E2,8.368897438E0,-1.066062355E1,-8.817551732E-1
3.675133810E2,3.518645763E0,-1.156570816E1,1.435693540E-2
3.680133810E2,8.678169250E0,-1.049372387E1,-1.622333765E0
3.685133810E2,7.251449108E0,-8.783453941E0,-6.113662124E-1
3.690133810E2,5.757131100E0,-9.732806206E0,-1.657029688E-1
3.695133810E2,5.258227825E0,-5.455635548E0,-2.793620348E0
3.700133810E2,4.321437836E0,-7.910671711E0,1.033699393E0
3.705133810E2,3.831507206E0,-3.888935089E0,-4.630710125E0
3.710133810E2,2.796013355E0,-6.768697262E0,1.853241086E0
3.715133810E2,5.196014404E0,-5.199005604E0,-3.466601849E0
3.720133810E2,2.445464849E0,-7.813164234E0,2.344966233E-1
3.725133810E2,4.394418716E0,-7.272386074E0,-1.860419631E0
3.730133810E2,1.341177106E0,-9.065208435E0,-1.534995675E0
3.735133810E2,4.135993958E0,-1.000558758E1,9.637092948E-1
3.740133810E2,2.353341103E0,-9.826724052E0,-8.530412912E-1
3.745133810E2,3.985246181E0,-1.190190029E1,7.639086246E-1
3.750133810E2,2.309672117E0,-1.071864891E1,-1.161117196E0
3.755133810E2,6.715456963E0,-1.409970760E1,2.573480844E0
3.760133810E2,5.047060966E0,-1.230090332E1,1.161715388E0
3.765133810E2,8.998807907E0,-1.202453232E1,1.082752228E0
3.770133810E2,4.356133461E0,-1.269153118E1,6.795616150E-1
3.775133810E2,7.518248558E0,-1.179661560E1,-1.271785259E0
3.780133810E2,4.905286312E0,-1.097707367E1,8.817551732E-1
3.785133810E2,8.647661209E0,-1.274776268E1,-2.060818434E0
3.790133810E2,4.542773724E0,-1.170568848E1,1.704886109E-1
3.795133810E2,8.309675217E0,-9.467203140E0,-1.764108539E0
3.800133810E2,5.580062389E0,-1.013121128E1,-9.457631707E-1
3.805133810E2,6.706483841E0,-8.062017441E0,-1.716850281E0
3.810133810E2,5.337191105E0,-6.622136593E0,-2.693121910E0
3.815133810E2,3.664607763E0,-7.505686283E0,1.936989903E0
3.820133810E2,4.572085857E0,-4.671986103E0,-2.778665304E0
3.825133810E2,2.534597397E0,-6.343971252E0,2.082952023E0
3.830133810E2,3.092723370E0,-5.519643784E0,-2.692523718E0
3.835133810E2,1.679761529E0,-7.202396393E0,7.148557901E-1
3.840133810E2,2.432304144E0,-6.753741741E0,-2.377269268E0
3.845133810E2,1.770688772E0,-7.577471256E0,-5.802595019E-1
3.850133810E2,5.180460811E-1,-7.406982422E0,-1.374676585E0
3.855133810E2,1.221535921E0,-9.315856934E0,-1.929811478E0
3.860133810E2,3.756731510E0,-1.050449181E1,4.211367965E-1
3.865133810E2,1.027119160E0,-1.146461105E1,-4.085744619E-1
3.870133810E2,5.900700569E0,-1.068514919E1,6.125625968E-1
3.875133810E2,3.762713671E0,-1.218245792E1,1.892124534E0
3.880133810E2,7.026523590E0,-1.201675510E1,1.144965649E0
3.885133810E2,8.787640929E-1,-1.047398281E1,1.829312921E0
3.890133810E2,9.027522087E0,-1.147478104E1,-1.934597135E0
3.895133810E2,3.260818958E0,-1.166261768E1,1.124626637E0
3.900133810E2,8.977870941E0,-1.044586754E1,-1.257428288E0
3.905133810E2,3.535395384E0,-1.234397411E1,6.251249313E-1
3.910133810E2,7.567899704E0,-9.373882294E0,-6.269195080E-1
3.915133810E2,6.093322754E0,-8.612366676E0,-1.472184181E0
3.920133810E2,5.151148796E0,-8.146365166E0,5.395814776E-1
3.925133810E2,7.152745247E0,-6.879963398E0,-1.974078715E-1
3.930133810E2,4.768297195E0,-7.232306480E0,2.523231506E0
3.935133810E2,4.697709084E0,-4.313062668E0,-2.135594130E0
3.940133810E2,3.643072367E0,-5.982056618E0,2.906083107E0
3.945133810E2,3.835096598E0,-5.224728107E0,-1.527817249E0
3.950133810E2,2.505883455E0,-6.465406895E0,2.458625317E0
3.955133810E2,1.515853167E0,-6.437889099E0,-1.524826288E0
3.960133810E2,1.839482427E0,-7.669594765E0,-4.486542344E-1
3.965133810E2,1.932204247E0,-8.579465866E0,2.279163599E-1
3.970133810E2,2.850450039E0,-1.163210869E1,1.103689432E0
3.975133810E2,3.673580885E0,-1.072941685E1,-1.064806059E-1
3.980133810E2,3.144168854E0,-1.143171024E1,4.564309120E-1
3.985133810E2,5.495117188E0,-1.252702427E1,-2.117647976E-1
3.990133810E2,2.520838737E0,-1.419601822E1,-1.070788145E0
3.995133810E2,5.509474277E0,-1.152203941E1,-2.679961324E-1
4.000133810E2,1.859821439E0,-1.355593872E1,1.595414519E0
4.005133810E2,6.851847649E0,-1.214297676E1,-1.727617979E0
4.010133810E2,2.912663460E0,-1.198205948E1,6.987041831E-1
4.015133810E2,6.548557281E0,-8.764310837E0,-5.820540786E-1
4.020133810E2,3.579662561E0,-8.545966148E0,-1.911267042E0
4.025133810E2,3.524029493E0,-1.166441250E1,6.065805554E-1
4.030133810E2,2.056032896E0,-8.461020470E0,-6.556333899E-1
4.035133810E2,3.476173162E0,-6.562315941E0,2.030309916E0
4.040133810E2,1.576271892E0,-4.900500774E0,-4.701298237E0
4.045133810E2,-2.183450609E-1,-6.077769279E0,2.021935135E-1
4.050133810E2,2.488535643E0,-4.521238327E0,-3.722035646E0
4.055133810E2,1.494915962E0,-6.487540245E0,3.667000830E-1
4.060133810E2,2.293520451E0,-7.118049145E0,-1.161715388E0
4.065133810E2,7.453642488E-1,-9.001798630E0,-1.043270707E0
4.070133810E2,3.346362352E0,-8.998209953E0,4.881358147E-1
4.075133810E2,1.986042738E0,-1.126720333E1,-2.919243574E-1
4.080133810E2,2.917448997E0,-1.141196918E1,7.657032460E-2
4.085133810E2,1.901097536E0,-1.122413254E1,2.488535494E-1
4.090133810E2,4.719842434E0,-1.341057491E1,1.126421213E0
4.095133810E2,2.988037348E0,-1.273759270E1,1.067198873E0
4.100133810E2,9.086744308E0,-1.156869888E1,-3.427718580E-1
4.105133810E2,3.372683525E0,-1.117807102E1,1.196411327E-1
4.110133810E2,8.770891190E0,-1.101535892E1,-1.057627559E0
4.115133810E2,2.763111830E0,-1.030827999E1,-3.708875179E-2
4.120133810E2,4.410570145E0,-9.252447128E0,6.442674994E-1
4.125133810E2,6.550352097E0,-5.844469070E0,-1.490130305E0
4.130133810E2,1.268195987E0,-8.489734650E0,1.488335729E0
4.135133810E2,2.802593470E0,-5.193621635E0,-2.894119024E0
4.140133810E2,1.877767563E0,-6.296712875E0,3.888336718E-1
4.145133810E2,3.680161238E0,-4.567300320E0,-3.300300598E0
4.150133810E2,-1.686939895E-1,-6.999604225E0,-1.737189293E0
4.155133810E2,2.887538671E0,-4.973481655E0,-2.874976397E0
4.160133810E2,1.145563841E0,-7.351947784E0,-9.361918569E-1
4.165133810E2,7.334001660E-1,-7.974081516E0,-1.521835208E0
4.170133810E2,1.025324464E0,-9.027522087E0,-8.889335990E-1
4.175133810E2,2.555534601E0,-9.786644936E0,-9.176474810E-1
4.180133810E2,1.777269006E0,-9.969695091E0,1.779063582E0
4.185133810E2,4.155136585E0,-1.126181984E1,2.455035925E0
4.190133810E2,3.699303865E0,-1.190847969E1,2.209771633E0
4.195133810E2,3.821935892E0,-1.253958702E1,1.969891191E0
4.200133810E2,3.496512175E0,-1.175833035E1,1.646261930E0
4.205133810E2,6.032904148E0,-1.234217930E1,1.338784218E0
4.210133810E2,-9.750752151E-2,-1.395972729E1,3.501297712E0
4.215133810E2,5.490929604E0,-1.357089329E1,-9.792626500E-1
4.220133810E2,6.104688644E0,-1.314018536E1,-3.762713671E-1
4.225133810E2,5.312066078E0,-1.041954613E1,2.979064286E-1
4.230133810E2,3.471387386E0,-6.470192432E0,-3.163311481E0
4.235133810E2,4.619942188E0,-6.382256031E0,7.256234884E-1
4.240133810E2,1.837687731E0,-5.310869694E0,-4.375874519E0
4.245133810E2,1.161715388E0,-5.455635548E0,1.066002488E0
4.250133810E2,9.415757060E-1,-6.205187321E0,-3.717249870E0
4.255133810E2,5.042873621E-1,-7.805387497E0,2.231307179E-1
4.260133810E2,6.987041831E-1,-6.548557281E0,-8.745766878E-1
4.265133810E2,5.186443329E-1,-7.725826263E0,6.699903309E-2
4.270133810E2,7.782655358E-1,-7.759325504E0,-9.212367237E-2
4.275133810E2,-2.793620527E-1,-8.584251404E0,-6.059823632E-1
4.280133810E2,3.016152859E0,-9.103493690E0,1.092323542E0
4.285133810E2,4.158725739E0,-9.588638306E0,-5.407779217E-1
4.290133810E2,6.425925255E0,-8.615956306E0,-2.882753134E0
4.295133810E2,5.736792088E0,-1.047876835E1,-1.241276741E0
4.300133810E2,4.645066738E0,-1.163510036E1,1.501496136E-1
4.305133810E2,3.233899832E0,-1.416850090E1,1.686939895E-1
4.310133810E2,1.564906001E0,-1.327538013E1,1.330409408E0
4.315133810E2,2.943171740E0,-1.317368507E1,-1.489532113E0
4.320133810E2,5.720640659E0,-1.379581928E1,1.969891191E0
4.325133810E2,2.960519791E0,-1.233081341E1,1.692323804E0
4.330133810E2,5.329414368E0,-1.188873959E1,1.776670814E0
4.335133810E2,2.120040894E0,-1.361994648E1,2.236690998E0
4.340133810E2,6.107679844E0,-1.460100365E1,7.543373108E-1
4.345133810E2,2.894119024E0,-1.182054424E1,4.750949383E0
4.350133810E2,6.955337048E0,-1.114576817E1,2.202593327E0
4.355133810E2,8.133802414E0,-9.890133858E0,-3.385843933E-1
4.360133810E2,1.221775246E1,-9.400203705E0,1.070788130E-1
4.365133810E2,9.080163956E0,-8.453244209E0,-2.237887383E0
4.370133810E2,6.569494724E0,-1.016590691E1,2.103889227E0
4.375133810E2,5.523830891E0,-8.734998703E0,-1.259821177E0
4.380133810E2,4.868795872E0,-9.814162254E0,-1.963909149E0
4.385133810E2,5.655436516E0,-5.767899036E0,-3.078964472E0
4.390133810E2,3.461816072E0,-8.212167740E0,7.992027402E-1
4.395133810E2,3.233899832E0,-5.664409637E0,-4.956732273E0
4.400133810E2,5.003990173E0,-6.863811970E0,1.405783296E-1
4.405133810E2,3.474378586E0,-4.817350388E0,-4.747360229E0
4.410133810E2,3.842873096E0,-6.552744865E0,7.214360237E-1
4.415133810E2,3.300300598E0,-3.959523201E0,-5.100301266E0
4.420133810E2,3.772883177E0,-6.434898376E0,3.032304525E0
4.425133810E2,3.691527128E0,-3.623929977E0,-3.653241873E0
4.430133810E2,2.288734913E0,-6.582056999E0,9.840483069E-1
4.435133810E2,2.498106956E0,-2.685943365E0,-3.007179976E0
4.440133810E2,2.481955290E0,-5.576473236E0,1.271187067E0
4.445133810E2,2.853441000E0,-3.876372576E0,-1.511067510E0
4.450133810E2,2.659622431E0,-6.168696880E0,-4.181457460E-1
4.455133810E2,2.873181820E0,-5.436492920E0,-8.105686903E-1
4.460133810E2,1.783849239E0,-6.067001820E0,-7.591229677E-1
4.465133810E2,2.471187592E0,-5.887540340E0,-3.696911037E-1
4.470133810E2,2.012962103E0,-5.647061348E0,-1.532602906E0
4.475133810E2,2.073979139E0,-7.147959232E0,-9.176474810E-1
4.480133810E2,1.578066587E0,-7.830512047E0,-1.432702541E0
4.485133810E2,2.901297569E0,-8.301898003E0,-4.001995921E-1
4.490133810E2,2.365903378E0,-8.213961601E0,-1.708475351E0
4.495133810E2,3.230310678E0,-8.237292290E0,-5.551348329E-1
4.500133810E2,3.075973511E0,-8.177471161E0,-2.163111687E0
4.505133810E2,4.227519512E0,-9.060422897E0,6.580262631E-2
4.510133810E2,3.377469063E0,-1.028076267E1,-1.323829174E0
4.515133810E2,9.019146919E0,-9.944570541E0,-1.261615753E0
4.520133810E2,3.898506403E0,-9.925428391E0,-1.467398524E0
4.525133810E2,9.263813019E0,-1.100997543E1,-6.520441920E-2
4.530133810E2,2.953939438E0,-1.109671497E1,-7.004988194E-1
4.535133810E2,9.851848602E0,-1.052004433E1,-9.744769931E-1
4.540133810E2,4.200600147E0,-1.107278633E1,-1.316052489E-2
4.545133810E2,7.487740040E0,-1.072762203E1,-1.195214868E0
4.550133810E2,3.643072367E0,-1.316172123E1,-1.276570916E0
4.555133810E2,8.433503151E0,-1.180499077E1,-2.293520451E0
4.560133810E2,3.359523058E0,-1.099382401E1,-1.710868180E-1
4.565133810E2,9.177671432E0,-1.088554859E1,-2.676372051E0
4.570133810E2,3.267399311E0,-1.177926731E1,-7.830511928E-1
4.575133810E2,8.804390907E0,-9.622138023E0,-1.524826288E0
4.580133810E2,4.677370071E0,-1.167099285E1,8.470591903E-1
4.585133810E2,1.021615601E1,-8.473583221E0,-2.563909531E0
4.590133810E2,6.842276573E0,-1.210947704E1,-1.424925923E0
4.595133810E2,1.035733318E1,-9.017950058E0,-2.734398127E0
4.600133810E2,8.143373489E0,-1.042612648E1,-1.616351724E0
4.605133810E2,7.773682594E0,-8.952147484E0,-1.164706469E0
4.610133810E2,6.392425537E0,-6.047261238E0,-4.858626366E0
4.615133810E2,6.602993965E0,-6.241677761E0,7.453642488E-1
4.620133810E2,5.546562672E0,-5.660222054E0,-4.572085857E0
4.625133810E2,3.884149313E0,-5.977271080E0,8.249256015E-1
4.630133810E2,3.200400352E0,-4.621138573E0,-4.761716843E0
4.635133810E2,3.420539856E0,-5.864210129E0,-7.980063558E-1
4.640133810E2,4.001996040E0,-5.548357487E0,-2.220539331E0
4.645133810E2,1.831107497E0,-7.670193195E0,-1.941775560E0
4.650133810E2,4.777868748E0,-7.540382385E0,-8.470591903E-1
4.655133810E2,2.786442041E0,-9.338588715E0,-2.657827854E0
4.660133810E2,5.608776093E0,-1.171226883E1,-1.208375469E-1
4.665133810E2,2.828316450E0,-1.106261730E1,-1.767697692E0
4.670133810E2,8.779864311E0,-1.093519974E1,1.070788130E-1
4.675133810E2,3.908675671E0,-1.082393360E1,-1.818545163E-1
4.680133810E2,8.313861847E0,-1.119063377E1,-6.909275651E-1
4.685133810E2,3.792025566E0,-1.095075321E1,-1.001396298E0
4.690133810E2,1.109013462E1,-9.297312737E0,-2.358126640E0
4.695133810E2,6.277570248E0,-1.212323570E1,-2.261217386E-1
4.700133810E2,8.677571297E0,-8.880363464E0,-3.999004841E0
4.705133810E2,6.344569206E0,-1.230987644E1,-8.709874153E-1
4.710133810E2,9.192028046E0,-9.212367058E0,-3.244667530E0
4.715133810E2,7.564310551E0,-9.540781975E0,-1.504487276E0
4.720133810E2,7.969893932E0,-8.448458672E0,-1.357926846E0
4.725133810E2,7.284948349E0,-9.754341125E0,-2.033899166E-2
4.730133810E2,6.754340172E0,-9.446864128E0,-1.800599098E0
4.735133810E2,6.639484406E0,-7.484749317E0,-2.477169752E0
4.740133810E2,6.354140759E0,-9.711270332E0,1.074975610E0
4.745133810E2,7.357331276E0,-6.556334019E0,-4.002593994E0
4.750133810E2,5.088337421E0,-9.306883812E0,4.671986103E-1
4.755133810E2,5.764907837E0,-5.061418056E0,-4.248456478E0
4.760133810E2,4.126422882E0,-7.062416077E0,1.822134495E0
4.765133810E2,8.182256699E0,-5.953342915E0,-1.983051777E0
4.770133810E2,3.614358664E0,-6.142973900E0,4.354937077E-1
4.775133810E2,4.792225361E0,-4.881358147E0,-4.572085857E0
4.780133810E2,2.038684845E0,-7.272984505E0,-2.630310297E0
4.785133810E2,3.628715515E0,-7.245467186E0,-2.620140910E-1
4.790133810E2,3.987638950E0,-9.971489906E0,-5.485545993E-1
4.795133810E2,5.610570908E0,-1.038126087E1,1.417747438E-1
4.800133810E2,4.466801643E0,-1.105842972E1,-1.325623751E0
4.805133810E2,7.858029366E0,-1.227817154E1,-4.528416991E-1
4.810133810E2,5.425725460E0,-1.164706421E1,-7.764709592E-1
4.815133810E2,9.325428009E0,-8.933005333E0,-3.372683525E0
4.820133810E2,5.571687698E0,-1.076949692E1,-8.315058947E-1
4.825133810E2,9.574281693E0,-1.080897808E1,-2.528615236E0
4.830133810E2,4.847858906E0,-1.186660576E1,-8.338986635E-1
4.835133810E2,1.103270721E1,-9.636494637E0,-3.051447153E0
4.840133810E2,6.913462639E0,-1.176012516E1,-8.602197170E-1
4.845133810E2,8.304290771E0,-8.716454506E0,-2.825325251E0
4.850133810E2,7.037889481E0,-6.786045074E0,-3.503092289E0
4.855133810E2,5.281557560E0,-1.006241703E1,6.221339107E-1
4.860133810E2,7.333403111E0,-5.913861275E0,-3.370290756E0
4.865133810E2,2.517249346E0,-7.661818027E0,-1.032503009E0
4.870133810E2,4.088137627E0,-5.261219025E0,-4.022933006E0
4.875133810E2,3.987638950E0,-6.421139717E0,2.041675806E0
4.880133810E2,4.013361931E0,-4.576871395E0,-3.718446493E0
4.885133810E2,3.253042459E0,-6.658627033E0,1.056431174E0
4.890133810E2,3.329014540E0,-6.058627129E0,-1.625923038E0
4.895133810E2,3.474378586E0,-6.841678143E0,-1.167697430E0
4.900133810E2,2.280958176E0,-7.028916359E0,-1.154536963E0
4.905133810E2,2.919243574E0,-8.612366676E0,-1.311266780E0
4.910133810E2,5.157729149E0,-8.437092781E0,6.257231236E-1
4.915133810E2,3.171088219E0,-1.035494041E1,-2.716451883E0
4.920133810E2,7.974081516E0,-1.113799095E1,-3.044866920E-1
4.925133810E2,5.283352375E0,-1.075813103E1,-1.323829174E0
4.930133810E2,7.816154957E0,-1.101476097E1,-2.859423161E-1
4.935133810E2,5.542973518E0,-9.894919395E0,-1.228116274E0
4.940133810E2,8.400003433E0,-9.992427826E0,-5.359922647E-1
4.945133810E2,6.760920525E0,-1.220518970E1,-7.884350419E-1
4.950133810E2,9.954142570E0,-9.552147865E0,-5.024927258E-1
4.955133810E2,4.795216560E0,-1.129232788E1,-3.320041299E-1
4.960133810E2,1.085563850E1,-1.034836006E1,3.427718580E-1
4.965133810E2,5.664409637E0,-1.236251831E1,-9.870393574E-2
4.970133810E2,1.040040398E1,-8.875576973E0,2.356930375E-1
4.975133810E2,1.095434189E1,-5.679364681E0,5.688935757E0
4.980133810E2,2.407179594E0,5.377869010E-1,1.119721317E1
4.985133810E2,3.879363775E0,2.044667006E0,1.217169094E1
