"Time (s)","Gyroscope x (rad/s)","Gyroscope y (rad/s)","Gyroscope z (rad/s)"
2.645742900E-1,-7.315105796E-1,-1.066111803E0,6.490438432E-2
7.687001230E-1,-4.016435891E-2,-1.733786941E0,2.660927057E0
1.272826269E0,-1.641699076E-1,5.838339925E-1,1.684459597E-1
1.776952727E0,-1.901316643E-1,-8.713986278E-1,-7.840449214E-1
2.281079498E0,-3.437641561E-1,5.736020207E-1,-1.012508348E-1
2.785206737E0,-6.459894776E-2,-5.809323788E-1,-1.049160287E-1
3.289334394E0,8.246674202E-3,1.185077652E-1,6.466003656E-1
3.793462467E0,1.487455666E-1,-3.342957497E-1,-3.828594983E-1
4.297590852E0,1.970038936E-2,1.114828214E-1,2.090684772E-1
4.801719446E0,1.615737379E-1,-1.385135949E-1,-4.017963111E-1
5.305848196E0,-2.823722363E-1,-5.477929711E-1,2.229656428E-1
5.809977342E0,1.221729591E-1,7.933606505E-1,-2.107483521E-2
6.314106405E0,-3.390299380E-1,-5.610793233E-1,-3.967566788E-1
6.818235519E0,-1.568395346E-1,1.307250559E-1,2.587012351E-1
7.322364686E0,-4.918988645E-1,-1.828012913E-1,-6.780599058E-2
7.826493800E0,1.467602700E-1,-5.238165334E-2,2.733619809E-1
8.330622915E0,-4.888445437E-1,-2.742782831E-1,-3.086394370E-1
8.834752030E0,1.818849891E-1,2.834412456E-1,6.913462281E-1
9.338881040E0,-5.708531141E-1,-1.146898642E-1,-4.387536347E-1
9.843010050E0,7.093667388E-1,-3.414734006E-1,6.255255342E-1
1.034713927E1,-4.132500291E-1,-1.099556591E-2,-3.048215210E-1
1.085126927E1,1.220202371E-1,-3.159697950E-1,1.122464016E-1
1.135540026E1,3.200931549E-1,-2.748891413E-1,-3.268126398E-2
1.185953192E1,-3.703367710E-1,-2.564104795E-1,-2.109010667E-1
1.236366385E1,4.098902643E-1,5.926915407E-1,3.263545036E-1
1.286779588E1,-4.398226365E-2,-6.757691503E-1,-3.168860972E-1
1.337192797E1,7.925970852E-2,6.534726024E-1,3.196350038E-1
1.387606005E1,-5.146535635E-1,-6.197223067E-1,-5.108356476E-1
1.438019219E1,-3.420842811E-2,7.348703146E-1,7.629700899E-1
1.488432427E1,4.230238497E-1,-4.757109582E-1,6.261363626E-2
1.538845641E1,-8.633046746E-1,8.480330110E-1,6.505709887E-2
1.589258859E1,-1.650862098E-1,-6.716458201E-1,-3.591884971E-1
1.639672062E1,-1.985310577E-2,9.957095981E-2,2.646571696E-1
1.690085255E1,-1.551596522E-1,-1.832594275E-1,-5.907062292E-1
1.740498417E1,1.298087686E-1,2.185368687E-1,8.170316219E-1
1.790911562E1,-3.940077722E-1,1.130099874E-2,-8.953750730E-1
1.841324682E1,1.466075480E-1,-2.472475171E-1,8.634573817E-1
1.891737786E1,-3.817904890E-1,-4.703658819E-2,-7.675516009E-1
1.942150864E1,1.009454057E-1,-1.626427472E-1,3.897317350E-1
1.992563932E1,1.569922417E-1,9.285144508E-2,-7.498364896E-2
2.042976995E1,-2.643517256E-1,-5.490147471E-1,-5.482511222E-2
2.093390068E1,1.429423541E-1,5.196931958E-1,2.794706225E-1
2.143803172E1,-3.068068326E-1,-3.642281294E-1,-5.566505194E-1
2.194216312E1,-2.490801066E-1,6.226239204E-1,1.087339297E-1
2.244629474E1,3.237583488E-2,-2.984074354E-1,-4.741837978E-1
2.295042661E1,-2.631300092E-1,3.591884971E-1,6.890554428E-1
2.345455854E1,-1.701258421E-1,-4.254673123E-1,-8.350521326E-1
2.395869062E1,-5.131264031E-2,2.162461281E-1,7.814487815E-1
2.446282281E1,-1.650862098E-1,-1.230892539E-1,-9.025527239E-1
2.496695510E1,8.093958721E-3,5.268708616E-2,1.158657789E0
2.547108729E1,-3.857611120E-1,-1.482874304E-1,-1.014951825E0
2.597521953E1,3.704894781E-1,-2.791652083E-1,9.802852273E-1
2.647935203E1,-3.388772309E-1,1.440113783E-1,-7.834340930E-1
2.698348484E1,-2.460257858E-1,-3.349066079E-1,3.880518377E-1
2.748761781E1,1.658497900E-1,2.411388755E-1,-2.286161482E-1
2.799175078E1,-4.218021333E-1,-3.090975881E-1,-7.987056673E-2
2.849588359E1,4.865537882E-1,1.823431402E-1,-7.437278330E-2
2.900001640E1,-6.102539301E-1,-4.075995386E-1,-3.556760252E-1
2.950414911E1,-1.485928595E-1,4.001164436E-1,6.012436748E-1
3.000828182E1,-3.207040019E-3,-5.740602016E-1,-6.543889046E-1
3.051241453E1,-3.292561173E-1,6.539307237E-1,4.802924395E-1
3.101654713E1,-1.857028902E-1,-3.819431961E-1,-4.809032977E-1
3.152067953E1,1.991419196E-1,-1.592829973E-1,5.215258002E-1
3.202481177E1,-3.375027776E-1,-1.235474050E-1,5.047270060E-1
3.252894385E1,2.947422564E-1,5.326740742E-1,-1.023198515E-1
3.303307599E1,-2.492328286E-1,-3.048215210E-1,-4.723511934E-1
3.353720812E1,1.945604384E-1,3.234528899E-1,7.334958911E-1
3.404134021E1,-5.850557685E-1,1.201876476E-1,-7.176133990E-1
3.454547208E1,1.394298822E-1,2.351829410E-2,8.509346247E-1
3.504960391E1,-3.962985277E-1,6.185005978E-2,-1.026558280E0
3.555373557E1,-1.389717311E-1,-2.887863219E-1,8.384119272E-1
3.605786713E1,-5.497783050E-2,7.528908551E-2,-9.582940936E-1
3.656199854E1,-2.328922004E-1,-2.571740746E-1,5.710058808E-1
3.706612989E1,1.496618707E-2,2.251036763E-1,-1.779143661E-1
3.757026114E1,-2.467893660E-1,-3.588830531E-1,-2.101374865E-1
3.807439245E1,1.023198515E-1,7.733548284E-1,2.490801066E-1
3.857852385E1,-4.008800089E-1,-7.272345424E-1,-2.811505198E-1
3.908265536E1,3.727802336E-1,1.826485693E-1,4.396699369E-1
3.958678677E1,-5.590940118E-1,-3.287979662E-1,-5.077813268E-1
4.009091844E1,-1.525634825E-1,2.102901936E-1,1.601992846E-1
4.059505068E1,2.306014597E-1,-1.676823795E-1,3.654498458E-1
4.109918354E1,-1.860083193E-1,3.355174661E-1,-2.276998460E-1
4.160331692E1,-3.802633286E-1,5.726857483E-2,2.107483521E-2
4.210745057E1,1.250745654E-1,8.139773458E-2,2.083048970E-1
4.261158469E1,-3.136790693E-1,-2.570213675E-1,3.375028074E-2
4.311571948E1,1.246164143E-1,2.412915826E-1,2.919933498E-1
4.361985484E1,-5.691732764E-1,-3.723220825E-1,-2.883281708E-1
4.412399062E1,5.487092733E-1,1.496618707E-2,5.094612241E-1
4.462812661E1,-6.750055552E-1,1.814268380E-1,-4.056142271E-1
4.513226266E1,4.219548404E-1,5.971203372E-2,5.325213671E-1
4.563639854E1,-3.698786199E-1,1.771507859E-1,-2.846629918E-1
4.614053443E1,2.551887631E-1,-2.448040545E-1,3.173442483E-1
4.664467021E1,-1.113301069E-1,5.345067009E-3,-2.365573794E-1
4.714880583E1,-2.160934210E-1,-4.589121640E-1,1.736383140E-1
4.765294125E1,3.726275265E-1,4.459312856E-1,-9.132428467E-2
4.815707635E1,-5.174024701E-1,-3.730856776E-1,-3.162752390E-1
4.866121125E1,4.341721535E-1,2.073885947E-1,3.069595434E-2
4.916534614E1,-3.911061883E-1,-6.131555438E-1,-1.120936871E-1
4.966948120E1,-1.470656991E-1,6.044507027E-1,2.382372692E-2
5.017361630E1,-1.246164143E-1,-6.783653498E-1,-1.902843714E-1
5.067775125E1,-2.434296161E-1,4.735729098E-1,2.892444730E-1
5.118188614E1,-3.573558852E-2,-5.138899684E-1,-2.316704690E-1
5.168602104E1,-2.183841616E-1,3.107774556E-1,5.879573226E-1
5.219015594E1,-2.110537887E-1,-2.171624303E-1,-2.070831656E-1
5.269429073E1,1.220202371E-1,-2.565632015E-2,4.036289155E-1
5.319842547E1,2.205221802E-1,-1.345429718E-1,-1.189659163E-1
5.370256026E1,3.179551065E-1,5.348120928E-1,5.161807537E-1
5.420669505E1,-3.833176494E-1,-5.035052896E-1,-3.886627257E-1
5.471082995E1,1.111773923E-1,2.764163166E-2,4.581485991E-4
5.521496495E1,-3.423897028E-1,-1.994473487E-1,-3.152062297E-1
5.571910000E1,6.078104675E-2,-8.185587823E-2,1.788306683E-1
5.622323495E1,2.641990222E-2,2.131918073E-1,1.285870373E-1
5.672736963E1,-3.277289569E-1,-3.136790693E-1,-8.246674389E-2
5.723150401E1,1.540906429E-1,4.741837978E-1,3.346011937E-1
5.773563802E1,-2.426660359E-1,-5.030471683E-1,-4.830413163E-1
5.823977130E1,-2.260199748E-2,1.018617004E-1,1.553123742E-1
5.874390406E1,-4.825831577E-2,-1.771507785E-2,-3.210094273E-1
5.924803677E1,2.759581506E-1,2.243400961E-1,2.145662606E-1
5.975216979E1,-7.162389904E-2,-3.878991306E-1,1.550069451E-1
6.025630312E1,-3.419315517E-1,5.929969549E-1,2.571740746E-1
6.076043677E1,5.528326333E-2,-3.208567202E-1,-4.523453712E-1
6.126457047E1,2.469420880E-1,2.831358314E-1,6.336194873E-1
6.176870411E1,-5.123628378E-1,-6.108647957E-2,-6.939423680E-1
6.227283745E1,4.123337269E-1,5.497783050E-2,7.434224486E-1
6.277697042E1,-3.990474045E-1,-6.927206516E-1,-4.335612655E-1
6.328110328E1,2.982547283E-1,1.941022873E-1,3.773617148E-1
6.378523599E1,-3.564395905E-1,-2.620609999E-1,-4.141663313E-1
6.428936864E1,1.313359290E-2,-2.061668597E-2,4.356993139E-1
6.479350135E1,2.516762912E-1,6.765327603E-2,-2.191477418E-1
6.529763422E1,-2.638935745E-1,-1.592829973E-1,9.330959618E-2
6.580176774E1,4.870119393E-1,8.231402934E-2,1.908952370E-2
6.630590149E1,-3.416261375E-1,-5.778780580E-1,-6.994401664E-2
6.681003539E1,8.842267841E-2,2.910770774E-1,-1.316413581E-1
6.731416951E1,1.197294965E-1,-9.758564830E-1,-3.069595397E-1
6.781830362E1,5.497783050E-2,2.803869247E-1,8.200860023E-2
6.832243758E1,1.215620935E-1,-5.736020207E-1,1.409570426E-1
6.882657117E1,-3.970621154E-2,2.519817352E-1,-4.790706933E-1
6.933070451E1,-4.505127668E-2,-3.871355653E-1,1.653916389E-1
6.983483753E1,3.069595397E-1,-3.304778337E-1,2.226602137E-1
7.033897008E1,-9.544762224E-2,-7.070759684E-2,1.956294477E-1
7.084310206E1,-1.609628648E-1,7.971785218E-2,-1.682932526E-1
7.134723346E1,-1.791360974E-1,-2.722929716E-1,4.108065739E-2
7.185136425E1,-1.192713454E-1,1.528689116E-1,1.540906429E-1
7.235549445E1,3.344484791E-2,-4.515817761E-1,4.780016840E-2
7.285962414E1,-1.527161920E-3,3.310887218E-1,1.765399277E-1
7.336375346E1,-3.168860972E-1,-9.773836285E-2,-1.255327165E-1
7.386788237E1,2.838993967E-1,2.475529462E-1,3.237583339E-1
7.437201096E1,-4.372264743E-1,4.005745649E-1,-2.286161482E-1
7.487613945E1,3.575085998E-1,-4.871646687E-2,4.306596518E-2
7.538026805E1,9.025526792E-2,3.000873327E-1,1.618791744E-2
7.588439669E1,-4.370737374E-1,1.482874304E-1,-1.371391416E-1
7.638852524E1,1.634063199E-2,4.660898149E-1,1.603520066E-1
7.689265362E1,-2.635881603E-1,-5.426006317E-1,-1.030834317E-1
7.739678195E1,-6.139190868E-2,8.651372194E-1,6.139190868E-2
7.790091013E1,-3.501782417E-1,-7.834340632E-2,-9.361502528E-2
7.840503805E1,7.269290835E-2,4.877755344E-1,2.315177470E-1
7.890916560E1,-1.145371497E-1,-7.386882305E-1,-1.974620372E-1
7.941329274E1,-3.878991306E-2,4.978547990E-1,3.492619395E-1
7.991741956E1,-9.941824526E-2,-3.691150546E-1,-5.050324798E-1
8.042154607E1,-2.808450758E-1,5.720748901E-1,5.920807123E-1
8.092567222E1,1.137735620E-1,-2.357937992E-1,-4.434878230E-1
8.142979800E1,-1.640172005E-1,1.550069451E-1,5.198459029E-1
8.193392315E1,9.834922850E-2,-6.863065958E-1,-4.292852283E-1
8.243804789E1,1.661552191E-1,1.098029464E-1,4.912880063E-1
8.294217211E1,-4.298960865E-1,-3.975202441E-1,-6.270527244E-1
8.344629607E1,3.371973634E-1,-3.048215210E-1,9.179770350E-1
8.395041972E1,-8.292489499E-2,-7.696896046E-2,-7.994692922E-1
8.445454310E1,2.738201320E-1,-1.641699076E-1,6.504182816E-1
8.495866622E1,-2.768744528E-1,-1.508836001E-1,-4.334085584E-1
8.546278914E1,1.429423541E-1,-3.559814394E-1,2.926042378E-1
8.596691169E1,5.100720748E-2,-2.374736816E-1,-1.064431891E-1
8.647103404E1,-2.370155305E-1,-3.301724195E-1,5.253437161E-2
8.697515602E1,4.841103405E-2,6.505709887E-1,-5.140427351E-1
8.747927779E1,-2.703076601E-2,-1.007010579E0,5.236638188E-1
8.798339930E1,1.667660922E-1,-3.576613367E-1,-4.069886506E-1
8.848752039E1,-2.148716897E-1,-4.792234302E-1,2.489273995E-1
8.899164107E1,-1.930332631E-1,6.496546865E-1,5.681042373E-2
8.949576133E1,7.437278330E-2,-7.617483735E-1,-7.315105945E-2
8.999988123E1,-1.849393100E-1,7.087558508E-1,3.297142684E-1
9.050400076E1,2.055560052E-1,-5.658134818E-1,-4.393644929E-1
9.100811992E1,3.252854943E-2,3.820959330E-1,6.185005978E-2
9.151223893E1,-8.506292105E-2,-3.130682111E-1,-1.362228394E-1
9.201635789E1,-9.040798992E-2,1.586721241E-1,4.266890585E-1
9.252047685E1,-5.146535859E-2,-3.959930837E-1,-2.429714650E-1
9.302459581E1,5.757400393E-2,3.593412042E-1,3.520108163E-1
9.352871461E1,-3.263545036E-1,-1.157588735E-1,-3.381136656E-1
9.403283315E1,3.260490894E-1,-1.429423541E-1,3.413206935E-1
9.453695154E1,-5.161807537E-1,3.688096106E-1,-2.412915826E-1
9.504106987E1,4.584540129E-1,-1.774562150E-1,5.129737258E-1
9.554518794E1,-6.017018110E-2,-2.932150960E-1,-3.411679864E-1
9.604930581E1,-1.293506175E-1,-8.353576064E-2,1.701258421E-1
9.655342347E1,-1.771507785E-2,9.422589093E-2,-2.299905866E-1
9.705754091E1,-5.192350596E-2,-3.572031856E-1,1.768453568E-1
9.756165810E1,-9.315688163E-3,4.001164436E-1,-2.776380479E-1
9.806577513E1,-5.711585656E-2,-3.171915412E-1,-4.428769462E-3
9.856989190E1,-1.325576603E-1,2.134972364E-1,-1.751654744E-1
9.907400841E1,-8.903354406E-2,-3.207040131E-1,-7.269290835E-2
9.957812456E1,-2.466366589E-1,4.492910504E-1,3.762927055E-1
1.000822403E2,-6.185005978E-2,-1.553123742E-1,-3.254382014E-1
1.005863557E2,1.739437431E-1,1.313359290E-2,3.932442069E-1
1.010904708E2,-2.977965772E-1,-5.039634556E-2,-3.599520624E-1
1.015945858E2,2.553414702E-1,5.589412898E-2,6.276635528E-1
1.020987005E2,-3.556760252E-1,-1.027780026E-1,-5.062541962E-1
1.026028150E2,2.936732471E-1,-5.864302069E-2,6.427824497E-1
1.031069295E2,-3.788888752E-1,-1.511890348E-2,-5.871937871E-1
1.036110439E2,1.634063274E-1,-1.896735132E-1,3.185659945E-1
1.041151583E2,-5.161807314E-2,7.834340632E-2,-1.543960720E-1
1.046192726E2,-2.180787325E-1,-3.006981909E-1,1.467602700E-1
1.051233870E2,1.989891976E-1,2.779434621E-1,-1.131627038E-1
1.056275012E2,-4.340194166E-1,-3.346011937E-1,-1.383608729E-1
1.061316153E2,1.084285006E-1,4.190532267E-1,2.614501119E-1
1.066357295E2,-2.638935745E-1,-2.651153207E-1,-7.631227970E-1
1.071398433E2,2.138026757E-3,3.233001828E-1,6.898190379E-1
1.076439567E2,-2.970330119E-1,-4.702131748E-1,-3.895790279E-1
1.081480694E2,-1.831067204E-1,4.531089365E-1,4.445568323E-1
1.086521817E2,6.551524997E-2,-4.805978537E-1,-4.444041252E-1
1.091562942E2,-8.552107215E-2,3.802633286E-1,6.307178736E-1
1.096604071E2,-3.805687428E-1,-2.412915826E-1,-6.995928884E-1
1.101645203E2,2.820668221E-1,1.798996776E-1,9.527963400E-1
1.106686341E2,-6.400335431E-1,-1.348484010E-1,-1.090699077E0
1.111727481E2,5.177078843E-1,-5.115992576E-2,1.054963470E0
1.116768623E2,-6.704241037E-1,6.215549260E-2,-4.072940946E-1
1.121809764E2,3.929387629E-1,-2.428187430E-1,5.218312144E-1
1.126850907E2,-4.854847789E-1,2.509126961E-1,-4.717403352E-1
1.131892055E2,2.234237939E-1,-3.834703565E-1,6.508764029E-1
1.136933208E2,-3.503309488E-1,2.351829410E-2,-6.243038177E-1
1.141974366E2,-9.453132749E-2,-3.342957497E-1,3.761399984E-1
1.147015526E2,9.483675659E-2,4.022544622E-1,-1.007926911E-1
1.152056685E2,-5.251910090E-1,-2.881754637E-1,7.788525894E-3
1.157097841E2,3.126100600E-1,1.881463528E-1,9.957095981E-2
1.162138996E2,-4.460839927E-1,-3.242164850E-1,-2.649625838E-1
1.167180148E2,1.168278903E-1,3.344484568E-1,3.543015569E-2
1.172221300E2,4.734201822E-3,-2.156352699E-1,-5.345067009E-3
1.177262449E2,-1.603520103E-2,4.392117858E-1,2.060141414E-1
1.182303594E2,7.391463965E-2,-4.181369543E-1,1.954767294E-2
1.187344735E2,-1.641699076E-1,3.904953003E-1,-6.185005978E-2
1.192385870E2,-1.007926930E-2,-2.368628234E-1,3.848448098E-1
1.197426999E2,-1.069013379E-3,1.820377111E-1,-1.244636998E-1
1.202468123E2,-1.542433500E-1,1.372918636E-1,-2.580903769E-1
1.207509245E2,-5.635227636E-2,3.396408260E-1,1.838703007E-1
1.212550363E2,-7.177661359E-2,-3.868301213E-1,-4.428769462E-3
1.217591478E2,1.098029464E-1,3.222311735E-1,5.253437161E-2
1.222632589E2,-3.523162603E-1,6.108647678E-3,-2.218966335E-1
1.227673697E2,1.872300506E-1,4.734201822E-3,1.637117565E-1
1.232714803E2,-3.423897028E-1,1.684459597E-1,-5.329795182E-2
1.237755908E2,5.312996507E-1,-1.455385387E-1,1.676823795E-1
1.242797013E2,-1.475238502E-1,2.425133139E-1,1.256854236E-1
1.247838117E2,2.356410921E-1,4.856374860E-1,-4.864010811E-1
1.252879222E2,-2.373209596E-1,-6.620246768E-1,1.941022873E-1
1.257920328E2,6.918043643E-2,3.124573231E-1,4.046979174E-2
1.262961436E2,-2.072358727E-1,1.663079411E-1,-1.122464016E-1
1.268002543E2,-5.910116807E-2,-2.612974048E-1,1.985310465E-1
1.273043651E2,4.413498193E-2,4.839576185E-1,-2.652680278E-1
1.278084758E2,3.298669681E-2,-2.719875574E-1,3.634645417E-2
1.283125866E2,-2.965748608E-1,6.427824497E-1,-1.043051630E-1
1.288166968E2,4.489856213E-2,-5.117519498E-1,-1.375972927E-1
1.293208068E2,-2.499964088E-1,5.061014891E-1,3.237583339E-1
1.298249163E2,-9.117157012E-2,-3.597993553E-1,-5.456549525E-1
1.303290253E2,-2.722929716E-1,4.686860144E-1,5.270236135E-1
1.308331341E2,6.230820715E-2,-2.568686306E-1,-5.332849622E-1
1.313372426E2,-3.141372204E-1,4.459312931E-2,3.399462402E-1
1.318413510E2,1.721111536E-1,-2.270889878E-1,-6.684387922E-1
1.323454592E2,-5.849030241E-2,-8.399390616E-3,1.089324594E0
1.328495669E2,-2.131918073E-1,-2.412915789E-2,-1.212566614E0
1.333536742E2,4.184423760E-2,-1.302669197E-1,1.169806004E0
1.338577809E2,-4.321868420E-1,5.818486959E-2,-1.098029494E0
1.343618875E2,2.055560052E-1,-1.406516135E-1,1.032208800E0
1.348659936E2,-3.274235129E-1,1.450803876E-1,-7.704532146E-1
1.353700995E2,1.713475734E-1,-2.779434621E-1,5.630646348E-1
1.358742051E2,-2.180787325E-1,3.683514595E-1,-4.303542376E-1
1.363783104E2,-6.994401664E-2,-2.528980076E-1,3.188714087E-1
1.368824153E2,1.007926930E-2,7.299833745E-2,-2.478583902E-1
1.373865198E2,-1.409570426E-1,-3.069595397E-1,1.948658675E-1
1.378906241E2,2.193004489E-1,2.157879770E-1,-2.591593862E-1
1.383947279E2,-1.472184062E-1,-5.132791400E-1,-5.497782957E-3
1.388988315E2,2.138026804E-2,3.358229101E-1,5.146535859E-2
1.394029351E2,4.138609022E-2,-3.787361681E-1,-1.148425788E-1
1.399070384E2,-4.766272306E-1,5.057960153E-1,4.993819445E-2
1.404111415E2,5.419898033E-1,-5.943714380E-1,-5.073232055E-1
1.409152445E2,-4.428769648E-2,2.197586000E-1,3.631591201E-1
1.414193472E2,-1.704312712E-1,-5.152644515E-1,1.313359290E-2
1.419234497E2,-6.279689670E-1,1.230892539E-1,4.557051361E-1
1.424275522E2,-6.490438432E-2,-4.144717455E-1,-6.998983026E-1
1.429316545E2,-8.323032409E-2,2.197586000E-1,8.735366464E-1
1.434357566E2,-3.588830680E-2,-2.713766694E-1,-1.012661099E0
1.439398586E2,1.168278903E-1,8.445205539E-2,1.168584347E0
1.444439607E2,-3.318522871E-1,-1.391244531E-1,-1.123227596E0
1.449480633E2,1.383608729E-1,-1.207985133E-1,1.071456790E0
1.454521666E2,-1.884517819E-1,-6.704241037E-2,-1.081383348E0
1.459562706E2,2.437350452E-1,7.712167501E-2,1.123074889E0
1.464603754E2,-1.582139730E-1,-2.057087123E-1,-9.205732346E-1
1.469644810E2,8.689551800E-2,-1.050687432E-1,7.880155444E-1
1.474685872E2,-2.367101014E-1,-1.298087649E-2,-8.599448800E-1
1.479726938E2,2.168569900E-2,-1.921169758E-1,5.981893539E-1
1.484768005E2,-4.199695215E-2,-1.400407553E-1,-7.423534393E-1
1.489809072E2,-6.627883017E-2,-1.617264450E-1,6.763800383E-1
1.494850138E2,-4.902189970E-2,1.953240186E-1,-6.105593443E-1
1.499891203E2,-1.687513888E-1,-3.081812859E-1,4.796815813E-1
1.504932267E2,-6.918043643E-2,-4.425715208E-1,-3.084867075E-2
1.509973328E2,-8.918625861E-2,6.553052068E-1,1.912006736E-1
1.515014385E2,4.489856213E-2,-3.181078434E-1,-7.232639194E-1
1.520055439E2,4.337139800E-2,-2.214384824E-1,4.576904476E-1
1.525096490E2,3.619373962E-2,7.635809947E-3,-5.145008564E-1
1.530137539E2,-2.461785078E-1,-2.538143098E-1,3.775144219E-1
1.535178590E2,-1.882990748E-1,2.620609999E-1,-3.139844835E-1
1.540219640E2,-1.232419685E-1,-2.509126961E-1,3.564395905E-1
1.545260692E2,2.481638193E-1,4.291325063E-2,-3.999637067E-1
1.550301744E2,-2.309068888E-1,-1.038470119E-1,2.568686306E-1
1.555342798E2,-2.373209596E-1,-2.046396956E-2,-2.973384261E-1
1.560383854E2,-1.450803876E-2,-3.225366175E-1,3.226893246E-1
1.565424914E2,1.324049383E-1,4.442514181E-1,-6.123919412E-2
1.570465977E2,-3.246746361E-1,-3.582721949E-1,4.474584386E-2
1.575507044E2,9.315688163E-3,4.870119393E-1,-1.737910360E-1
1.580548112E2,3.848448023E-2,9.605848789E-2,5.772672296E-1
1.585589178E2,5.803215317E-3,2.037234008E-1,-4.833467603E-1
1.590630243E2,-5.665770918E-2,-4.660898149E-1,-9.621120058E-3
1.595671308E2,-1.821904182E-1,6.027708054E-1,-1.626427472E-1
1.600712376E2,-1.620318890E-1,-6.864593029E-1,-2.742782831E-1
1.605753453E2,-2.808450758E-1,4.925097227E-1,6.122392416E-1
1.610794543E2,-1.792888194E-1,-5.363392830E-1,-1.001665473E0
1.615835648E2,-4.138609022E-2,2.683223486E-1,8.819360137E-1
1.620876764E2,-6.261363626E-2,-2.333503515E-1,-7.919861674E-1
1.625917888E2,-5.714640021E-1,5.105302334E-1,9.465349913E-1
1.630959018E2,3.802633286E-2,-4.011854529E-1,-7.203623056E-1
1.636000148E2,3.717112243E-1,-8.399390616E-3,8.965967894E-1
1.641041279E2,-3.510945439E-1,4.871646687E-2,-5.642863512E-1
1.646082406E2,6.154462695E-2,1.614210159E-1,6.701186895E-1
1.651123530E2,-3.035998046E-1,3.924806044E-2,-5.109884143E-1
1.656164652E2,1.440113783E-1,1.589775532E-1,4.027126133E-1
1.661205769E2,5.619955808E-2,-9.673043489E-1,-4.718930423E-1
1.666246882E2,-3.711003438E-2,4.692968726E-1,4.001164436E-1
1.671287991E2,3.362810612E-1,2.800815105E-1,-6.230820715E-2
1.676329096E2,-9.758564830E-2,-2.376264036E-1,-5.470294356E-1
1.681370196E2,-3.619373739E-1,4.213439822E-1,3.845393658E-1
1.686411292E2,-6.734783947E-2,-4.488328993E-1,-4.935787320E-1
1.691452382E2,1.887572110E-1,3.358229101E-1,5.763509274E-1
1.696493469E2,-2.617555559E-1,-1.046105921E-1,-6.519454122E-1
1.701534553E2,2.629773021E-1,-1.502727419E-1,1.134834051E0
1.706575633E2,-8.616247773E-1,1.820377111E-1,-1.293353438E0
1.711616709E2,1.895207912E-1,1.985310577E-2,1.427132845E0
1.716657782E2,-3.167333901E-1,-1.450803876E-1,-1.351080179E0
1.721698851E2,7.177661359E-2,-1.382081509E-1,1.127961874E0
1.726739915E2,2.611446939E-2,-8.491020650E-2,-6.487383842E-1
1.731780976E2,-1.835648715E-1,6.185005978E-2,2.617555559E-1
1.736822033E2,-4.288270772E-1,5.543597937E-1,3.558287397E-2
1.741863089E2,-1.527161989E-2,-1.505781710E-1,-2.693913579E-1
1.746904143E2,1.863137633E-2,9.376774728E-2,2.457203567E-1
1.751945193E2,-1.771507859E-1,-6.823359728E-1,-1.174387559E-1
1.756986240E2,-6.933315098E-2,1.493564397E-1,3.894263133E-2
1.762027283E2,6.352993846E-2,-3.095557392E-1,-3.043633699E-1
1.767068327E2,-4.091266990E-1,7.619010806E-1,1.814268380E-1
1.772109370E2,-8.472694755E-1,8.804088831E-1,6.406444311E-1
1.777150410E2,2.678641975E-1,-3.820959330E-1,-9.483675957E-1
1.782191450E2,2.863428593E-1,-5.361865759E-1,5.844448805E-1
1.787232491E2,-1.024725661E-1,1.678351015E-1,-4.046979249E-1
1.792273535E2,-2.868010104E-1,6.447677612E-1,5.451968312E-2
1.797314581E2,7.560978532E-1,-2.646571696E-1,-7.452550530E-2
1.802355628E2,-7.179188132E-1,3.860665262E-1,7.018836141E-1
1.807396676E2,1.939495653E-2,-1.701258421E-1,-9.008728266E-1
1.812437722E2,-6.627883017E-2,-2.095266134E-1,6.420188546E-1
1.817478770E2,2.185368687E-1,-1.527161896E-1,-6.320923567E-1
1.822519818E2,-1.354592592E-1,3.558287397E-2,7.134900689E-1
1.827560868E2,-1.863137633E-1,1.139262840E-1,-5.972730517E-1
1.832601917E2,1.556178033E-1,-4.356993139E-1,1.986837685E-1
1.837642964E2,-5.513054505E-2,-3.309359848E-1,-8.368847519E-2
1.842684011E2,-2.463312149E-1,1.705839932E-1,5.380191803E-1
1.847725059E2,-2.348775119E-1,-4.140135944E-1,-7.005091906E-1
1.852766108E2,1.635590494E-1,4.324922562E-1,7.492256761E-1
1.857807156E2,-2.367101014E-1,-1.837175786E-1,-1.186910272E0
1.862848204E2,-1.947131455E-1,2.464839369E-1,1.480583549E0
1.867889252E2,1.719584316E-1,2.060141414E-1,-1.756083488E0
1.872930299E2,-1.219286084E0,6.913462281E-1,1.742339015E0
1.877971346E2,1.225242019E0,-3.236056268E-1,-1.881310821E0
1.883012390E2,-6.659952998E-1,1.595884264E-1,9.950987101E-1
1.888053431E2,3.286452591E-1,3.423897028E-1,-5.340485573E-1
1.893094469E2,-2.762635946E-1,-2.341139317E-1,3.550651670E-1
1.898135503E2,-1.136208475E-1,1.282816008E-2,1.175914705E-1
1.903176536E2,-9.453132749E-2,-2.958112657E-1,3.254382014E-1
1.908217571E2,-3.103193045E-1,1.931859851E-1,-2.568686306E-1
1.913258606E2,-9.651663154E-2,-4.648680985E-1,-1.099556591E-2
1.918299639E2,1.182023361E-1,4.474584460E-1,1.069013402E-2
1.923340673E2,-2.385426909E-1,-1.644753367E-1,-1.875354946E-1
1.928381705E2,1.740964651E-1,5.207622424E-2,5.253437161E-1
1.933422737E2,-1.954767294E-2,-4.169152081E-1,-3.136790693E-1
1.938463767E2,6.875283122E-1,1.948658675E-1,7.849612087E-2
1.943504794E2,-6.065887213E-1,-3.315468729E-1,-3.944659233E-1
1.948545819E2,-4.013381600E-1,5.453495383E-1,4.816668928E-1
1.953586842E2,-1.869246215E-1,-9.224057943E-2,-7.542653084E-1
1.958627862E2,-8.567378670E-2,8.567378670E-2,9.408844709E-1
1.963668877E2,-3.342957497E-1,-9.422589093E-2,-1.043662429E0
1.968709888E2,2.060141414E-1,5.039634649E-3,8.657481074E-1
1.973750895E2,-4.103484154E-1,-3.109301627E-1,-7.202095985E-1
1.978791895E2,1.188132018E-1,1.527161920E-3,9.989166260E-1
1.983832892E2,2.561050653E-1,-2.251036763E-1,-9.621120095E-1
1.988873885E2,3.191768527E-1,-1.716530025E-1,2.831358314E-1
1.993914874E2,-2.318231910E-1,1.113301069E-1,-9.071341902E-2
1.998955862E2,-3.549124300E-1,2.422078848E-1,-2.138026804E-2
2.003996851E2,4.642572254E-2,6.902772188E-2,-9.621120244E-2
2.009037840E2,-2.107483447E-1,-2.897026241E-1,2.188423127E-1
2.014078830E2,-1.128572673E-1,2.689332068E-1,-3.130682111E-1
2.019119817E2,2.368628234E-1,-6.997455955E-1,3.298669681E-2
2.024160803E2,-6.895136237E-1,6.075050235E-1,3.016144931E-1
2.029201790E2,2.304487377E-1,-3.736965358E-1,-3.732383847E-1
2.034242778E2,-3.787361681E-1,3.118464649E-1,6.737838387E-1
2.039283768E2,7.620538026E-2,-3.142899275E-1,-9.816597104E-1
2.044324841E2,-4.433351159E-1,3.659079969E-1,1.166293621E0
2.049365757E2,-3.051269650E-1,-2.437350452E-1,-1.029307127E0
2.054406755E2,7.414371371E-1,-4.529562294E-1,1.225089312E0
2.059447751E2,-4.602866173E-1,-1.881463528E-1,-4.337140024E-1
2.064488750E2,8.139773458E-2,-5.459604263E-1,-7.788525894E-3
2.069529752E2,1.800523996E-1,3.214675784E-1,-8.429934084E-2
2.074570756E2,-5.781835318E-1,-1.417206228E-1,-3.162752390E-1
2.079611759E2,5.192350596E-3,3.397935331E-1,1.359174121E-2
2.084652759E2,-9.208786488E-2,-5.361865759E-1,3.207040019E-3
2.089693757E2,-3.512472380E-3,2.512181401E-1,1.797469556E-1
2.094734751E2,-3.695731983E-2,-5.111411214E-1,-4.787652791E-1
2.099775744E2,-1.473711282E-1,4.225656986E-1,9.361502528E-1
2.104816734E2,-2.861901522E-1,-1.317940801E-1,-9.094249606E-1
2.109857721E2,-6.658425927E-2,3.437641561E-1,8.671225309E-1
2.114898704E2,-7.880155742E-2,-2.008218020E-1,-6.145299673E-1
2.119939683E2,-2.958112657E-1,-7.235693336E-1,7.912226319E-1
2.124980659E2,-9.071341902E-2,7.567087412E-1,2.993237413E-2
2.130021632E2,2.561050653E-1,-1.139262795E0,-5.398517251E-1
2.135062603E2,3.581194878E-1,-2.695440948E-1,4.179842174E-1
2.140103574E2,-1.530216336E-1,-9.162971973E-1,-2.487746775E-1
2.145144544E2,-7.834340632E-2,1.033888608E-1,-8.414662629E-2
2.150185511E2,2.577849329E-1,5.720748901E-1,8.765909821E-2
2.155226473E2,-9.819651395E-2,-5.905535221E-1,-4.179842174E-1
2.160267431E2,-2.758054435E-1,-1.237001196E-1,3.552178741E-1
2.165308383E2,5.235111117E-1,-8.736893535E-1,-3.368919194E-1
2.170349332E2,-4.379900396E-1,4.584540129E-1,3.596466482E-1
2.175390278E2,-1.844811589E-1,-2.506072819E-1,-4.825831652E-1
2.180431223E2,5.696314201E-2,1.359174103E-1,6.548470259E-1
2.185472166E2,-4.473057389E-1,-2.015853822E-1,-6.504182816E-1
2.190513110E2,3.564395905E-1,4.886918236E-3,6.339249015E-1
2.195554051E2,-3.565923274E-1,-6.959276795E-1,-1.203250885E0
2.200594991E2,2.290742937E-3,3.430005610E-1,8.578068614E-1
2.205635930E2,-1.664606482E-2,1.108719558E-1,-3.816377819E-1
2.210676864E2,-1.992946416E-1,-1.753181964E-1,-1.111773923E-1
2.215717795E2,-8.811724186E-2,3.668242991E-1,4.593703151E-1
2.220758721E2,5.100720748E-2,-4.405862093E-1,-5.516108871E-1
2.225799645E2,-3.126100600E-1,4.836521745E-1,6.186532974E-1
2.230840567E2,-1.737910360E-1,-6.942478418E-1,-5.051851869E-1
2.235881490E2,-1.316413581E-1,1.511890292E-1,4.247037470E-1
2.240922415E2,-7.422006875E-2,-1.707367003E-1,-6.973021626E-1
2.245963344E2,-1.148425788E-1,2.136499584E-1,8.025236130E-1
2.251004273E2,-1.505781710E-1,-3.866774142E-1,-7.564033270E-1
2.256045203E2,-2.446513474E-1,1.299614757E-1,8.739947677E-1
2.261086131E2,3.497200832E-2,2.046396956E-2,-1.080467105E0
2.266127055E2,-1.073594838E-1,-4.382954910E-2,1.097265840E0
2.271167976E2,-1.959348768E-1,-2.367101014E-1,-8.460476995E-1
2.276208894E2,4.221075773E-1,-9.056070447E-2,7.432697415E-1
2.281249809E2,-4.718930423E-1,9.605848789E-2,-4.337140024E-1
2.286290720E2,3.730856776E-1,-1.206457913E-1,5.442805290E-1
2.291331628E2,-7.368556261E-1,-1.782197952E-1,-3.787361681E-1
2.296372532E2,7.603739500E-1,-2.787070572E-1,2.837466896E-1
2.301413435E2,-1.082757786E-1,2.009745091E-1,-1.070540547E-1
2.306454336E2,-2.150243968E-1,4.535670951E-2,3.077231348E-1
2.311495235E2,4.581485991E-4,2.788597643E-1,-3.185659945E-1
2.316536130E2,-2.052505612E-1,-2.316704690E-1,5.925388262E-2
2.321577021E2,-1.003345400E-1,-1.298087649E-2,-2.512181401E-1
2.326617907E2,2.344193608E-1,5.558869615E-2,1.884517819E-1
2.331658788E2,2.565632164E-1,2.371682525E-1,-2.335030586E-1
2.336699667E2,-4.260781780E-2,-3.842339516E-1,2.070831656E-1
2.341740544E2,-3.335321844E-1,7.428115606E-1,-2.058614343E-1
2.346781419E2,-1.018617004E-1,-1.107192412E-1,-6.704241037E-2
2.351822289E2,-7.686206102E-1,8.231402636E-1,1.791360974E-1
2.356863157E2,-8.200860023E-2,9.728021920E-2,-4.121810198E-1
2.361904020E2,-6.279689670E-1,5.965094566E-1,5.316050649E-1
2.366944881E2,4.917461425E-2,-2.741255760E-1,-6.565269232E-1
2.371985741E2,-2.241873741E-1,3.932442069E-1,9.512691498E-1
2.377026601E2,-2.858847082E-1,-4.286743701E-1,-1.315191865E0
2.382067460E2,9.162971377E-2,-4.138609022E-2,1.271515012E0
2.387108316E2,-5.152644515E-1,-1.375972927E-1,-6.679806113E-1
2.392149170E2,3.565923274E-1,1.806632578E-1,3.802633286E-1
2.397190022E2,-2.046396956E-2,-1.496618707E-2,4.276053309E-1
2.402230873E2,-8.399390616E-3,-4.158461988E-1,-8.170316368E-2
2.407271724E2,-1.861610413E-1,4.841103256E-1,-9.514218569E-2
2.412312574E2,8.353576064E-2,-7.360920310E-1,2.199113183E-2
2.417353424E2,2.101374865E-1,1.983783394E-1,2.038761228E-1
2.422394272E2,-2.226602137E-1,-3.707949221E-1,-2.431241870E-1
2.427435120E2,-1.982256174E-1,5.743656158E-1,2.977965772E-2
2.432475967E2,7.574722916E-2,-3.701840639E-1,-9.575305134E-2
2.437516813E2,-2.159406990E-1,4.338667095E-1,2.249509543E-1
2.442557659E2,-2.000582218E-2,-2.840521336E-1,-2.448040545E-1
2.447598503E2,1.493564397E-1,4.728093445E-1,1.853974611E-1
2.452639347E2,-2.336557806E-1,-4.257727563E-1,-7.483093534E-3
2.457680191E2,6.627883017E-2,2.466366589E-1,3.237583339E-1
2.462721034E2,-7.050906420E-1,-1.414151937E-1,-3.408625424E-1
2.467761875E2,5.946768522E-1,-2.110537887E-1,2.076940238E-1
2.472802714E2,1.863137633E-1,1.038470119E-1,5.879573524E-2
2.477843550E2,-2.041815519E-1,-3.181078434E-1,-3.756818548E-2
2.482884383E2,9.590577334E-2,2.562577724E-1,-2.831358314E-1
2.487925214E2,-1.174387559E-1,-3.546070158E-1,1.892153621E-1
2.492966043E2,9.666935354E-2,4.379900396E-1,-1.915061027E-1
2.498006870E2,-1.142317131E-1,-5.093085170E-1,-2.748891478E-3
2.503047696E2,-3.564395905E-1,3.842339516E-1,8.460476995E-2
2.508088518E2,1.493564397E-1,-4.033234715E-1,-1.568395346E-1
2.513129338E2,-2.171624303E-1,4.801397026E-1,1.024725661E-1
2.518170156E2,-1.293506175E-1,-4.077522457E-2,-2.922987938E-1
2.523210971E2,2.536616027E-1,-3.558287397E-2,5.044215918E-1
2.528251785E2,-2.979492843E-1,1.375972927E-1,-5.691732764E-1
2.533292600E2,2.055560052E-1,-2.472475171E-1,5.884155035E-1
2.538333416E2,-2.408334464E-1,1.571449637E-1,-3.349066079E-1
2.543374232E2,5.650499370E-3,-2.296851575E-1,1.747073233E-1
2.548415047E2,4.046979174E-2,1.404988952E-2,-8.261945844E-2
2.553455862E2,9.468403645E-3,-5.352702737E-1,-1.989891976E-1
2.558496679E2,8.918625861E-2,2.399171442E-1,1.194240674E-1
2.563537498E2,-7.101303339E-2,-4.584540129E-1,-2.900080681E-1
2.568578317E2,1.038470119E-2,4.398226365E-2,1.704312712E-1
2.573619137E2,-1.718057245E-1,-8.323032409E-2,-2.562577724E-1
2.578659955E2,-3.552178741E-1,6.499601007E-1,4.738783538E-1
2.583700771E2,-2.244928032E-1,9.239330143E-2,-5.433642268E-1
2.588741585E2,4.627300799E-2,-5.619955808E-2,7.730493546E-1
2.593782399E2,-1.053741723E-1,-1.754709035E-1,-7.858775258E-1
2.598823214E2,7.483093534E-3,-5.711585656E-2,4.115701318E-1
2.603864028E2,1.325576603E-1,3.233001828E-1,-5.099193454E-1
2.608904842E2,-6.719512399E-3,-1.069013379E-3,1.444695145E-1
2.613945659E2,-3.220784664E-1,3.233001828E-1,1.789833754E-1
2.618986482E2,5.265654325E-1,-9.940297008E-1,3.043633699E-1
2.624027312E2,-1.111773923E-1,-2.825249545E-2,-4.839576185E-1
2.629068149E2,-1.466075517E-2,-3.665188793E-3,-1.924224012E-2
2.634108994E2,-6.438514590E-1,6.902772188E-2,-3.894263133E-2
2.639149846E2,-1.676823795E-1,-1.270598769E-1,2.490801066E-1
2.644190702E2,1.785252392E-1,5.085449293E-2,4.092793912E-2
2.649231557E2,-3.898844421E-1,6.093376130E-2,-1.215620935E-1
2.654272414E2,4.463894367E-1,-1.319467872E-1,4.674642682E-1
2.659313273E2,-5.303833485E-1,1.646280587E-1,-3.164279461E-1
2.664354133E2,1.449276656E-1,5.314523727E-2,2.506072819E-1
2.669394994E2,1.313359290E-1,-1.878409237E-1,-2.328922004E-1
2.674435854E2,5.803215317E-3,-3.141372204E-1,6.215549260E-2
2.679476713E2,-2.443459118E-3,2.331976295E-1,-1.133154184E-1
2.684517570E2,-2.306014597E-1,-3.875937164E-1,-1.420260668E-1
2.689558426E2,1.288924664E-1,3.950767815E-1,4.978547990E-2
2.694599281E2,-1.802051067E-1,-3.970620930E-1,-1.163697392E-1
2.699640138E2,7.620538026E-2,8.429934084E-2,1.160643101E-1
2.704680998E2,1.157588735E-1,-3.344484568E-1,-2.079994529E-1
2.709721858E2,-3.460549116E-1,6.656898856E-1,-3.630063832E-1
2.714762717E2,-3.207040206E-2,-5.861247778E-1,3.274235129E-1
2.719803571E2,-4.749473557E-2,4.938841760E-1,7.162389904E-2
2.724844421E2,-1.812741160E-1,-2.550360560E-1,-1.557705179E-2
2.729885266E2,1.502727419E-1,1.069013402E-2,3.717112243E-1
2.734926109E2,-3.926333487E-1,-2.034179717E-1,-4.182896614E-1
2.739966955E2,3.807214797E-1,-8.704823256E-2,4.007273018E-1
2.745007802E2,-1.316413581E-1,7.880155742E-2,-3.150535226E-1
2.750048646E2,2.499964088E-1,-3.753764033E-1,1.094975099E-1
2.755089487E2,-2.168569900E-2,1.588248461E-2,-4.413498193E-2
2.760130323E2,-2.574795187E-1,-2.638935745E-1,7.498364896E-2
2.765171153E2,2.144135386E-1,5.473348498E-1,-2.845102847E-1
2.770211979E2,-4.234820008E-1,-6.782126427E-1,-5.787943676E-2
2.775252803E2,-1.252272818E-2,5.291616321E-1,5.650499091E-2
2.780293625E2,-1.240055487E-1,-4.124864340E-1,-4.262309074E-1
2.785334448E2,-2.309068888E-1,6.366738081E-1,3.689623177E-1
2.790375273E2,1.116355360E-1,-7.993165851E-1,-5.940660238E-1
2.795416099E2,-8.095485568E-1,8.417716622E-1,4.396699369E-1
2.800456924E2,3.074176908E-1,-8.611665964E-1,-9.245438576E-1
2.805497745E2,-2.965748608E-1,5.317577720E-1,1.119867802E0
2.810538564E2,-5.247328281E-1,-4.360047281E-1,-8.523091078E-1
2.815579380E2,1.438586563E-1,1.461493969E-1,1.106123447E0
2.820620196E2,-6.914989352E-1,5.864302069E-2,-8.834632039E-1
2.825661013E2,3.255909383E-1,-3.283398151E-1,1.031597853E0
2.830701829E2,-6.081159115E-1,4.932733253E-2,-9.352339506E-1
2.835742646E2,1.736383140E-1,-3.411679864E-1,9.366084337E-1
2.840783460E2,-2.202167511E-1,1.745546162E-1,-7.174606919E-1
2.845824272E2,-1.348484010E-1,-1.211039424E-1,4.941896200E-1
2.850865084E2,6.520981342E-2,-3.071122766E-1,-5.148062706E-1
2.855905901E2,8.704823442E-3,-5.940660089E-2,7.635809598E-4
2.860946718E2,-1.388190240E-1,8.118392825E-1,-3.741546720E-2
2.865987534E2,-1.614210159E-1,4.082103968E-1,-2.351829410E-1
2.871028350E2,-1.511890292E-1,1.724165827E-1,1.336266696E-1
2.876069165E2,2.641990222E-2,-4.827359021E-1,1.108719558E-1
2.881109979E2,-9.590577334E-2,7.483093534E-3,1.017089859E-1
2.886150793E2,4.218021333E-1,-4.627300799E-1,9.275981784E-1
2.891191604E2,-1.643226296E-1,4.491383433E-1,-1.640172005E-1
2.896232416E2,-4.773908257E-1,-2.327394783E-1,-5.552760959E-1
2.901273231E2,4.795288667E-2,2.263254076E-1,4.883863926E-1
2.906314052E2,-2.796233594E-1,-6.979130208E-2,-8.046616316E-1
2.911354884E2,3.448331654E-1,-2.214384824E-1,4.647153914E-1
2.916395726E2,-1.948658675E-1,-1.676823795E-1,-2.032652497E-1
2.921436571E2,1.322522312E-1,2.382372692E-2,1.779143661E-1
2.926477418E2,6.307178736E-2,-1.751654744E-1,-2.834412456E-1
2.931518268E2,5.772672221E-2,-7.024945319E-2,4.663952589E-1
2.936559120E2,3.283398226E-2,2.614501119E-1,-1.962403059E-1
2.941599976E2,-5.552760959E-1,-1.664606482E-1,6.459894776E-2
2.946640830E2,1.576031148E-1,4.705185890E-1,-1.175914705E-2
2.951681680E2,-1.125518382E-1,-5.183187723E-1,-2.063195854E-1
2.956722524E2,-1.834121495E-1,3.437641561E-1,2.281579971E-1
2.961763361E2,6.368265301E-2,-2.283107042E-1,-2.157879770E-1
2.966804192E2,-4.419606626E-1,6.146826744E-1,7.315105945E-2
2.971845017E2,7.803797722E-2,-5.580250025E-1,-5.940660089E-2
2.976885841E2,-1.828012913E-1,4.705185890E-1,7.635809947E-3
2.981926664E2,-1.014035568E-1,-4.754055142E-1,-4.612028971E-2
2.986967489E2,2.868010104E-1,-2.306014486E-2,3.982838392E-1
2.992008320E2,-3.320049942E-1,4.546361268E-1,-4.259254634E-1
2.997049157E2,5.940660089E-2,-3.817904973E-3,5.882627964E-1
3.002090000E2,-2.892444730E-1,3.634645417E-2,-4.711294472E-1
3.007130845E2,2.214384824E-1,-4.966330528E-1,4.199695289E-1
3.012171691E2,-7.651081681E-2,-7.834340632E-2,-5.691732764E-1
3.017212536E2,6.856957078E-2,-3.150535226E-1,3.258963525E-1
3.022253378E2,-3.463603258E-1,3.271180987E-1,-4.060723484E-1
3.027294216E2,1.227838174E-1,-2.220493406E-1,1.049160287E-1
3.032335049E2,-3.940077871E-2,1.805105358E-1,-1.029307172E-1
3.037375877E2,6.337722391E-2,-6.459894776E-1,-1.075121984E-1
3.042416699E2,-1.814268380E-1,2.302960157E-1,2.435823381E-1
3.047457513E2,-8.399390429E-2,-1.574503928E-1,-3.541488647E-1
3.052498321E2,1.774562150E-1,-1.198822111E-1,5.212203860E-1
3.057539118E2,-2.547306120E-1,-1.985310577E-3,-3.269653618E-1
3.062579914E2,3.240637779E-1,-5.335903764E-1,6.782126427E-1
3.067620706E2,-4.780016840E-2,-4.520399496E-2,-6.421716213E-1
3.072661494E2,-6.276635826E-2,8.246674202E-3,4.167625010E-1
3.077702277E2,-3.517054021E-1,3.558287397E-2,-3.196350038E-1
3.082743057E2,1.153007299E-1,-7.925970852E-2,-6.566796452E-2
3.087783832E2,2.278525680E-1,3.993528485E-1,-1.502727419E-1
3.092824601E2,-1.840230078E-1,4.092793912E-2,-3.187187016E-1
3.097865366E2,-3.005454838E-1,9.773836285E-2,7.874047160E-1
3.102906127E2,-1.276707351E-1,-3.286452591E-1,-5.491674542E-1
3.107946886E2,5.849030241E-2,-2.321286201E-1,3.008508980E-1
3.112987641E2,2.032652497E-1,-9.957095981E-2,1.603520103E-2
3.118028394E2,-6.551524997E-2,-1.660024971E-1,-2.671006322E-1
3.123069144E2,-4.109592736E-1,2.338084877E-1,3.509418070E-1
3.128109892E2,-5.436696485E-2,2.382372692E-2,-1.530216336E-1
3.133150638E2,1.421787739E-1,1.603520066E-1,3.262017965E-1
3.138191383E2,-1.655443609E-1,1.867718995E-1,-1.586721241E-1
3.143232125E2,3.405570984E-2,-1.252272725E-1,5.879573524E-2
3.148272863E2,-6.108647794E-4,7.803797722E-2,-1.084285006E-1
3.153313599E2,-5.787943676E-2,-1.756236330E-2,-8.735366166E-2
3.158354330E2,-1.120936871E-1,5.497783050E-2,1.855501831E-1
3.163395056E2,-1.078176349E-1,1.401934624E-1,-2.101374865E-1
3.168435781E2,2.299905866E-1,-2.748891525E-2,4.935787320E-1
3.173476508E2,-1.756236255E-1,-7.330377400E-2,-3.243691921E-1
3.178517241E2,6.704241037E-2,-5.986474827E-2,2.460257858E-1
3.183557983E2,-9.590577334E-2,1.033888608E-1,-3.393353820E-1
3.188598734E2,1.704312712E-1,-2.306014486E-2,1.322522312E-1
3.193639490E2,-2.930623889E-1,3.132209182E-1,-7.941242307E-3
3.198680245E2,1.001818255E-1,-6.279689670E-1,-1.437059343E-1
3.203720995E2,-7.788526267E-2,2.692386508E-1,2.145662606E-1
3.208761741E2,-2.440404743E-1,3.555232882E-1,-1.492037177E-1
3.213802483E2,2.490801066E-1,5.925388262E-2,3.669770062E-1
3.218843222E2,-1.324049383E-1,5.574141070E-2,-4.416552484E-1
3.223883962E2,1.676823795E-1,-3.706422150E-1,3.628536761E-1
3.228924700E2,-2.168569900E-2,-5.772672221E-2,-2.209803313E-1
3.233965437E2,-1.711948514E-1,-3.054323792E-1,1.427896470E-1
3.239006173E2,1.711948514E-1,2.431241870E-1,-2.368628234E-1
3.244046907E2,-2.513708472E-1,-6.580541134E-1,-1.916588247E-1
3.249087638E2,-1.230892539E-1,5.154171586E-1,5.818486959E-2
3.254128367E2,-6.872228812E-3,-6.893609166E-1,-2.127336562E-1
3.259169095E2,-4.245510101E-1,5.682569742E-1,5.038107038E-1
3.264209820E2,-1.151480079E-1,-3.704894781E-1,-5.757400393E-1
3.269250543E2,-4.550942779E-2,1.766926348E-1,8.723149300E-1
3.274291262E2,-4.245510101E-1,1.311832070E-1,-8.364266157E-1
3.279331978E2,3.671297431E-1,-4.973966479E-1,9.334014058E-1
3.284372691E2,-4.208858311E-1,1.114828233E-2,-1.260061383E0
3.289413400E2,3.814850450E-1,-2.822195292E-1,9.723440409E-1
3.294454106E2,-2.945895493E-1,4.856374860E-2,-5.917752385E-1
3.299494811E2,-6.062832847E-2,-3.501782417E-1,3.016144931E-1
3.304535513E2,1.279761642E-1,1.379027218E-1,-3.016144931E-1
3.309576213E2,-3.791943192E-1,-3.275762498E-1,5.177079141E-2
3.314616910E2,5.787943676E-2,4.654789567E-1,1.001818255E-1
3.319657604E2,-3.145953640E-2,-6.186532974E-1,-2.570213675E-1
3.324698295E2,-3.013090491E-1,4.679224193E-1,2.437350452E-1
3.329738982E2,-1.985310577E-2,-4.030180275E-1,-5.013672709E-1
3.334779666E2,-3.367392123E-1,4.352411628E-1,8.225294352E-1
3.339820348E2,9.529490769E-2,-4.434878230E-1,-1.114064693E0
3.344861029E2,-1.047633067E-1,8.842267841E-2,1.113606453E0
3.349901707E2,-3.878991306E-2,1.214093715E-1,-1.221576810E0
3.354942383E2,-4.334085584E-1,-6.765327603E-2,1.417511702E0
3.359983056E2,6.414080039E-3,-2.788597643E-1,-1.459508657E0
3.365023726E2,2.628245652E-1,-1.585194170E-1,1.488677502E0
3.370064395E2,-7.186824083E-1,2.712239623E-1,-1.554650903E0
3.375105063E2,-1.887572110E-1,-1.237001196E-1,7.791580558E-1
3.380145729E2,6.157516837E-1,2.073885947E-1,-2.606865466E-1
3.385186393E2,1.282816082E-1,2.327394783E-1,3.634645417E-2
3.390227055E2,-9.575305134E-2,-5.818486959E-2,2.474002354E-2
3.395267715E2,1.020144150E-1,1.020144150E-1,8.720094711E-2
3.400308373E2,-2.076940238E-1,1.950185746E-1,4.963276163E-2
3.405349031E2,6.337722391E-2,-6.710349321E-1,-5.833758786E-2
3.410389688E2,-3.388772309E-1,3.032943606E-1,3.136790693E-1
3.415430345E2,-1.533270627E-1,-4.856374860E-1,-4.995346665E-1
3.420471002E2,-1.397353113E-1,5.581777096E-1,9.072869420E-1
3.425511660E2,-1.598938555E-1,-5.264127254E-1,-1.131474257E0
3.430552316E2,-1.198822111E-1,4.282162189E-1,9.952514172E-1
3.435592971E2,-1.336266696E-1,-1.936441362E-1,-1.028849006E0
3.440633625E2,2.489273995E-2,1.588248461E-2,1.107345104E0
3.445674276E2,-4.396699369E-1,2.484692484E-1,-1.048243999E0
3.450714927E2,1.438586563E-1,-1.933387071E-1,9.066760540E-1
3.455755579E2,4.963276163E-2,-4.298960865E-1,-5.519163013E-1
3.460796228E2,-6.230820715E-2,-2.561050653E-1,2.735147178E-1
3.465836875E2,1.753181964E-1,2.619082630E-1,-2.079994529E-1
3.470877519E2,-3.078758419E-1,-4.448622763E-1,2.489273995E-2
3.475918161E2,1.453858167E-1,5.358811021E-1,8.032871783E-2
3.480958802E2,-1.099556610E-1,-4.050033391E-1,-2.767217457E-1
3.485999443E2,-1.994473487E-1,3.929387629E-1,2.064722925E-1
3.491040083E2,-1.435532235E-2,-4.784598351E-1,-4.653262496E-1
3.496080721E2,-6.369792223E-1,1.038470149E0,3.527744114E-1
3.501121357E2,2.098320574E-1,-6.317868829E-1,-5.363392830E-1
3.506161992E2,-2.128863782E-1,3.741546720E-2,7.093667388E-1
3.511202625E2,2.932151034E-2,-2.536616027E-1,-7.133373618E-1
3.516243257E2,-6.276635826E-2,1.887572110E-1,8.955277801E-1
3.521283887E2,-1.696676910E-1,-1.296560466E-1,-7.333431840E-1
3.526324517E2,7.086031139E-2,-1.061377525E-1,8.755219579E-1
3.531365147E2,-2.660316229E-1,2.012799382E-1,-8.367320299E-1
3.536405774E2,8.857538924E-3,-1.641699076E-1,7.735075355E-1
3.541446400E2,2.244928107E-2,-3.451386094E-2,-5.725330114E-1
3.546487024E2,-2.047924101E-1,-2.083048970E-1,3.625482321E-1
3.551527645E2,2.043342739E-1,5.283980444E-2,-3.585776389E-1
3.556568270E2,-2.626718581E-1,-4.398226440E-1,-6.948586553E-2
3.561608890E2,-1.388190240E-1,4.346303046E-1,-1.502727419E-1
3.566649508E2,-8.781181276E-2,-2.092211843E-1,-9.300415963E-2
3.571690124E2,-2.515235841E-1,2.292270064E-1,1.934914142E-1
3.576730739E2,7.024945319E-2,-5.899426341E-1,-3.040579557E-1
3.581771353E2,-3.831649423E-1,2.585485280E-1,2.924515009E-1
3.586811967E2,-8.491020650E-2,-2.608392537E-1,-2.185368687E-1
3.591852580E2,-2.244928107E-2,1.201876476E-1,4.321868420E-1
3.596893191E2,-2.470948100E-1,4.031707719E-2,-3.998109996E-1
3.601933800E2,1.886045039E-1,-6.948586553E-2,6.210967898E-1
3.606974409E2,-4.239401519E-1,3.405571282E-1,-4.688387215E-1
3.612015016E2,2.435823381E-1,-5.928442478E-1,4.631882310E-1
3.617055623E2,-1.443168074E-1,-1.065959036E-1,-7.690787315E-1
3.622096233E2,7.315105945E-2,-3.234528899E-1,4.996874034E-1
3.627136846E2,-2.351829410E-2,-2.703076601E-2,-1.895207912E-1
3.632177460E2,2.869537175E-1,-2.748891413E-1,-9.834922850E-2
3.637218075E2,-2.196058929E-1,3.034470677E-1,2.144135386E-1
3.642258693E2,-8.842267841E-2,-3.552178741E-1,-4.552469850E-1
3.647299312E2,-1.064431891E-1,4.389063418E-1,6.195695996E-1
3.652339933E2,-7.589995116E-2,-3.181078434E-1,-7.428115606E-1
3.657380562E2,-1.936441362E-1,1.886045039E-1,8.943060637E-1
3.662421186E2,-3.491092324E-1,-1.261435747E-1,-9.308052063E-1
3.667461811E2,1.085812151E-1,1.001818255E-1,1.108719587E0
3.672502436E2,-3.486510813E-1,-4.581485689E-2,-1.009759426E0
3.677543061E2,2.318231910E-1,-5.849030241E-2,1.060461283E0
3.682583685E2,-3.749182522E-1,-6.291907281E-2,-7.840449214E-1
3.687624306E2,2.177732885E-1,-4.178315103E-1,6.038398147E-1
3.692664927E2,-1.603520066E-1,-2.428187430E-2,-7.389936447E-1
3.697705546E2,-2.777907550E-1,-2.321286201E-1,4.408916533E-1
3.702746164E2,1.487455666E-1,-5.757400393E-2,-3.019199073E-1
3.707786781E2,-3.355174661E-1,6.566796452E-2,2.809977904E-2
3.712827396E2,-1.814268380E-1,2.637408674E-1,2.794706225E-1
3.717868010E2,-8.659008145E-2,-3.952295184E-1,-3.614792228E-1
3.722908622E2,-3.026835024E-1,5.013672709E-1,6.352993846E-1
3.727949231E2,5.955931731E-3,-4.978547990E-1,-8.512400985E-1
3.732989840E2,-2.015853822E-1,4.792234302E-1,8.527672291E-1
3.738030448E2,1.377500147E-1,-3.472766280E-1,-7.199041247E-1
3.743071051E2,-3.359756172E-1,2.941313982E-1,7.921388745E-1
3.748111653E2,-1.133154184E-1,-3.518581092E-1,-1.110857606E0
3.753152252E2,7.987056673E-2,1.504254490E-1,1.107345104E0
3.758192851E2,-4.155407548E-1,-3.706422150E-1,-1.074663877E0
3.763233449E2,3.643808365E-1,7.651081681E-2,1.050687432E0
3.768274045E2,-3.443750143E-1,-1.137735620E-1,-3.275762498E-1
3.773314640E2,2.269362658E-1,-1.259908676E-1,2.344193608E-1
3.778355232E2,-6.175842881E-1,1.330158114E-1,-2.645044625E-1
3.783395822E2,3.222311735E-1,-1.235474050E-1,6.609556675E-1
3.788436411E2,-1.409570426E-1,-2.452622056E-1,-4.709767401E-1
3.793476997E2,-3.619373962E-2,-1.081230640E-1,3.355174661E-1
3.798517583E2,-1.252272725E-1,1.690568328E-1,-4.783071280E-1
3.803558168E2,-7.269290835E-2,-3.462076187E-1,2.744309902E-1
3.808598752E2,-8.078686893E-2,2.681696415E-1,-1.597411335E-1
3.813639335E2,1.104138121E-1,-5.028944016E-1,-8.536835015E-2
3.818679917E2,-3.110828996E-1,4.790706933E-1,2.061668634E-1
3.823720500E2,5.054906011E-2,-5.917752385E-1,-2.545779049E-1
3.828761085E2,-2.391535640E-1,4.094321132E-1,2.625191510E-1
3.833801671E2,1.221729559E-3,-3.535379767E-1,-3.006981909E-1
3.838842261E2,-2.451094985E-1,5.254964232E-1,4.207331240E-1
3.843882850E2,-2.703076601E-2,-4.618137777E-1,-4.984656572E-1
3.848923440E2,-1.317940801E-1,3.685041666E-1,5.613847375E-1
3.853964028E2,-3.262017965E-1,-2.602283955E-1,-4.470002949E-1
3.859004615E2,3.029889166E-1,1.069013402E-2,5.338957906E-1
3.864045200E2,-5.986474827E-2,-5.090031028E-1,-5.488619804E-1
3.869085784E2,1.328630932E-2,3.937023580E-1,6.730202436E-1
3.874126365E2,2.118173689E-1,-3.439168632E-1,-6.869174242E-1
3.879166945E2,7.513637096E-2,-1.287397593E-1,3.822486401E-1
3.884207525E2,-6.890554428E-1,-2.031125315E-2,-5.183187723E-1
3.889248104E2,3.996582925E-1,-2.435823381E-1,3.187187016E-1
3.894288681E2,-1.044578776E-1,1.666133702E-1,-1.250745654E-1
3.899329256E2,-4.825831577E-2,-3.164279461E-1,2.493855506E-1
3.904369831E2,1.786779463E-1,-4.566214234E-2,-1.198822111E-1
3.909410404E2,-3.110828996E-1,-2.315177470E-1,1.459966749E-1
3.914450975E2,-1.705839932E-1,4.546361268E-1,2.535088919E-2
3.919491544E2,9.361502528E-2,-2.751945853E-1,-2.738201320E-1
3.924532112E2,-3.164279461E-1,2.296851575E-1,4.642572254E-2
3.929572678E2,-2.596175298E-2,-2.191477418E-1,-2.110537887E-1
3.934613243E2,-2.855792940E-1,4.065304995E-1,3.656025827E-1
3.939653807E2,1.792888194E-1,-9.790635109E-1,-2.028071135E-1
3.944694368E2,-2.764163017E-1,3.937023580E-1,4.347830117E-1
3.949734928E2,-9.071341902E-2,-2.480110973E-1,-3.711003661E-1
3.954775485E2,-1.760817766E-1,3.130681813E-2,5.364919901E-1
3.959816040E2,-2.952004075E-1,-1.328630894E-1,-4.352411628E-1
3.964856593E2,2.223547846E-1,1.253799945E-1,5.322159529E-1
3.969897144E2,-2.130390853E-1,-1.382081509E-1,-3.086394370E-1
3.974937695E2,1.896735132E-1,-8.246674389E-2,1.333212405E-1
3.979978245E2,-1.763872057E-1,1.435532272E-1,-7.651081681E-2
3.985018794E2,1.421787739E-1,-1.514944583E-1,2.188423127E-1
3.990059341E2,-4.239401519E-1,5.824595690E-1,1.360701323E-1
3.995099887E2,2.109010667E-1,-7.192932963E-1,-1.876882017E-1
4.000140431E2,1.649334840E-2,3.526217043E-1,1.513417512E-1
4.005180973E2,-1.101083755E-1,-3.229947388E-1,-1.857028902E-1
4.010221513E2,1.740964651E-1,3.228420317E-1,1.264490038E-1
4.015262054E2,-1.627954692E-1,-4.308123887E-1,-1.823431402E-1
4.020302597E2,-6.902772188E-2,3.753764033E-1,2.897026241E-1
4.025343141E2,9.132428467E-2,-6.951641440E-1,1.404989064E-1
4.030383686E2,-2.454149276E-1,7.761036754E-1,-2.452622056E-1
4.035424232E2,-4.269944727E-1,-1.773035079E-1,-9.560033679E-2
4.040464777E2,2.548833191E-1,2.188423127E-1,3.810268939E-1
4.045505321E2,-3.888154328E-1,4.459312931E-2,-5.326740742E-1
4.050545865E2,4.132500291E-1,3.237583488E-2,5.827649832E-1
4.055586408E2,-2.501491308E-1,-1.824958473E-1,-4.981602132E-1
4.060626957E2,1.869246215E-1,-1.473711282E-1,5.806269646E-1
4.065667510E2,-2.751945853E-1,-1.713475734E-1,-5.329795480E-1
4.070708067E2,1.084285006E-1,-3.924806044E-2,3.656025827E-1
4.075748626E2,3.604102135E-2,-4.963276163E-2,-3.575085998E-1
4.080789188E2,-2.641990222E-2,-3.318522871E-1,2.516762912E-1
4.085829752E2,-1.495091617E-1,5.027416945E-1,-2.716821134E-1
4.090870317E2,-1.278234571E-1,-4.190532267E-1,1.133154184E-1
4.095910882E2,-1.346956789E-1,2.984074354E-1,-1.288924664E-1
4.100951448E2,9.025526792E-2,-3.005454838E-1,-4.830413163E-1
4.105992012E2,-1.159115955E-1,3.767508566E-1,2.321286201E-1
4.111032574E2,-6.383536756E-2,-3.017672002E-1,5.148062706E-1
4.116073134E2,-5.955931544E-2,2.512181401E-1,1.908952445E-1
4.121113692E2,-4.014908671E-1,-2.855792828E-2,-7.363975048E-1
4.126154248E2,1.310304999E-1,6.902772188E-2,8.410080671E-1
4.131194802E2,-3.575085998E-1,-2.976438701E-1,-6.003273726E-1
4.136235355E2,2.260199636E-1,-2.955058515E-1,7.026472092E-1
4.141275906E2,-5.703949928E-1,1.893680729E-2,-5.523744822E-1
4.146316455E2,2.565632164E-1,1.392771751E-1,6.931788325E-1
4.151357001E2,-2.356410921E-1,-1.374445739E-3,-4.981602132E-1
4.156397546E2,1.238528341E-1,-4.489856213E-2,3.437641561E-1
4.161438091E2,2.735147178E-1,-3.260490894E-1,-2.880227566E-1
4.166478635E2,-2.626718581E-2,-4.747946560E-1,-7.162389904E-2
4.171519180E2,-9.117157012E-2,3.637699783E-1,-3.219257295E-1
4.176559724E2,9.330959618E-2,-2.382372618E-1,5.300779343E-1
4.181600269E2,2.926042378E-1,2.460257858E-1,-2.759581506E-1
4.186640813E2,3.035998046E-1,-5.682569742E-1,2.168569900E-2
4.191681356E2,-3.871355653E-1,2.538143098E-1,-1.319467872E-1
4.196721899E2,2.718348242E-2,-3.013090491E-1,6.627883017E-2
4.201762442E2,-4.749473557E-2,2.432768941E-1,1.634063274E-1
4.206802986E2,-9.972367436E-2,-4.934260249E-1,-4.581485689E-2
4.211843528E2,-1.188132018E-1,3.057378232E-1,3.101665974E-1
4.216884069E2,-6.627883017E-2,9.712749720E-2,-3.152062297E-1
4.221924610E2,1.360701323E-1,9.315688163E-2,2.028071135E-1
4.226965148E2,-1.243109852E-1,-1.052214578E-1,3.008509055E-2
4.232005686E2,2.466366589E-1,2.397644334E-2,2.435823381E-1
4.237046225E2,-2.912297845E-1,-4.667007029E-1,-2.710712552E-1
4.242086764E2,-2.434296161E-1,6.551524997E-2,2.362519503E-1
4.247127303E2,2.284634262E-1,7.757982612E-2,-1.609628648E-1
4.252167842E2,-1.722638607E-1,-4.349357188E-1,-3.039052337E-2
4.257208382E2,3.503309488E-1,3.168860972E-1,2.153298259E-2
4.262248924E2,-2.620609999E-1,-3.918697536E-1,-8.597921580E-2
4.267289466E2,7.147117704E-2,4.042397738E-1,-5.497782957E-3
4.272330010E2,-3.039052337E-2,-4.152353406E-1,-2.420551628E-1
4.277370558E2,-1.192713454E-1,6.701186895E-1,1.116355360E-1
4.282411111E2,2.748891525E-2,-7.927497625E-1,-2.620609999E-1
4.287451668E2,1.527161949E-4,5.201513767E-1,-7.040216774E-2
4.292492226E2,-3.359756246E-2,-1.968511790E-1,5.919279456E-1
4.297532783E2,-2.102901936E-1,1.931859851E-1,-5.823068619E-1
4.302573340E2,-2.799287736E-1,-1.540906429E-1,4.095848203E-1
4.307613895E2,-1.513417512E-1,7.177661359E-2,-9.269873053E-2
4.312654450E2,-1.783725172E-1,-2.814559340E-1,-1.038470119E-2
4.317695008E2,2.276998460E-1,1.296560466E-1,2.278525680E-1
4.322735572E2,-2.324340492E-1,-1.924224049E-1,1.084285006E-1
4.327776140E2,3.877464235E-1,-3.833176568E-2,3.434587121E-1
4.332816710E2,-8.014546037E-1,-5.910116807E-2,-4.425715208E-1
4.337857281E2,6.056724191E-1,9.224057943E-2,4.492910504E-1
4.342897849E2,3.814850450E-1,-5.077813268E-1,4.706713259E-1
4.347938416E2,1.172860414E-1,-1.017089859E-1,-1.013271928E0
4.352978980E2,1.449276656E-1,-1.052520037E0,-4.882336855E-1
4.358019546E2,-7.681624591E-2,-1.907425225E-1,-5.175551772E-1
4.363060113E2,-1.120936871E-1,2.541197538E-1,-2.993237413E-2
4.368100686E2,1.863137633E-2,1.905898154E-1,8.885028362E-1
4.373141265E2,-3.671297431E-1,8.020654321E-1,7.910698652E-1
4.378181848E2,-1.924224049E-1,-3.970621154E-2,-4.037816226E-1
4.383222432E2,2.131918073E-1,8.506292105E-2,-5.467239767E-2
4.388263018E2,-2.214384824E-2,-6.734783947E-2,-2.186895907E-1
4.393303609E2,-2.090684772E-1,4.993819445E-2,-8.170316368E-2
4.398344203E2,-1.018617004E-1,-4.604393244E-1,1.240055487E-1
4.403384798E2,-5.998691916E-1,7.570141554E-1,5.406153202E-2
4.408425392E2,5.099193454E-1,-1.012508392E0,-3.868301213E-1
4.413465983E2,5.604684353E-2,3.000873327E-1,5.568032265E-1
4.418506573E2,-3.501782417E-1,-5.926915407E-1,-6.658425927E-1
4.423547162E2,1.592829973E-1,3.257436454E-1,7.399099469E-1
4.428587753E2,-3.242164850E-1,-1.056796089E-1,-4.607447684E-1
4.433628347E2,-9.025526792E-2,5.456549525E-1,5.558869243E-1
4.438668948E2,2.967275679E-1,-8.715513349E-1,-4.074468017E-1
4.443709550E2,-4.152353406E-1,5.332849622E-1,1.107192412E-1
4.448750154E2,-7.742711157E-2,-2.799287736E-1,-2.892444730E-1
4.453790758E2,-3.358229101E-1,2.408334464E-1,3.845393658E-1
4.458831362E2,2.510654330E-1,-4.624246359E-1,-2.431241870E-1
4.463871964E2,-2.974911332E-1,3.756818473E-1,1.753181964E-1
4.468912564E2,9.712749720E-2,-3.631591201E-1,-1.084285006E-1
4.473953161E2,-3.026835024E-1,3.234528899E-1,6.548470259E-1
4.478993756E2,9.560033679E-2,-4.121810198E-1,-6.264418364E-1
4.484034348E2,-1.521053314E-1,3.211621642E-1,8.243620396E-1
4.489074939E2,-3.170388341E-1,-3.733910918E-1,-8.083268404E-1
4.494115530E2,3.736965358E-1,-1.774562150E-1,9.624174833E-1
4.499156119E2,-4.092794061E-1,6.505709887E-2,-1.011744738E0
4.504196707E2,1.974620372E-1,-8.536835015E-2,1.094364285E0
4.509237295E2,-6.478220820E-1,-1.754709035E-1,-1.204014540E0
4.514277883E2,4.547888339E-1,-1.200349256E-1,9.870047569E-1
4.519318471E2,-2.719875574E-1,-8.246674389E-2,-8.057306409E-1
4.524359057E2,6.108647794E-4,-8.704823442E-3,8.865175247E-1
4.529399642E2,-1.386663020E-1,-1.047633067E-1,-6.070469022E-1
4.534440225E2,-2.031125315E-2,-1.878409237E-1,2.516762912E-1
4.539480806E2,-5.711585656E-2,-2.079994529E-1,2.535088919E-2
4.544521384E2,-1.261435747E-1,1.102610901E-1,2.719875574E-1
4.549561960E2,3.346011937E-1,-3.634645417E-2,-2.625191510E-1
4.554602535E2,-2.388481349E-1,-4.801397026E-1,1.119409725E-1
4.559643109E2,1.137735620E-1,3.454440236E-1,-7.131846249E-2
4.564683683E2,-1.385135949E-1,-7.376192212E-1,-1.501200199E-1
4.569724258E2,-8.994983882E-2,4.263836145E-1,8.552107215E-2
4.574764834E2,-1.017089859E-1,-5.398517251E-1,-1.039997265E-1
4.579805408E2,-1.928805560E-1,4.213439822E-1,-3.008509055E-2
4.584845980E2,-1.044578776E-1,-5.247328281E-1,-6.261363626E-2
4.589886550E2,-1.844811589E-1,1.936441362E-1,1.079703495E-1
4.594927120E2,1.305723488E-1,-4.540252388E-1,-3.717112243E-1
4.599967688E2,-2.420551628E-1,5.510000587E-1,5.293143392E-1
4.605008257E2,9.193515033E-2,-5.340485573E-1,-4.818195999E-1
4.610048825E2,-1.603520066E-1,2.706131041E-1,1.455385387E-1
4.615089392E2,-2.237292230E-1,-2.551887631E-1,-1.524107605E-1
4.620129956E2,1.108719558E-1,8.124501258E-2,4.920515716E-1
4.625170520E2,-2.196058929E-1,-2.724456787E-1,-3.935496211E-1
4.630211082E2,1.588248461E-2,3.695731983E-2,7.596103549E-1
4.635251644E2,-3.481929302E-1,-8.765909821E-2,-9.511164427E-1
4.640292205E2,2.574795187E-1,2.474002354E-2,1.050687432E0
4.645332765E2,-3.756818473E-1,-7.544180006E-2,-8.524618149E-1
4.650373323E2,3.619373739E-1,-3.692677617E-1,6.382009983E-1
4.655413880E2,1.299614757E-1,-7.895427197E-2,-3.819431961E-1
4.660454435E2,-1.183550507E-1,-2.501491308E-1,3.700313270E-1
4.665494988E2,2.871064469E-2,1.786779463E-1,-3.652971387E-1
4.670535545E2,-1.921169758E-1,-1.414151937E-1,-2.458730713E-2
4.675576102E2,-4.657844082E-2,2.829830945E-1,2.054032832E-1
4.680616659E2,6.643154472E-2,-6.006327868E-1,-4.495964646E-1
4.685657215E2,-3.436114490E-1,4.717403352E-1,4.240928590E-1
4.690697770E2,3.695732057E-1,-7.728966475E-1,-6.588176489E-1
4.695738325E2,-4.361574650E-1,5.238165259E-1,6.385064125E-1
4.700778879E2,4.398226365E-2,-4.312705398E-1,-6.114756465E-1
4.705819432E2,-4.300487936E-1,4.071413875E-1,7.255546451E-1
4.710859985E2,2.151771188E-1,-4.697550237E-1,-9.972367287E-1
4.715900537E2,-4.277580678E-1,3.200931549E-1,1.189659119E0
4.720941089E2,1.705839932E-1,-2.360992432E-1,-1.152854562E0
4.725981642E2,-3.981311321E-1,3.313941509E-2,1.327867270E0
4.731022195E2,-1.136208475E-1,-3.119991720E-1,-1.472031355E0
4.736062748E2,5.177079141E-2,1.562286615E-1,1.541669965E0
4.741103300E2,-1.934914142E-1,-2.101374865E-1,-1.637423038E0
4.746143852E2,-3.145953640E-2,-5.742128938E-2,1.552360177E0
4.751184402E2,-1.634063274E-1,-1.556178033E-1,-1.362686634E0
4.756224951E2,1.996000707E-1,-1.079703495E-1,1.292131782E0
4.761265499E2,-4.796815813E-1,-1.737910360E-1,-8.871283531E-1
4.766306045E2,5.465712547E-1,-8.788816929E-1,4.213439822E-1
4.771346590E2,-3.685041666E-1,3.740019500E-1,-2.115119249E-1
4.776387133E2,2.935205400E-1,-1.792888194E-1,1.343902498E-1
4.781427677E2,-1.886045039E-1,3.387245238E-1,1.067486182E-1
4.786468220E2,-2.118173689E-1,3.834703565E-1,-1.247691289E-1
4.791508764E2,-1.710421443E-1,2.759581506E-1,1.030834317E-1
4.796549307E2,-1.635590494E-1,-4.108065665E-1,-1.893680841E-1
4.801589849E2,-2.061668634E-1,3.454440236E-1,1.252272725E-1
4.806630391E2,3.191768378E-2,-4.379900396E-1,-1.828012913E-1
4.811670932E2,-5.141954422E-1,3.106247485E-1,1.062904745E-1
4.816711472E2,2.771798968E-1,-3.631591201E-1,-2.787070572E-1
4.821752012E2,-1.353065521E-1,2.606865466E-1,5.328267813E-1
4.826792553E2,3.726275265E-2,-5.348120928E-1,-3.304778337E-1
4.831833093E2,-1.913533956E-1,3.779725730E-1,4.361574650E-1
4.836873634E2,-2.403752953E-1,-7.483093441E-2,-5.387827158E-1
4.841914175E2,3.830122054E-1,5.131264031E-2,9.912807941E-1
4.846954716E2,-5.160280466E-1,-9.453132749E-2,-4.631882310E-1
4.851995257E2,4.402807951E-1,-2.871064469E-2,4.896081090E-1
4.857035794E2,-3.608683646E-1,-1.194240674E-1,-7.567087412E-1
4.862076331E2,2.956585586E-1,-1.992946416E-1,5.004509687E-1
4.867116866E2,-1.030834317E-1,3.680460155E-2,-3.643808365E-1
4.872157399E2,-1.908952445E-1,-3.193295598E-1,4.418079555E-1
4.877197930E2,4.306596518E-2,2.724456787E-1,-4.334085584E-1
4.882238460E2,-1.075121984E-1,-6.291907430E-1,1.307250559E-1
4.887278990E2,7.345648855E-2,1.458439678E-1,-3.139844835E-1
4.892319520E2,-2.909243405E-1,-1.893680729E-2,2.828303874E-1
4.897360049E2,-8.109229803E-2,4.318813980E-1,-2.982547283E-1
4.902400577E2,6.643154472E-2,-4.583013058E-1,-1.913533956E-1
4.907441104E2,-4.436405599E-1,1.328630894E-1,6.565269232E-1
4.912481630E2,3.730856776E-1,-6.369792223E-1,-8.190169334E-1
4.917522153E2,-7.006618977E-1,5.291616321E-1,8.119919896E-1
4.922562676E2,2.816086709E-1,-6.803506613E-1,-6.806560755E-1
4.927603197E2,-3.309359848E-1,3.952295184E-1,6.617192626E-1
4.932643716E2,2.167042792E-1,-4.854847789E-1,-6.188060045E-1
4.937684235E2,-1.574503928E-1,2.842048407E-1,7.225003242E-1
4.942724751E2,-1.244636998E-1,-2.713766694E-1,-7.622065544E-1
4.947765266E2,-8.552107215E-2,6.887500733E-2,8.752164841E-1
4.952805779E2,-1.247691289E-1,-2.038761228E-1,-7.486147881E-1
4.957846290E2,2.657261863E-2,-1.496618707E-2,8.501710296E-1
4.962886800E2,-2.730565667E-1,-1.495091617E-1,-8.252783418E-1
4.967927309E2,9.468404204E-2,6.826414168E-2,5.656607747E-1
4.972967816E2,1.288924664E-1,8.034399152E-1,-1.625205755E0
4.978008323E2,1.005941629E0,1.820835233E0,-3.454440236E-1
4.983048827E2,1.627954692E-1,9.010255337E-3,-6.475166976E-2
