"Time (s)","Linear Acceleration x (m/s^2)","Linear Acceleration y (m/s^2)","Linear Acceleration z (m/s^2)"
0.000000000E0,-6.263817549E-1,-5.738651752E-1,-7.119064331E-1
1.625114250E-1,-1.774382591E-1,1.045356750E0,-5.432434082E-1
6.625114250E-1,-3.858226776E0,2.999303818E0,1.696187973E0
1.162511425E0,8.983016968E0,-9.343938828E-1,1.331671238E0
1.662511425E0,-2.755051851E0,3.516344547E0,-1.735431433E0
2.162511425E0,-5.028773308E0,-1.605484486E0,2.229036331E0
2.662511425E0,-1.727323532E0,1.827561855E0,-5.751179457E-1
3.162511425E0,-2.721858501E0,1.210613251E0,3.055526257E0
3.662511425E0,2.026529312E-1,-1.596405983E0,2.311336756E0
4.162511425E0,-2.420441389E0,-1.683044434E-2,2.462358475E0
4.662511425E0,2.233898640E0,-4.042725086E0,1.813528061E0
5.162511425E0,-8.742580414E-1,-2.466899395E0,1.014654279E0
5.662511425E0,3.528769016E0,-2.021810532E0,2.226450920E0
6.162511425E0,-4.117584229E-1,-3.217139244E0,1.427617908E0
6.662511425E0,-1.191284180E0,-7.333731651E-1,4.440195084E0
7.162511425E0,1.436635494E0,-1.125774384E0,1.478562117E0
7.662511425E0,-2.616938114E0,-1.722640991E-1,5.690196514E0
8.162511425E0,1.354889154E0,2.770501614E0,-8.003365993E-1
8.662511425E0,-1.616464138E0,1.837482452E-1,2.821212053E0
9.162511425E0,1.435518742E0,3.395249844E0,1.132528782E-1
9.662511425E0,-3.588542938E-1,-2.063513756E0,7.402880788E-1
1.016251142E1,8.171758652E-1,6.623973846E-1,1.334841490E0
1.066251142E1,1.273422480E0,-2.921468735E0,1.811212659E0
1.116251142E1,5.391545296E-1,-1.801957130E0,2.856813192E0
1.166251142E1,1.117991924E0,-2.510910034E0,1.711686254E0
1.216251142E1,2.598314762E0,-3.629508018E0,1.960796475E0
1.266251142E1,1.305474639E0,3.113460541E-2,5.491746068E-1
1.316251142E1,3.653792381E0,-3.460504532E0,1.009828448E0
1.366251143E1,7.679748535E-1,-2.074597359E0,8.509119153E-1
1.416251143E1,1.224269867E0,-3.830755711E0,2.759364843E0
1.466251143E1,1.478547096E0,-2.944602013E0,5.354366302E-1
1.516251143E1,8.831417561E-1,2.205801010E-1,1.514142275E0
1.566251143E1,-2.766194344E-1,-3.253727913E0,2.195081234E0
1.616251142E1,-1.692754507E0,1.304003239E0,3.217319727E0
1.666251142E1,7.569594383E-1,-4.602680206E-1,1.037712097E-1
1.716251142E1,-2.693779945E0,1.267134190E0,3.366147757E0
1.766251142E1,2.465176582E0,2.041624546E0,-8.081674576E-2
1.816251142E1,-2.693175316E0,2.471017838E-1,1.369887590E0
1.866251142E1,3.196170330E0,3.321779251E0,-1.705414057E-1
1.916251142E1,-2.027077198E0,-6.867923737E-1,9.755398631E-1
1.966251142E1,1.294965029E0,2.984380722E0,-5.296623707E-1
2.016251142E1,-1.175241828E0,-1.650618553E0,3.780313134E-1
2.066251142E1,4.706220627E-1,3.820676804E-1,1.487557650E0
2.116251142E1,-2.276515961E-1,-2.885412216E0,2.305505574E-1
2.166251142E1,1.364873648E0,-3.040828705E0,3.119496346E0
2.216251142E1,-3.440003395E-1,-2.353610039E0,7.830971479E-1
2.266251142E1,2.102739334E0,-3.064679146E0,1.721350908E0
2.316251142E1,2.498399258E0,5.704021454E-1,1.047793984E0
2.366251142E1,9.817271233E-1,-3.506797314E0,1.962996483E0
2.416251142E1,2.803392172E0,3.487548351E0,-1.110356331E0
2.466251142E1,-5.886373520E-1,-1.911067486E0,2.071695328E0
2.516251142E1,2.978742123E-1,-3.389090538E0,7.803145647E-1
2.566251142E1,-3.557329416E0,-1.167291641E0,3.225668430E0
2.616251142E1,2.399737120E0,-7.325754166E-1,1.179952025E0
2.666251142E1,-4.383023262E0,-1.004567623E0,3.192774773E0
2.716251142E1,1.963437796E0,3.156152725E0,-8.873295784E-1
2.766251142E1,-3.139662504E0,-9.433307648E-1,4.157526493E-1
2.816251142E1,2.819957495E0,3.202189922E0,3.158735037E-1
2.866251142E1,-3.219654560E0,-2.174781799E0,-6.305987835E-1
2.916251142E1,1.395092964E0,1.140212059E0,1.680540323E0
2.966251142E1,-7.810597420E-1,-2.261812210E0,7.388091683E-1
3.016251142E1,3.106999397E-2,-1.239058495E0,2.226661444E0
3.066251142E1,-8.466064930E-1,-2.578037262E0,1.302722454E0
3.116251142E1,2.349700928E0,-3.076097488E0,2.277804136E0
3.166251142E1,7.478134632E-1,-2.032215118E0,1.767052650E0
3.216251143E1,6.095179558E0,-1.638811111E0,1.653641701E0
3.266251143E1,1.343250275E-2,-1.618146896E-1,-9.107779264E-1
3.316251143E1,2.190326691E0,-2.577179909E0,1.784476399E0
3.366251143E1,1.965043068E0,2.049137115E0,-7.711166143E-1
3.416251143E1,3.360080719E-1,-1.344896317E0,1.935598373E0
3.466251143E1,2.882643700E0,3.362123013E0,-4.153380394E-1
3.516251143E1,-1.182463169E0,-1.873958588E0,1.866921425E0
3.566251143E1,3.175503731E0,2.281727791E0,4.538611174E-1
3.616251143E1,-3.160179138E0,-3.424657822E0,4.139222622E0
3.666251143E1,2.706683636E0,9.249925613E-1,1.137081146E0
3.716251143E1,-3.836863041E0,-2.074722290E0,3.958716154E0
3.766251143E1,2.861527443E0,2.795342445E0,-6.295967102E-1
3.816251143E1,-2.766455889E0,-2.806487083E-1,1.984148502E0
3.866251143E1,2.572588444E0,3.988295078E0,-1.024324179E0
3.916251143E1,-6.106023788E-1,-7.187557220E-2,1.226237774E0
3.966251143E1,7.434813976E-1,3.407763481E0,-9.789140224E-1
4.016251143E1,-1.049002171E0,-2.479856491E0,1.062531233E0
4.066251143E1,-1.137693644E0,9.033546448E-1,1.349301696E0
4.116251143E1,-7.394793034E-1,-3.090108871E0,2.375735760E0
4.166251143E1,-1.371511936E0,-5.427217484E-1,2.496982813E0
4.216251143E1,2.880234718E-1,-3.472150803E0,2.036915541E0
4.266251143E1,-1.485962868E-1,-1.919425011E0,3.417638302E0
4.316251143E1,3.570070267E-1,-3.222542763E0,1.505206823E0
4.366251143E1,2.393375874E0,-3.570385933E0,3.526013136E0
4.416251143E1,9.428939819E-1,-1.338326454E0,5.873365402E-1
4.466251143E1,2.827494621E0,-3.494670868E0,1.589399099E0
4.516251143E1,2.540117264E0,-9.646034241E-2,5.837594271E-1
4.566251143E1,2.150055408E0,-3.696574211E0,2.228424311E0
4.616251143E1,1.491014242E0,1.980291367E0,-2.459292412E-1
4.666251143E1,9.967846870E-1,-1.000822067E0,1.748826861E0
4.716251143E1,1.486048222E0,3.661126614E0,-7.929077148E-1
4.766251143E1,-1.797580719E-1,2.391738892E-1,3.269286156E0
4.816251143E1,1.267946720E0,2.697430134E0,-3.083666563E-1
4.866251143E1,-2.870378494E0,-1.863298416E-1,3.638784170E0
4.916251143E1,1.523768425E0,7.227983475E-1,1.017037511E0
4.966251143E1,-1.986588717E0,1.223945618E0,3.700206518E0
5.016251143E1,1.718381405E0,2.894721985E0,-2.790439129E-1
5.066251143E1,-1.398592949E0,6.720428467E-1,2.775995731E0
5.116251143E1,1.892668247E0,3.754277706E0,3.824052811E-1
5.166251143E1,-1.078069210E0,-7.620134354E-1,4.547523856E-1
5.216251143E1,1.711977243E0,2.340768337E0,4.437031746E-1
5.266251143E1,1.458868265E0,-2.113683701E0,1.924633503E0
5.316251143E1,3.344446421E-1,5.192375183E-1,1.916806221E0
5.366251143E1,1.746850014E0,-2.197498322E0,7.064022422E-1
5.416251143E1,1.641285539E0,-1.770218849E0,2.605703115E0
5.466251143E1,-1.293270588E-1,-1.749456406E0,1.479010582E0
5.516251143E1,2.358414173E0,-3.027002335E0,6.417944431E-1
5.566251143E1,9.647841454E-1,1.013697147E0,-7.216978073E-2
5.616251143E1,3.650526285E0,-1.760367393E0,1.205422044E0
5.666251143E1,1.221462607E0,3.093314648E0,-1.055662036E0
5.716251143E1,2.236240387E0,-2.870655060E-2,3.304901838E0
5.766251143E1,2.065820694E0,3.901229858E0,-1.107821584E0
5.816251143E1,-6.719698906E-1,3.260912895E-1,2.926006556E0
5.866251143E1,3.570384979E-1,2.142405033E0,-2.496597767E-1
5.916251143E1,-9.288516045E-1,9.797949791E-1,3.921762943E0
5.966251143E1,8.808906078E-1,8.700742722E-1,9.791191220E-1
6.016251143E1,-9.549849033E-1,2.258012772E0,2.249665022E0
6.066251143E1,1.157952309E0,-1.411734581E0,1.509820104E0
6.116251143E1,-1.390649438E0,6.444129944E-1,1.123471260E0
6.166251143E1,1.609443426E0,3.426976681E0,-1.647240877E0
6.216251143E1,-9.316695929E-1,-8.355951309E-1,2.584456205E-1
6.266251143E1,4.716552496E-1,2.359373093E0,-2.653549910E-1
6.316251143E1,-1.116933584E0,-2.264772415E0,2.062423229E0
6.366251143E1,3.768355846E-1,6.719589233E-3,2.034935951E-1
6.416251142E1,-1.154105663E-1,-2.853835106E0,1.059812188E0
6.466251142E1,1.545352936E0,-1.075278282E0,9.380331039E-1
6.516251142E1,9.188840389E-1,-2.408241272E0,-5.601735115E-1
6.566251142E1,1.990105391E0,-2.787451744E0,1.620594621E0
6.616251142E1,1.298314571E0,-1.457734108E0,-5.154249668E-1
6.666251142E1,2.075050354E0,-2.889663696E0,1.525406718E0
6.716251142E1,1.709846497E0,4.489393234E-1,3.309396505E-1
6.766251142E1,1.521055222E0,-2.632654190E0,1.230220556E0
6.816251142E1,1.293946981E0,2.854935169E0,-1.311409831E0
6.866251142E1,2.055326462E0,-1.006533623E0,6.326567531E-1
6.916251142E1,-3.199365139E-1,2.691924572E0,-4.749795198E-1
6.966251142E1,1.465045452E0,5.086407661E-1,1.217558146E0
7.016251142E1,3.600275517E-1,3.400262356E0,-1.441935420E0
7.066251142E1,6.907606125E-2,1.823850155E0,2.402896404E0
7.116251142E1,-3.564249277E-1,2.514386654E0,-4.668299556E-1
7.166251142E1,3.112001419E-1,9.621987343E-1,2.754218578E0
7.216251142E1,6.021703482E-1,2.600325584E0,-6.001046300E-1
7.266251142E1,-1.345617533E0,2.120018959E0,3.584429264E0
7.316251142E1,-4.516577721E-2,2.262535095E-1,1.228929043E0
7.366251142E1,-1.408133626E0,2.053843975E0,2.680953741E0
7.416251142E1,5.918576717E-1,3.036322117E0,-1.686655283E0
7.466251142E1,-1.428802371E0,7.318391800E-1,8.059213161E-1
7.516251142E1,-3.107116222E-1,3.312041283E0,-2.331665039E0
7.566251142E1,-3.280096054E-1,-2.768799782E0,4.074126482E-2
7.616251142E1,-7.796466351E-1,-1.320527077E0,1.575016856E0
7.666251142E1,7.406733036E-1,-2.536433220E0,7.944023609E-1
7.716251142E1,1.684348822E0,-2.452702522E0,2.601080418E0
7.766251142E1,4.932441711E-1,-1.880046844E0,7.090870738E-1
7.816251142E1,2.320053101E0,-2.219526291E0,1.521781087E0
7.866251142E1,1.242778540E0,-3.346910477E-1,1.868915558E-1
7.916251142E1,2.008641720E0,-2.863101959E0,1.686762810E0
7.966251142E1,1.114410162E0,1.327477932E0,-1.058548927E0
8.016251142E1,1.111772537E0,-2.784793854E0,9.162467718E-1
8.066251142E1,2.102292299E0,2.527827740E0,5.293095112E-2
8.116251142E1,1.777548313E0,-1.772827148E0,1.144376278E0
8.166251142E1,1.511075974E0,3.537344933E0,-2.772874832E-1
8.216251142E1,4.615926743E-1,-3.007001877E-1,1.391382933E0
8.266251142E1,1.913208723E0,2.935921669E0,-4.846686125E-1
8.316251142E1,9.698581696E-2,-5.843582153E-1,2.317815781E0
8.366251142E1,1.594584703E0,3.238957882E0,-1.174279809E0
8.416251142E1,-2.104746580E0,1.297817230E-1,1.890530944E0
8.466251142E1,1.110813737E0,1.048952103E0,1.069091320E0
8.516251142E1,-1.693107605E0,1.141502857E0,4.120289326E0
8.566251142E1,1.311450720E0,2.549876690E0,-1.018775702E0
8.616251142E1,-8.351643085E-1,7.221736908E-1,2.631791592E0
8.666251142E1,1.992905617E0,2.942558765E0,-5.972948074E-1
8.716251142E1,-2.770017147E0,-6.372575760E-1,5.840477943E-1
8.766251142E1,1.451877117E0,3.057869434E0,-7.870912552E-3
8.816251142E1,-3.666367531E-1,-1.353806496E0,8.412029147E-1
8.866251142E1,6.860421896E-1,2.006597042E0,-1.086856842E0
8.916251142E1,-3.121259212E-1,-2.025521278E0,1.475706816E0
8.966251142E1,1.205458641E0,7.483720779E-1,-3.476144075E-1
9.016251142E1,-7.172263861E-1,-2.555098534E0,2.922506332E-1
9.066251142E1,2.221708298E-1,-2.638597488E-1,7.258423567E-1
9.116251142E1,-2.848355770E-1,-2.764101982E0,-4.179806709E-1
9.166251142E1,1.304434061E0,-1.987281799E0,2.101638794E0
9.216251142E1,1.707927942E0,-2.038431168E0,7.954540849E-1
9.266251142E1,1.342881203E0,-3.195739746E0,1.761650920E0
9.316251142E1,9.047520161E-1,-6.040763855E-1,2.970910072E-2
9.366251142E1,1.858792782E0,-2.542414665E0,2.350394130E-1
9.416251142E1,1.304225206E0,1.556509972E0,-1.072705865E0
9.466251142E1,6.721339226E-1,-1.170792580E0,1.016986966E0
9.516251142E1,2.005238533E0,3.800178051E0,-1.667224526E0
9.566251142E1,2.222852707E-1,-6.111917496E-1,8.969411850E-1
9.616251142E1,3.391027451E-2,1.946229458E0,4.020267129E-1
9.666251142E1,-2.113389492E0,2.000027657E0,2.834601164E0
9.716251142E1,4.688413143E-1,-8.677005768E-2,1.353224277E0
9.766251142E1,-1.483352900E0,1.312106609E0,1.889924765E0
9.816251142E1,3.269140720E-1,3.283855915E0,-1.775705099E0
9.866251142E1,-1.928711772E0,-6.708717346E-1,1.309318900E0
9.916251142E1,3.264403343E-1,2.432918072E0,-5.462360978E-1
9.966251142E1,-1.544044256E0,-2.425555229E0,9.529662132E-2
1.001625114E2,4.648618698E-1,7.473754883E-2,1.568047762E0
1.006625114E2,-7.772772312E-1,-3.032714844E0,1.677786112E0
1.011625114E2,1.303668737E0,-1.588095665E0,2.198009491E0
1.016625114E2,5.280232430E-2,-1.778746605E0,1.176024079E0
1.021625114E2,1.511445522E0,-3.044517517E0,1.755339384E0
1.026625114E2,8.016014099E-1,3.598499298E-1,5.587981939E-1
1.031625114E2,1.420594692E0,-2.507789612E0,6.969628334E-1
1.036625114E2,1.731321096E0,2.139813900E0,-3.362357616E-1
1.041625114E2,-3.560814857E-1,-1.195433617E0,1.109067440E0
1.046625114E2,2.019981146E0,3.338487148E0,-1.146190763E0
1.051625114E2,-7.666859627E-1,-7.572078705E-2,2.078314304E0
1.056625114E2,1.595472693E0,3.106760025E0,-9.993698597E-1
1.061625114E2,-2.692485094E0,-5.332636833E-1,2.750992775E0
1.066625114E2,1.150923491E0,4.611949921E-1,1.663899541E0
1.071625114E2,-3.626581907E0,-1.646032333E-1,3.468334675E0
1.076625114E2,7.014670372E-1,-2.040910721E0,2.471868992E0
1.081625114E2,-1.322372794E0,5.093345642E-1,1.870993972E0
1.086625114E2,9.573843479E-1,-2.990688324E0,2.184978485E0
1.091625114E2,-1.811085224E0,-7.827501297E-1,7.067837715E-1
1.096625114E2,1.731837273E0,-3.088465691E0,2.006109238E0
1.101625114E2,-1.587339520E0,-1.953982353E0,7.324314117E-1
1.106625114E2,1.319562912E0,2.058744431E-1,1.398065090E0
1.111625114E2,-9.849550724E-1,-2.668704987E0,-3.893214464E-1
1.116625114E2,1.786070585E0,-2.159376144E0,3.096392632E0
1.121625114E2,8.027708530E-1,-2.061550140E0,3.796284497E-1
1.126625114E2,1.568008661E0,-2.378639221E0,2.897541761E0
1.131625114E2,1.478934526E0,-1.394174576E0,7.452367544E-1
1.136625114E2,1.833523512E0,-3.658915520E0,3.223036528E0
1.141625114E2,2.636900425E0,2.543525696E-1,1.107141495E0
1.146625114E2,1.431017876E0,-2.805172920E0,2.385687113E0
1.151625114E2,2.633204937E0,1.474574566E0,1.268689871E0
1.156625114E2,8.702535629E-1,-2.700614452E0,2.230337858E0
1.161625114E2,3.158164740E0,2.785594463E0,-5.512495041E-1
1.166625114E2,2.720284462E-1,-9.633512497E-1,1.701308250E0
1.171625114E2,6.973419189E-1,3.045764446E0,-5.527480841E-1
1.176625114E2,2.053766251E-1,1.235862732E0,2.093206167E0
1.181625114E2,-3.403950930E-1,2.569676876E0,-5.747087002E-1
1.186625114E2,-1.369704127E0,8.189554214E-1,2.733729362E0
1.191625114E2,-2.028403282E-1,1.604124069E0,1.198603436E-1
1.196625114E2,-1.126219034E-1,1.836905956E0,2.082479954E0
1.201625114E2,-9.529944658E-1,1.108602524E0,8.351140022E-1
1.206625114E2,-1.349980712E0,1.964739799E0,9.005666375E-1
1.211625114E2,-4.057350159E-1,-1.380302429E0,1.221410632E0
1.216625114E2,-4.235478640E-1,1.383068085E0,8.259691596E-1
1.221625114E2,5.684533119E-1,-2.079778671E0,1.368030310E0
1.226625114E2,-7.093261480E-1,7.802619934E-1,8.448073268E-1
1.231625114E2,-2.530591488E-1,2.551697254E0,-1.669391274E0
1.236625114E2,-9.226629734E-1,-9.778137207E-1,-1.490226984E-1
1.241625114E2,-9.408167601E-1,1.877165318E0,-6.185253263E-1
1.246625114E2,-1.191214919E0,-1.605634689E0,9.173017740E-1
1.251625114E2,-4.360232353E-1,3.115358353E-1,5.880907774E-1
1.256625114E2,7.701718807E-1,-2.435265541E0,1.863392830E0
1.261625114E2,8.989355564E-1,-1.425303459E0,-8.149092793E-1
1.266625114E2,1.828050613E-1,-1.600280762E0,-3.969295025E-1
1.271625114E2,2.130238771E0,-7.325267792E-1,5.636382103E-2
1.276625114E2,2.935965061E-1,3.861227036E-1,-1.482823253E0
1.281625114E2,2.257344723E0,-2.505912781E0,7.453459501E-2
1.286625114E2,8.129739761E-1,2.714371681E0,-1.910066962E0
1.291625114E2,4.063391685E-1,-9.275922775E-1,1.165572643E0
1.296625114E2,1.307973027E0,3.235157967E0,-1.304218650E0
1.301625114E2,-1.587525368E0,-6.328902245E-1,1.865279675E0
1.306625114E2,9.689388275E-1,3.148641109E0,-1.425354481E0
1.311625114E2,-2.290206194E0,-3.241968155E-2,1.493554115E0
1.316625114E2,3.067026138E-1,2.602262020E0,-2.091538906E-2
1.321625114E2,-2.859471560E0,-9.431362152E-2,1.538854599E0
1.326625114E2,1.107851028E0,4.698085785E-1,9.990192056E-1
1.331625114E2,-4.079580307E0,-9.059758186E-1,2.075411797E0
1.336625114E2,7.215766907E-1,-6.180200577E-1,1.945645332E0
1.341625114E2,-3.791057348E0,-4.713845253E-1,1.388524532E0
1.346625114E2,1.867326498E0,3.546555519E0,-1.170769572E0
1.351625114E2,-2.770400524E0,-7.838315964E-1,5.368459225E-2
1.356625114E2,1.089558601E0,3.102022648E0,-7.475663424E-1
1.361625114E2,-1.740075827E0,-1.129861832E0,-5.648424029E-1
1.366625114E2,8.420958519E-1,1.890015125E0,5.133340359E-1
1.371625114E2,-1.685172319E0,-1.875288010E0,2.402715385E-1
1.376625114E2,7.395238876E-1,9.361515045E-1,5.106692314E-1
1.381625114E2,-1.407191515E0,-2.687731743E0,-5.179247856E-1
1.386625114E2,8.927712440E-1,-5.770826340E-1,1.648287892E0
1.391625114E2,-4.181809425E-1,-3.659457207E0,4.450174570E-1
1.396625114E2,1.305598259E0,-7.883176804E-1,1.387943387E0
1.401625114E2,-5.716371536E-2,-2.817094803E0,-5.985774398E-1
1.406625114E2,1.578169823E0,-2.399276733E0,9.165203571E-1
1.411625114E2,1.422238350E0,-7.329473495E-1,4.602318406E-1
1.416625114E2,2.731048107E0,-2.137443542E0,2.092888117E0
1.421625114E2,1.440489531E0,1.238647461E0,5.824515820E-1
1.426625114E2,2.012779236E0,-1.901636124E0,8.862295151E-1
1.431625114E2,2.583807468E0,2.670162201E0,-6.655359268E-1
1.436625114E2,4.912323952E-1,-1.582556248E0,1.295457125E0
1.441625114E2,2.823328018E0,3.285680771E0,-1.343177438E0
1.446625114E2,-1.249211311E0,-9.410562515E-1,2.767250538E0
1.451625114E2,2.120424747E0,2.977719784E0,-8.323590755E-1
1.456625114E2,-2.732140303E0,-6.079502106E-1,2.228405237E0
1.461625114E2,2.019359112E0,1.226389885E0,-2.097434402E-1
1.466625114E2,-3.710383415E0,-4.088139534E-1,2.732609987E0
1.471625114E2,1.909954548E0,2.070515156E0,-1.256053329E0
1.476625114E2,-3.841355085E0,3.103103638E-1,2.645729780E0
1.481625114E2,1.487699509E0,2.129996300E0,-1.407423019E-1
1.486625114E2,-3.517774820E0,-6.413288116E-1,1.697434425E0
1.491625114E2,2.106915236E0,3.077329636E0,-1.322053909E0
1.496625114E2,-3.198061705E0,-9.362506866E-1,1.627751350E0
1.501625114E2,2.427852154E0,3.451928616E0,-2.136475801E0
1.506625114E2,-1.699137688E0,4.886617661E-1,3.269153833E0
1.511625114E2,3.285224915E0,2.764258862E0,-1.069489717E0
1.516625114E2,-3.710870028E0,-6.489763260E-1,2.238618851E0
1.521625114E2,1.949401855E0,3.720453739E0,-1.182812929E0
1.526625114E2,-2.577295780E0,-7.518186569E-1,1.643249750E0
1.531625114E2,1.292383909E0,3.677361012E0,-1.542158246E0
1.536625114E2,-2.177818537E0,-1.105707169E0,1.374701381E0
1.541625114E2,1.881700993E0,3.790856838E0,-5.449029207E-1
1.546625114E2,-2.456069708E0,-6.069784164E-1,3.394392431E-1
1.551625114E2,3.764438629E-1,3.363376141E0,-9.096198678E-1
1.556625114E2,-1.902561903E0,-1.588696480E0,7.650843859E-1
1.561625114E2,2.876474857E-1,2.952713966E0,-1.180539489E0
1.566625114E2,-2.008060694E0,-1.471791267E0,-6.431061029E-2
1.571625114E2,5.515391827E-1,2.191951752E0,-6.779549122E-1
1.576625114E2,-1.994308233E0,-2.603745461E0,-2.193149030E-1
1.581625114E2,9.184522629E-1,8.689413071E-1,-3.502976894E-1
1.586625114E2,-2.128244162E0,-2.408053398E0,1.261366606E0
1.591625114E2,2.302861214E-2,6.193094254E-1,1.456815243E0
1.596625114E2,-2.713665724E0,1.075143337E0,2.390432358E0
1.601625114E2,8.486430645E-1,-1.254475594E0,2.867988110E0
1.606625114E2,-3.033315420E0,-9.358859062E-1,2.934473038E0
1.611625114E2,1.512720585E0,-2.817489624E0,2.635075331E0
1.616625114E2,-2.550525427E0,-1.606113911E0,1.429569006E0
1.621625114E2,2.189440727E0,-2.812493324E0,2.631289959E0
1.626625114E2,-2.323578596E0,-9.315490723E-1,6.579200029E-1
1.631625114E2,2.359371662E0,-2.975982189E0,1.816116452E0
1.636625114E2,-9.937055111E-1,-1.841862679E0,1.045280099E0
1.641625114E2,1.444563866E0,-2.322679520E0,1.886338115E0
1.646625114E2,-6.025578976E-1,-1.988797188E0,1.247293472E0
1.651625114E2,9.612774849E-1,-1.954018593E0,1.824070215E0
1.656625114E2,2.729637623E-1,-2.189462662E0,7.440227270E-1
1.661625114E2,1.155194283E0,-1.884593010E0,6.239506006E-1
1.666625114E2,2.092723846E-1,-4.525275230E0,1.827419758E0
1.671625114E2,-2.259471655E0,1.728655815E0,-4.569345713E-1
1.676625114E2,-5.575487614E-1,3.760105610E0,-2.160442829E0
1.681625114E2,-1.229611158E0,-1.734783173E0,-8.687300682E-1
1.686625114E2,-2.988026142E-1,2.582845688E-1,8.661110997E-1
1.691625114E2,-1.112766266E0,-2.698759079E0,1.024864435E0
1.696625114E2,1.630057812E0,-1.728602409E0,7.729212046E-1
1.701625114E2,7.430939674E-1,-1.416841507E0,3.482954502E-1
1.706625114E2,2.742550850E0,-2.924995422E0,1.866833448E0
1.711625114E2,2.018623829E0,-8.941936493E-2,1.087145448E0
1.716625114E2,1.557529449E0,-2.804654598E0,1.687250614E0
1.721625114E2,-1.822960377E0,-1.900709152E0,3.769646883E-1
1.726625114E2,-2.533526421E-1,-3.146337509E0,9.469289780E-1
1.731625114E2,-1.784284115E-1,-2.675957680E0,7.022895813E-1
1.736625114E2,-1.639931202E0,-2.079266548E0,1.219567060E0
1.741625114E2,1.080979824E0,-1.470944405E0,1.709593773E0
1.746625114E2,-2.899262667E0,-9.731717110E-1,1.929518461E0
1.751625114E2,1.369511127E0,-8.527212143E-1,1.621271849E0
1.756625114E2,-3.348781347E0,-1.009255409E0,3.677095175E0
1.761625114E2,1.074290037E0,8.231649399E-1,2.344911098E-1
1.766625114E2,-3.274202108E0,-1.385361195E0,1.362474442E0
1.771625114E2,2.312879562E-1,-1.757036209E0,1.119619370E0
1.776625114E2,1.059537411E0,-1.063317299E0,1.367715359E0
1.781625114E2,-1.593446493E0,-1.882123947E0,5.701708794E-1
1.786625114E2,6.556873322E-1,-1.280146599E0,1.586067677E0
1.791625114E2,-8.884618282E-1,-2.507333755E-1,2.668458223E-1
1.796625114E2,2.256351471E0,9.917974472E-2,2.370404243E0
1.801625114E2,-4.085330963E0,-1.197009087E0,5.707055330E-1
1.806625114E2,1.641117096E0,-3.738517761E0,2.556745529E0
1.811625114E2,-3.010703802E0,-3.051340103E0,-7.905831933E-1
1.816625114E2,9.018034935E-1,-2.429738998E0,1.980391741E0
1.821625114E2,-1.420183420E0,-2.480933189E0,4.772225022E-1
1.826625114E2,-9.580202103E-1,-1.487697601E0,1.340776801E0
1.831625114E2,-1.103728056E0,-2.045187950E0,7.323771715E-2
1.836625114E2,-1.965469360E0,-3.168214798E0,1.398776174E0
1.841625114E2,-8.404176235E-1,-2.989629745E0,2.068606019E-1
1.846625114E2,1.205909491E0,-1.122021675E0,1.832647085E0
1.851625114E2,1.120211720E0,1.423425674E-1,-1.260880828E-1
1.856625114E2,6.806335449E-1,1.865951061E0,-2.073668242E-1
1.861625114E2,-2.369959593E0,2.215690613E-1,3.890223503E-1
1.866625114E2,4.337529182E0,3.357791901E0,-1.359704733E0
1.871625114E2,-4.440866947E0,-4.276428223E-1,-2.347174883E-1
1.876625114E2,3.957987785E0,2.464082718E0,1.337419033E0
1.881625114E2,-4.887999535E0,-2.892816067E0,2.722174227E-1
1.886625114E2,3.370623589E-1,4.565029144E0,-3.290072680E-1
1.891625114E2,-1.993120670E0,-9.279994965E-1,7.824395895E-1
1.896625114E2,2.540521622E-1,2.113657951E0,1.621335626E0
1.901625114E2,-7.508275509E-1,-2.106769562E0,1.198072195E0
1.906625114E2,1.805860996E0,-1.523457527E0,1.767809749E0
1.911625114E2,5.992937088E-2,-1.177557945E0,4.511325359E-1
1.916625114E2,2.076416492E0,-2.943053246E0,1.028474689E0
1.921625114E2,1.672811985E0,8.673715591E-1,-4.702742100E-1
1.926625114E2,1.181995869E0,-2.218669891E0,1.265673161E0
1.931625114E2,2.963684320E0,1.790506363E0,-8.141098022E-1
1.936625114E2,1.147499084E0,-1.251071930E0,4.419994056E-1
1.941625114E2,1.156113863E0,1.799366951E0,-1.986907363E0
1.946625114E2,-2.091703415E-1,-8.620738983E-1,2.743136406E0
1.951625114E2,1.659171820E0,2.634250641E0,-6.063132286E-1
1.956625114E2,-2.564628363E0,-3.221225739E-2,2.207324505E0
1.961625114E2,1.553527355E0,1.711478233E0,-9.087417126E-1
1.966625114E2,-3.759702444E0,2.408542633E-1,1.838814378E0
1.971625114E2,2.837239504E0,3.150500298E0,-1.666903377E0
1.976625114E2,-3.136254311E0,2.893447876E-3,1.073921204E0
1.981625114E2,3.921130180E0,3.426518917E0,-3.169386387E-1
1.986625114E2,-3.286484718E0,-1.239375114E0,-3.036985993E-1
1.991625114E2,1.947071314E0,3.299568653E0,-6.850617528E-1
1.996625114E2,-1.304522991E0,-2.328169823E0,1.248225808E0
2.001625114E2,6.181168556E-1,-8.109178543E-1,2.238883495E0
2.006625114E2,-7.968053818E-1,-2.735644341E0,2.171303749E0
2.011625114E2,2.124906301E0,-1.385327339E0,2.481435299E0
2.016625114E2,-4.922986031E-1,-2.231970787E0,7.949979901E-1
2.021625114E2,3.190631390E0,-1.779495239E0,1.366781950E0
2.026625114E2,5.363595486E-1,4.709672928E-1,5.582183599E-1
2.031625114E2,2.645750523E0,-1.512953758E0,9.322694540E-1
2.036625114E2,2.960088491E0,2.350835323E0,2.859628201E-1
2.041625114E2,3.895463943E-1,-1.927309513E0,1.970587373E0
2.046625114E2,2.275272846E0,3.124488354E0,3.364560604E-1
2.051625114E2,-2.393870354E0,-6.394543648E-1,2.331273079E0
2.056625114E2,1.844548702E0,2.391371250E0,2.443124354E-1
2.061625114E2,-3.251613140E0,1.435791016E0,4.399675846E0
2.066625114E2,1.022315502E0,-2.866364479E0,2.899023294E0
2.071625114E2,-1.807657003E0,-5.168809891E-1,7.625609040E-1
2.076625114E2,3.459953785E0,-3.170203209E0,2.704303026E0
2.081625114E2,-1.464165688E0,-3.275016785E0,1.580748081E0
2.086625114E2,1.689307690E0,-1.627258301E0,2.363649845E0
2.091625114E2,7.946062088E-1,-2.689161301E0,1.529669642E0
2.096625114E2,1.422280788E0,-2.563868523E0,2.156946421E0
2.101625114E2,1.310016632E0,7.261552811E-1,1.707873940E0
2.106625114E2,1.123878956E0,-2.412077904E0,1.877262235E0
2.111625114E2,1.332242012E0,2.847889900E0,-1.873600483E-1
2.116625114E2,1.443182945E0,4.851479530E-1,3.160772324E0
2.121625114E2,4.940028667E0,1.744459629E0,1.667497039E0
2.126625114E2,-2.582515955E0,-2.599964142E-1,3.117718935E0
2.131625114E2,2.144737482E0,-2.317760468E0,3.144735813E0
2.136625114E2,-1.161960602E0,-2.249222755E0,3.368216157E-1
2.141625114E2,-1.403599262E0,1.992812634E0,2.715063572E0
2.146625114E2,-5.935813785E-1,1.944278240E0,-2.026427984E-1
2.151625114E2,-1.198212981E0,-2.212696075E-1,-1.566093266E-1
2.156625114E2,6.972337961E-1,2.567937851E0,-3.974131346E-1
2.161625114E2,-1.242041349E0,-3.501218796E0,4.487162232E-1
2.166625114E2,1.294812202E0,-5.893907547E-1,1.294560909E0
2.171625114E2,1.115201116E0,-1.298622131E0,2.034361959E-1
2.176625114E2,1.058420658E0,-3.432495117E0,1.106148243E0
2.181625114E2,1.480518818E0,2.018522739E0,-3.385521173E-1
2.186625114E2,1.052790165E0,-1.881739616E0,8.258209229E-1
2.191625114E2,2.276254177E0,4.232839584E0,-2.870358229E0
2.196625114E2,-1.559050083E-1,1.120234966E0,2.997769833E0
2.201625114E2,2.590391636E-1,3.501839161E0,-1.510795593E0
2.206625114E2,-1.460213184E0,2.836779118E0,3.772690773E0
2.211625114E2,5.814368725E-1,2.866134167E0,-2.231359005E0
2.216625114E2,-2.719933987E0,8.499498367E-1,1.193199039E0
2.221625114E2,3.492362976E0,4.551361084E0,-6.467415094E-1
2.226625114E2,-1.177674055E0,-1.005550385E0,1.531620026E-1
2.231625114E2,4.123834133E0,3.152018070E0,-8.455943465E-1
2.236625114E2,-1.169792175E0,-2.122065544E0,9.552187324E-1
2.241625114E2,1.030519724E0,-4.200296402E-1,5.162476301E-1
2.246625114E2,3.380181789E-1,-2.878150940E0,9.062314034E-1
2.251625114E2,1.775689840E0,-1.339480400E0,1.980593920E0
2.256625114E2,1.959576607E-1,-2.399733543E0,6.682568789E-1
2.261625114E2,2.093002319E0,-1.883378983E0,1.485599279E0
2.266625114E2,1.524183035E0,-1.929872513E0,1.319697499E0
2.271625114E2,2.423337936E0,-2.563021660E0,8.193032742E-1
2.276625114E2,2.243711948E0,7.416582108E-1,7.399045229E-1
2.281625114E2,2.156111240E0,-2.549384117E0,4.126201868E-1
2.286625114E2,7.948164940E-1,1.075915813E0,-5.788120031E-1
2.291625114E2,2.897494793E0,-1.889353752E0,7.462857962E-1
2.296625114E2,8.888044357E-1,1.643483639E0,-7.082560062E-1
2.301625114E2,3.046377420E0,-1.875009537E-1,3.005629182E-1
2.306625114E2,5.561494827E-2,2.132153988E0,-9.274909496E-1
2.311625114E2,1.442577362E0,-1.358737946E-1,1.544263363E0
2.316625114E2,5.670797825E-1,3.263576984E0,-1.109079480E0
2.321625114E2,-8.045830727E-1,-6.620898247E-1,2.134162903E0
2.326625114E2,5.199792385E-1,2.656822681E0,8.517813683E-2
2.331625114E2,-2.208709717E0,6.570782661E-1,1.225584269E0
2.336625114E2,-5.257720947E-1,1.816148758E-1,-1.632875204E0
2.341625114E2,-2.499610424E0,6.200098991E-1,2.642680883E0
2.346625114E2,5.528464317E-1,1.139233589E0,-2.614064217E-1
2.351625114E2,-2.869782686E0,3.893752098E-1,7.980951071E-1
2.356625114E2,1.472560167E0,2.999932289E0,5.784381032E-1
2.361625114E2,-2.702625036E0,-8.728771210E-1,9.151178002E-1
2.366625114E2,6.562747955E-1,2.402510166E0,4.191705585E-1
2.371625114E2,-2.503807545E0,-2.800107002E0,1.034355462E-1
2.376625114E2,2.579109669E-1,5.774507523E-1,2.474095583E0
2.381625114E2,-1.832977295E0,-3.619619370E0,1.255558491E0
2.386625114E2,1.741576672E0,-2.145481110E0,3.196493626E0
2.391625114E2,1.913895607E-1,-2.158020020E0,1.509020925E0
2.396625114E2,3.090456247E0,-1.841488838E0,7.922483683E-1
2.401625114E2,3.871606588E-1,9.082794189E-3,3.488094807E-1
2.406625114E2,2.769057751E-1,-2.860858917E0,9.176200032E-1
2.411625114E2,7.591803074E-1,2.218727112E0,-5.577071905E-1
2.416625114E2,-1.077184677E-1,-1.659847260E0,7.082731724E-1
2.421625114E2,9.948872328E-1,3.955844879E0,-1.034911394E0
2.426625114E2,-5.864453316E-2,1.631124020E0,2.351631165E0
2.431625114E2,-2.617378831E-1,2.358006477E0,4.106494784E-1
2.436625114E2,-1.750409007E0,2.696613789E0,1.934528470E0
2.441625114E2,-7.780945301E-2,-8.369588852E-1,2.100296497E0
2.446625114E2,-2.137590408E0,1.253403664E0,1.372946858E0
2.451625114E2,2.869320393E0,-2.098737717E0,9.836270213E-1
2.456625114E2,3.541996479E-1,-2.679796219E-1,1.350694537E0
2.461625114E2,7.681453228E-2,2.190726280E0,3.956322968E-1
2.466625114E2,-9.699757099E-1,-3.049119949E0,1.517307162E0
2.471625114E2,7.303152084E-1,-3.629302979E-1,6.059878469E-1
2.476625114E2,2.940003872E-1,-2.706674576E0,7.206717730E-1
2.481625114E2,1.164618015E0,-2.812951088E0,1.807665110E0
2.486625114E2,3.529601097E-1,-1.140665054E0,-2.687830925E-1
2.491625114E2,2.591526031E0,-2.342424393E0,7.371554971E-1
2.496625114E2,1.162624359E-1,9.009809494E-1,-1.685945868E0
2.501625114E2,1.598344088E0,-1.950937271E0,3.768748641E-1
2.506625114E2,1.173936725E0,2.823342800E0,-2.586328030E0
2.511625114E2,2.618775368E-1,-4.282751083E-1,7.000827789E-1
2.516625114E2,3.120296001E-1,2.591567993E0,-1.116539001E0
2.521625114E2,-2.298955679E0,1.378481388E0,2.239200115E0
2.526625114E2,5.433452129E-1,1.394014359E-1,7.357839942E-1
2.531625114E2,-2.591314554E0,9.801983833E-1,2.142619371E0
2.536625114E2,6.797566414E-1,-1.808766365E0,1.466252804E0
2.541625114E2,-1.826394558E0,1.668586731E-1,-4.322224855E-2
2.546625114E2,1.537182808E0,-2.428675652E0,7.236756086E-1
2.551625114E2,-1.087805033E0,-1.459007263E0,-1.038540751E-1
2.556625114E2,4.219112396E-1,-2.365623474E0,9.200181961E-1
2.561625114E2,-3.110523224E-1,-2.662964821E0,8.707473278E-1
2.566625114E2,-6.054244041E-1,6.677341461E-2,1.816661358E0
2.571625114E2,6.525912285E-1,-2.996015549E-1,2.518005371E-1
2.576625114E2,1.593885422E0,-1.697566986E0,9.025427699E-1
2.581625114E2,1.481029987E0,3.749782562E0,-3.566656113E-1
2.586625114E2,-1.172112465E0,4.130687714E-1,1.689013958E0
2.591625114E2,5.911970139E-1,1.852722645E0,8.311668038E-1
2.596625114E2,-3.316324711E0,-2.857661247E-1,2.080034971E0
2.601625114E2,1.239568710E0,-2.165974617E0,1.476693988E0
2.606625114E2,-3.217843056E0,-1.349819183E0,-1.446193457E-1
2.611625114E2,2.449549198E0,-2.234852791E0,5.346483588E-1
2.616625114E2,-8.074204922E-1,-1.800879478E0,9.205824733E-1
2.621625114E2,1.663914204E0,-1.457242012E0,9.512836933E-1
2.626625114E2,-1.245468616E0,-4.413314819E0,8.708416820E-1
2.631625114E2,3.307137489E-1,2.684497833E-1,2.929045677E0
2.636625114E2,-2.237510681E-1,-2.738577843E0,2.340313196E0
2.641625114E2,-2.096156836E0,2.443288803E0,3.147421122E0
2.646625114E2,-3.024239540E-1,6.540608406E-1,8.537840843E-2
2.651625114E2,-1.941662788E0,1.428163052E0,2.615733624E0
2.656625114E2,-6.750822067E-3,3.035108089E0,-8.691864014E-1
2.661625114E2,-2.179861069E0,3.233404160E-1,1.843223095E0
2.666625114E2,-7.533752918E-1,3.007359505E0,-1.309431195E0
2.671625114E2,-2.081760406E0,-1.436575890E0,-2.582025528E-2
2.676625114E2,-1.028043270E0,1.505169868E0,4.483684301E-1
2.681625114E2,-1.672191381E0,-2.885581970E0,5.616291761E-1
2.686625114E2,1.010911465E-1,-1.438260078E0,1.897546887E0
2.691625114E2,-9.322407246E-1,-2.571937561E0,4.357857704E-1
2.696625114E2,8.652987480E-1,-2.574461937E0,2.092581034E0
2.701625114E2,-1.457147837E0,-9.661445618E-1,2.822836637E-1
2.706625114E2,1.081068516E0,-2.780526161E0,7.586984038E-1
2.711625114E2,-2.014491320E0,-2.526096344E0,-6.621308923E-1
2.716625114E2,3.282280922E0,-1.403128624E0,1.509770989E0
2.721625114E2,-1.269592047E0,-3.041261673E0,-1.109232008E-1
2.726625114E2,1.241455078E0,9.229545593E-1,1.726754427E0
2.731625114E2,-6.143989563E-1,-1.620995522E0,5.492099524E-1
2.736625114E2,-6.296701431E-1,1.112169743E0,2.654893637E0
2.741625114E2,-2.244315147E-1,1.553258896E-1,-1.042191625E0
2.746625114E2,-2.038570166E0,9.277391434E-1,2.579406261E0
2.751625114E2,1.386570930E-1,3.397061825E0,-4.665057659E-1
2.756625114E2,-1.477479696E0,1.017638206E0,1.830286622E0
2.761625114E2,1.868016958E0,3.663608074E0,-1.172648311E0
2.766625114E2,-1.947384119E0,-1.012897491E0,-4.946346879E-1
2.771625114E2,1.558290243E0,2.587553501E0,5.770175457E-1
2.776625114E2,-1.784631968E0,-2.059282303E0,-2.203129083E-1
2.781625114E2,1.293970108E0,6.328868866E-2,2.412584782E0
2.786625114E2,-1.272314310E0,-2.412593842E0,-3.821016848E-1
2.791625114E2,1.195242882E0,-1.687377930E0,3.608475685E0
2.796625114E2,-2.081670046E0,-1.858142853E0,1.195755959E0
2.801625114E2,2.104603291E0,-3.014848232E0,2.700527906E0
2.806625114E2,8.933210373E-1,4.129352570E-1,6.080629230E-1
2.811625114E2,3.260125637E0,-3.563566208E0,3.560685635E0
2.816625114E2,1.529001713E0,2.032786846E0,-3.668956757E-1
2.821625114E2,1.680968761E0,-1.698221207E0,3.605628490E0
2.826625114E2,-5.227258205E-1,-2.074500084E0,1.140399098E0
2.831625114E2,-5.354347229E-1,-9.619169235E-1,3.149739265E0
2.836625114E2,1.891185522E0,-8.171863556E-1,1.776904345E0
2.841625114E2,-2.237210274E0,-1.769846439E0,3.778239727E0
2.846625114E2,1.402915239E0,8.008189201E-1,1.306030512E0
2.851625114E2,-3.123788118E0,-1.194752216E0,4.819053173E0
2.856625114E2,1.588515520E0,2.112957478E0,-1.485853910E0
2.861625114E2,-1.680984259E0,1.133066177E0,2.917953968E0
2.866625114E2,-1.084244728E0,2.136713028E0,-4.386581182E-1
2.871625114E2,-1.238031387E0,-4.920959473E-2,1.261356354E0
2.876625114E2,-4.237937927E-2,3.100563049E0,8.049181104E-1
2.881625114E2,-1.227698088E0,-1.826253891E0,2.710094452E-1
2.886625114E2,7.476279736E-1,1.381159782E0,4.695356190E-1
2.891625114E2,-2.372620106E-1,-1.739583969E0,2.377535343E0
2.896625114E2,-4.748752117E-1,-1.221253395E0,3.365682840E0
2.901625114E2,4.330167770E-1,-2.504257202E0,7.974828482E-1
2.906625114E2,1.557984352E0,-2.856193542E0,2.202622890E0
2.911625114E2,9.275295734E-1,-4.457130432E-1,5.025482178E-2
2.916625114E2,2.574879169E0,-2.876761436E0,4.900276661E-1
2.921625114E2,2.061895370E0,1.690399647E0,-4.014927149E-1
2.926625114E2,1.924263000E0,-1.975566864E0,1.361111879E0
2.931625114E2,1.347386241E0,3.618498802E0,-1.436638355E0
2.936625114E2,5.404176712E-1,1.383893967E0,1.747109294E0
2.941625114E2,7.464085817E-1,2.316518307E0,4.204869270E-3
2.946625114E2,-1.055829048E0,1.473918438E0,3.629101276E0
2.951625114E2,1.157425404E0,6.637058258E-1,5.013847351E-2
2.956625114E2,-2.694117546E0,8.459687233E-1,2.679254293E0
2.961625114E2,1.712120771E0,2.731243610E0,-1.172697544E0
2.966625114E2,-2.404602528E0,1.702165604E-1,2.032593012E0
2.971625114E2,1.023019433E0,3.254733086E0,-1.337909698E-1
2.976625114E2,-2.265710592E0,-1.728819847E0,5.343138576E-1
2.981625114E2,8.507120609E-2,2.511535645E0,2.054489851E-1
2.986625114E2,-1.475091457E0,-2.715445518E0,-1.729438454E-1
2.991625114E2,2.399466038E-1,-5.092630386E-1,1.406630754E0
2.996625114E2,-2.048241138E0,-3.072254181E0,5.087704659E-1
3.001625114E2,1.329330921E0,-1.722043037E0,1.885870934E0
3.006625114E2,-2.452955246E-1,-1.836167336E0,1.151681900E0
3.011625114E2,2.561962605E0,-2.443918228E0,1.803883672E0
3.016625114E2,5.875487328E-1,2.018613815E-1,3.401485682E-1
3.021625114E2,2.166474342E0,-2.376993179E0,8.529281616E-2
3.026625114E2,8.918535709E-1,2.523643494E0,-9.369993210E-2
3.031625114E2,3.131566048E-1,-1.125064850E0,2.028088093E0
3.036625114E2,1.686803102E-1,2.596385002E0,-1.297469139E-1
3.041625114E2,-2.122097731E0,6.166491508E-1,2.160422564E0
3.046625114E2,7.720029354E-1,-1.194731712E0,1.503382444E0
3.051625114E2,-2.319178581E0,-1.518869400E-1,9.377416968E-1
3.056625114E2,2.442361832E0,-2.630268097E0,1.250179768E0
3.061625114E2,1.754498482E-1,-1.588731766E0,-6.411238313E-1
3.066625114E2,-1.771402359E-1,-2.381929398E0,1.337965846E0
3.071625114E2,-1.307497263E0,-2.693490028E0,6.387549043E-1
3.076625114E2,1.853628635E0,-2.978998184E0,1.406736612E0
3.081625114E2,5.955104828E-1,8.888616562E-1,1.969740391E-1
3.086625114E2,1.476901770E0,-1.864586830E0,5.309853554E-1
3.091625114E2,6.124067307E-1,3.344550610E0,-1.005381823E0
3.096625114E2,-1.833570957E0,9.813599586E-1,2.303804159E0
3.101625114E2,5.896246433E-1,-3.354768753E-1,2.702494621E0
3.106625114E2,-2.145312786E0,-4.176025391E-1,1.408795357E0
3.111625114E2,1.827229500E0,-2.991653442E0,2.086914062E0
3.116625114E2,-7.396713495E-1,-2.808778763E0,8.325797915E-1
3.121625114E2,-2.440685511E0,5.752587318E-1,1.613947749E0
3.126625114E2,1.643069744E0,9.213552475E-1,-5.047333241E-1
3.131625114E2,-1.038543701E0,1.202745438E-1,4.590176344E-1
3.136625114E2,8.787825108E-1,2.491475582E0,-6.772897243E-1
3.141625114E2,-1.110113502E0,-3.355856895E0,6.034464836E-1
3.146625114E2,8.936541080E-1,-2.033726692E0,1.478839278E0
3.151625114E2,3.083598614E-1,1.130533218E-1,1.614944935E-1
3.156625114E2,1.311050892E0,-1.979710579E0,1.213746905E0
3.161625114E2,1.487139225E0,3.515575409E0,-8.124133348E-1
3.166625114E2,-2.215841532E0,2.007913589E0,1.280035734E0
3.171625114E2,6.511299610E-1,-1.575084686E0,1.539871335E0
3.176625114E2,-1.452150822E0,-9.803676605E-2,6.165659428E-2
3.181625114E2,1.150757790E0,-2.763292313E0,5.946571231E-1
3.186625114E2,-1.129839897E0,-3.139338493E0,4.723048210E-2
3.191625114E2,2.195024490E-1,2.071886063E-1,5.172715187E-1
3.196625114E2,1.375706196E-1,-2.285575867E-1,2.326873541E-1
3.201625114E2,2.327679634E0,-2.427764893E0,7.448890805E-1
3.206625114E2,1.626552343E-1,4.224536419E0,-1.340698838E0
3.211625114E2,5.506315231E-1,7.316637039E-1,1.733160973E0
3.216625114E2,2.628158331E-1,2.506222725E0,-5.990767479E-2
3.221625114E2,-1.511536837E0,1.982418060E0,2.113099575E0
3.226625114E2,4.545900822E-1,-4.121952057E-1,1.768554926E0
3.231625114E2,-1.786728024E0,1.235833168E0,1.111715198E0
3.236625114E2,1.651249409E0,-3.614687920E0,1.979727149E0
3.241625114E2,-2.339345932E0,-1.872262955E0,2.815443277E-1
3.246625114E2,1.399810791E0,-2.722165108E0,7.366870642E-1
3.251625114E2,-2.088065147E0,-3.188656807E0,1.002721786E-1
3.256625114E2,6.804347038E-1,-1.582031250E-1,2.227617025E0
3.261625114E2,-5.191562176E-1,-1.785148621E0,1.329075813E0
3.266625114E2,-2.262451887E0,3.584222794E-1,2.894329309E0
3.271625114E2,1.597722769E0,2.984142303E-2,6.469627619E-1
3.276625114E2,-3.296596050E0,-1.411056519E-2,3.763179541E0
3.281625114E2,2.152395964E0,2.706140518E0,-2.555732727E-1
3.286625114E2,-4.009842396E0,-9.992084503E-1,2.265256405E0
3.291625114E2,2.093459845E0,3.262162685E0,-1.189739585E0
3.296625114E2,-2.952955246E0,-1.945178986E0,4.246812463E-1
3.301625114E2,9.969209433E-1,1.059317589E0,1.148382664E0
3.306625114E2,-2.578124046E0,-2.816314697E0,3.771200776E-1
3.311625114E2,1.525002956E0,-1.792620659E0,2.696841240E0
3.316625114E2,-3.800637722E-1,-2.227214813E0,1.095359445E0
3.321625114E2,1.604357004E0,-2.477372169E0,2.467431545E0
3.326625114E2,-2.275264263E0,-1.069315910E0,6.101174355E-1
3.331625114E2,1.679330349E0,-2.940849304E0,1.606806040E0
3.336625114E2,-2.015328884E0,-1.951998711E0,8.305770159E-2
3.341625114E2,1.328792572E-1,-2.984208107E0,1.688855052E0
3.346625114E2,-2.053536654E0,-2.573229790E0,1.054409504E0
3.351625114E2,-2.060570717E0,-2.099333763E0,1.643676639E0
3.356625114E2,6.038191319E-1,-2.062516212E0,2.100311041E0
3.361625114E2,-4.029611588E0,-2.276555538E0,2.020498753E0
3.366625114E2,2.731960297E0,2.057456970E-1,1.716179848E0
3.371625114E2,-5.716981888E0,-2.713491440E0,4.139091015E0
3.376625114E2,1.372619867E0,3.845024586E0,6.668620110E-1
3.381625114E2,-2.946433067E0,-5.209751129E-1,-3.134512901E-1
3.386625114E2,-5.009834766E-1,1.779678822E0,-8.222740293E-1
3.391625114E2,-1.441144943E-1,-1.135107994E0,2.173974276E0
3.396625114E2,-2.760112286E-1,2.805652618E-1,1.568764210E0
3.401625114E2,-1.069457531E-1,-2.727323532E0,1.884516954E0
3.406625114E2,1.824653149E-1,-1.488574982E0,1.385531783E0
3.411625114E2,4.930016994E-1,-2.370211601E0,1.199071288E0
3.416625114E2,1.552699566E0,-3.213071823E0,7.846865654E-1
3.421625114E2,1.468495250E0,-1.250187874E0,-5.340695381E-2
3.426625114E2,2.681831360E0,-2.702798843E0,1.065884233E0
3.431625114E2,1.297492504E0,2.741336823E-2,4.637830257E-1
3.436625114E2,2.573855877E0,-2.239561081E0,6.984036565E-1
3.441625114E2,-2.630179882E0,-2.841674805E0,2.242997289E-1
3.446625114E2,7.602486610E-1,-1.601724625E0,9.785486460E-1
3.451625114E2,-9.273519516E-1,-2.603608131E0,1.092166066E0
3.456625114E2,-1.242734909E0,-8.596324921E-2,2.298083782E0
3.461625114E2,2.430205345E-1,-8.508834839E-1,4.528516531E-1
3.466625114E2,-2.562270164E0,1.035640717E0,2.536752701E0
3.471625114E2,1.219019651E0,2.276677132E0,-1.150526166E0
3.476625114E2,-2.500293255E0,8.468332291E-1,2.105608702E0
3.481625114E2,1.614501715E0,3.607887745E0,-8.713389635E-1
3.486625114E2,-2.072026730E0,-4.260072708E-1,4.705379009E-1
3.491625114E2,7.738590240E-1,2.957592964E0,-2.382377982E-1
3.496625114E2,-2.147255659E0,-1.450486183E0,-2.139848471E-1
3.501625114E2,4.408516884E-1,5.712480545E-1,1.490108728E0
3.506625114E2,-1.855274439E0,-2.594638824E0,7.018612623E-1
3.511625114E2,1.130764008E0,-1.014734268E0,2.329951048E0
3.516625114E2,-9.424054623E-1,-2.595018387E0,7.468178868E-1
3.521625114E2,2.076523542E0,-2.501832008E0,2.477241516E0
3.526625114E2,-1.757192612E-1,-1.219587326E0,6.686341166E-1
3.531625114E2,2.516388416E0,-2.609591484E0,1.526800632E0
3.536625114E2,1.240488529E0,1.272409439E0,-4.399513006E-1
3.541625114E2,1.295384407E0,-1.635208130E0,1.564699173E0
3.546625114E2,2.412895203E0,3.267127514E0,-4.331057072E-1
3.551625114E2,-4.946999550E-1,-1.676753044E0,1.376817226E0
3.556625114E2,2.453763008E0,3.124863148E0,-7.907396555E-1
3.561625114E2,-3.945214987E0,-1.308900833E0,2.925579548E0
3.566625114E2,1.297563076E0,1.605688572E0,-6.768895388E-1
3.571625114E2,-3.894784689E0,-1.228442192E-1,2.349026680E0
3.576625114E2,2.438880205E0,3.086252213E0,-8.006415367E-1
3.581625114E2,-2.788202763E0,-2.622022629E-1,2.174202442E0
3.586625114E2,2.887840271E-1,3.334701061E0,-9.307825565E-1
3.591625114E2,-2.620080709E0,-2.004150391E0,1.977170706E-1
3.596625114E2,-2.629303932E-1,1.564138889E0,6.806720495E-1
3.601625114E2,-1.567071676E0,-3.179072380E0,5.299724936E-1
3.606625114E2,5.009737015E-1,-2.067207336E0,1.975179315E0
3.611625114E2,1.087889671E-1,-2.093495369E0,1.257806778E0
3.616625114E2,2.444378853E0,-3.117883682E0,1.146601915E0
3.621625114E2,1.274266720E0,1.520771503E0,4.954481125E-2
3.626625114E2,3.083096027E0,-1.496497154E0,1.016216040E0
3.631625114E2,8.340842724E-1,3.177986622E0,-1.615005493E0
3.636625114E2,-4.255914688E-2,7.722077370E-1,3.582276106E0
3.641625114E2,6.670691967E-1,2.244946003E0,1.872781515E-1
3.646625114E2,-2.345288754E0,4.958605766E-1,3.701811790E0
3.651625114E2,6.179809570E-1,1.121091843E-1,1.757071376E0
3.656625114E2,-3.151962757E0,3.766283989E-1,2.483343840E0
3.661625114E2,1.417020321E0,-1.586510658E0,2.713340998E0
3.666625114E2,-2.191934109E0,-5.050401688E-1,1.108975768E0
3.671625114E2,2.128565788E0,-2.895993233E0,2.282296658E0
3.676625114E2,-1.904479504E0,-1.693813324E0,6.671330929E-1
3.681625114E2,1.896595478E0,-2.668051720E0,1.157062173E0
3.686625114E2,-2.081864595E0,-2.688087463E0,2.638309896E-1
3.691625114E2,1.563196659E0,-1.031409264E0,2.398949146E0
3.696625114E2,-1.085063696E0,-2.807277679E0,1.761794209E0
3.701625114E2,2.568710327E0,-2.785052299E0,3.179180145E0
3.706625114E2,3.209009171E-1,-1.311061859E0,1.896690845E0
3.711625114E2,3.329370499E0,-2.438958168E0,1.404927015E0
3.716625114E2,1.672993422E0,4.755182266E-1,1.278281093E0
3.721625114E2,2.021320343E0,-2.335220814E0,1.301949024E0
3.726625114E2,3.627029419E0,2.774493694E0,-5.554678440E-1
3.731625114E2,-1.420321465E-1,-2.156652451E0,1.992037058E0
3.736625114E2,2.693158150E0,3.491663933E0,-1.020666838E0
3.741625114E2,-1.536482811E0,-8.235678673E-1,1.721712828E0
3.746625114E2,1.729274750E0,2.479443073E0,-6.163716316E-3
3.751625114E2,-3.354732037E0,-1.378065109E0,3.083181620E0
3.756625114E2,6.540329456E-1,2.126016617E-1,5.911344886E-1
3.761625114E2,-3.410408258E0,-7.422394753E-1,4.348651886E0
3.766625114E2,2.243396044E0,-4.592561722E-1,1.433355451E0
3.771625114E2,-1.740098596E0,9.528436661E-1,2.600937366E0
3.776625114E2,2.027212143E0,-1.717409134E0,2.168014288E0
3.781625114E2,-1.919347763E0,-3.595151901E-1,2.009541273E0
3.786625114E2,4.551047325E0,-2.364757538E0,1.489681482E0
3.791625114E2,-2.714062214E0,-1.841592789E0,1.109273553E0
3.796625114E2,2.364512444E0,-2.489089012E0,1.788267851E0
3.801625114E2,-1.791077375E0,-2.562239647E0,1.065851092E0
3.806625114E2,1.554182529E0,-1.675600052E0,9.791458845E-1
3.811625114E2,-1.191374302E0,-2.824225426E0,1.223830342E0
3.816625114E2,1.380921364E0,-1.436494827E0,2.168749094E0
3.821625114E2,-2.422041893E-1,-1.594439507E0,2.076815128E0
3.826625114E2,2.298468590E0,-2.627596855E0,1.669795156E0
3.831625114E2,1.089863539E0,9.358215332E-2,7.077753544E-2
3.836625114E2,1.985939980E0,-2.373681068E0,9.069735408E-1
3.841625114E2,1.565621376E0,1.507790089E0,-6.254657507E-1
3.846625114E2,1.417313576E0,-2.247303009E0,1.333826065E0
3.851625114E2,1.585688591E0,3.227234840E0,-4.869214296E-1
3.856625114E2,2.210812569E-1,-5.929584503E-1,2.181566000E0
3.861625114E2,1.366723776E0,2.678817272E0,-9.791033268E-1
3.866625114E2,-6.420521736E-1,5.302262306E-1,3.290471315E0
3.871625114E2,1.576673508E0,1.566734314E0,8.916980624E-1
3.876625114E2,-3.052766323E0,1.644414425E0,1.777620792E0
3.881625114E2,2.699273586E0,-2.055540085E-1,1.252025127E0
3.886625114E2,-2.221849680E0,-1.309347153E-1,2.798567772E0
3.891625114E2,1.964354515E0,-1.027266502E0,4.246786535E-1
3.896625114E2,-1.841899157E0,-8.760547638E-1,3.781173527E-1
3.901625114E2,3.174437046E0,-1.910652161E0,1.353530526E0
3.906625114E2,-1.134803534E0,-1.534270287E0,1.225948453E0
3.911625114E2,3.350502491E0,-2.421104431E0,1.061026931E0
3.916625114E2,-1.393568754E0,-2.485566139E0,1.107754469E0
3.921625114E2,1.429046154E0,-1.603880882E0,8.840141296E-1
3.926625114E2,-6.090359688E-1,-2.859560966E0,1.721948504E0
3.931625114E2,2.497358322E-1,-7.901134491E-1,1.669080496E0
3.936625114E2,1.181969643E-1,-2.571558952E0,1.087261558E0
3.941625114E2,1.735280991E0,-3.248319626E0,2.215781450E0
3.946625114E2,5.392050743E-1,-6.876077652E-1,1.558421969E0
3.951625114E2,3.377003193E0,-1.976203918E0,8.373717070E-1
3.956625114E2,1.259424448E0,7.835283279E-1,6.102881432E-1
3.961625114E2,2.685453892E0,-1.824994087E0,1.743604302E0
3.966625114E2,1.334033251E0,2.974808693E0,-1.083904266E0
3.971625114E2,-6.085228920E-2,5.848808289E-1,1.871476054E0
3.976625114E2,-7.348959446E-1,2.071108341E0,-5.932331085E-3
3.981625114E2,-6.206953526E-1,2.140379429E0,3.668831110E0
3.986625114E2,-3.849327564E-1,5.961904526E-1,6.352121234E-1
3.991625114E2,-1.898419619E0,1.230154514E0,4.576113224E0
3.996625114E2,-3.944923878E-1,-8.599720001E-1,1.780182838E0
4.001625114E2,-1.699013948E0,1.057107449E0,8.901379108E-1
4.006625114E2,9.985098839E-1,-2.786337852E0,1.860455275E0
4.011625114E2,-9.657971859E-1,-8.168182373E-1,-7.181385756E-1
4.016625114E2,2.033817291E0,-2.405564308E0,1.020867705E0
4.021625114E2,-8.724310398E-1,-2.079547882E0,4.601709247E-1
4.026625114E2,3.441762924E0,-1.333372116E0,-7.743157446E-2
4.031625114E2,-2.540687561E0,-3.431975365E0,7.069590688E-1
4.036625114E2,2.179955244E0,2.395935059E-1,2.148705244E0
4.041625114E2,-1.005412340E0,-2.583861351E0,2.896350622E-2
4.046625114E2,-2.198488474E0,6.243777275E-1,2.050906897E0
4.051625114E2,3.292815685E-1,-6.195859909E-1,-4.089785814E-1
4.056625114E2,-2.564785004E0,1.442228794E0,2.165951252E0
4.061625114E2,1.013446569E0,1.640337467E0,-8.869409561E-1
4.066625114E2,1.673800945E0,-1.333825111E0,4.061381221E-1
4.071625114E2,1.259286642E0,3.158745289E0,-1.608307362E0
4.076625114E2,1.306807995E0,-3.567714691E-1,1.548771620E0
4.081625114E2,5.868064165E-1,3.222619534E0,-2.177219391E0
4.086625114E2,-1.184927464E0,9.006209373E-1,2.629259348E0
4.091625114E2,1.102767467E0,1.354897499E0,-4.172236919E-1
4.096625114E2,-2.660413027E0,8.723173141E-1,2.719850302E0
4.101625114E2,-1.519448757E-1,-9.727354050E-1,1.755597472E0
4.106625114E2,-2.900074720E0,-6.226811409E-1,8.282306194E-1
4.111625114E2,3.882670879E0,-2.723845482E0,2.418974876E0
4.116625114E2,-2.103747129E0,-1.472792625E0,2.270625114E0
4.121625114E2,1.060278416E0,-2.821202278E0,1.108630776E0
4.126625114E2,-1.882673502E0,-1.998682022E0,2.835112810E-1
4.131625114E2,4.473075867E-1,-1.510224342E0,2.382061005E0
4.136625114E2,8.108940125E-1,-3.321569443E0,-4.179067016E-1
4.141625114E2,-5.243101120E-1,-1.263414383E0,1.994223356E0
4.146625114E2,1.014411449E-2,-2.392416954E0,3.256388903E-1
4.151625114E2,-2.012954473E0,2.491054535E-1,1.857124567E0
4.156625114E2,4.929848909E-1,-8.177022934E-1,1.164338470E0
4.161625114E2,-3.192243099E0,7.842278481E-1,2.957628250E0
4.166625114E2,1.175186872E0,2.118065357E0,-3.042092323E-1
4.171625114E2,-2.604239464E0,9.934020042E-1,3.607551336E0
4.176625114E2,3.673601151E-2,3.391430378E0,-8.487035036E-1
4.181625114E2,-3.069714308E0,-5.570411682E-2,1.275612712E0
4.186625114E2,-4.475383759E-1,2.349345207E0,-3.991916776E-1
4.191625114E2,-8.396744728E-1,1.453361988E0,2.310895205E0
4.196625114E2,2.795069218E-1,2.265603065E0,7.876039743E-1
4.201625114E2,-1.617900610E0,1.698236942E0,2.268544912E0
4.206625114E2,7.152271271E-2,8.297348022E-1,8.792555928E-1
4.211625114E2,-9.598985910E-1,2.179289341E0,1.658446550E0
4.216625114E2,9.025685787E-1,-2.053432465E0,1.971226454E0
4.221625114E2,-6.344695091E-1,9.862442017E-1,-1.780597866E-1
4.226625114E2,2.608805418E0,-2.871437073E0,9.080386162E-1
4.231625114E2,-7.464466095E-1,-1.750556946E0,5.462262630E-1
4.236625114E2,3.503746271E0,-1.657482147E0,2.086256504E0
4.241625114E2,-1.308947325E0,-3.815779686E0,2.301259518E0
4.246625114E2,1.151207924E0,-3.553352356E-1,2.173117876E0
4.251625114E2,4.853899479E-1,-1.782565117E0,5.865322351E-1
4.256625114E2,-4.557533264E-1,1.696499348E0,2.003082752E0
4.261625114E2,9.807155132E-1,-1.894960403E-1,-7.614649534E-1
4.266625114E2,-2.606694221E0,1.357742786E0,2.776686192E0
4.271625114E2,1.617660761E0,1.162391663E0,-1.205809116E0
4.276625114E2,-3.406297207E0,1.324604511E0,2.845948696E0
4.281625114E2,9.643998146E-1,3.301188946E0,-1.848385334E0
4.286625114E2,-2.066107512E0,9.008779526E-1,1.950914264E0
4.291625114E2,-1.161871910E0,1.799888611E0,-1.175915837E0
4.296625114E2,-1.102123022E0,1.059352398E0,-5.116633177E-1
4.301625114E2,-2.487549543E0,2.527823925E0,-8.369297981E-1
4.306625114E2,7.318017483E-1,-7.953100204E-1,-2.241093814E-1
4.311625114E2,-2.064200640E-1,3.029519558E0,-1.102335930E0
4.316625114E2,-6.653070450E-1,2.279762745E0,2.525385380E0
4.321625114E2,5.026129484E-1,1.276747704E0,-3.079480529E-1
4.326625114E2,-4.841227531E-1,2.586458683E0,3.444121599E0
4.331625114E2,7.689079046E-1,9.302806854E-2,1.510153413E0
4.336625114E2,-9.681330919E-1,1.865057468E0,4.218437672E0
4.341625114E2,1.201032162E0,-8.959846497E-1,7.017036080E-1
4.346625114E2,-2.415107191E-1,2.165132046E0,1.789920568E0
4.351625114E2,-3.802728653E-2,-6.820907593E-1,2.067352295E0
4.356625114E2,-9.631996155E-1,1.014461994E0,6.480593681E-1
4.361625114E2,1.628787041E0,-8.336591721E-1,-1.305931091E0
4.366625114E2,1.037327766E0,1.302827835E0,9.180740714E-1
4.371625114E2,3.566900969E0,-2.552671432E-1,-1.633606195E0
4.376625114E2,3.505967140E0,-6.255826950E-1,1.285168409E0
4.381625114E2,6.071076393E-1,-3.609248161E0,-6.101398468E-1
4.386625114E2,-6.155040264E-1,-2.807412148E0,-5.568861365E-1
4.391625114E2,1.317438602E0,-2.747536659E0,1.063997984E0
4.396625114E2,1.248777390E0,-3.448934555E0,2.798553705E-1
4.401625114E2,6.682324409E-1,-2.086803436E0,9.194647074E-1
4.406625114E2,5.625290871E-1,-2.335847855E0,5.600640774E-1
4.411625114E2,-5.345573425E-1,-1.989974499E0,1.557782054E0
4.416625114E2,2.654178858E0,-1.656676292E0,-2.299190760E-1
4.421625114E2,-2.697273254E0,-3.461690903E0,3.207954168E0
4.426625114E2,3.639517784E0,-2.084892273E0,-1.075339913E0
4.431625114E2,-2.255107164E0,-1.464881897E-1,3.360157967E0
4.436625114E2,2.778973818E0,-1.140172958E0,-9.932184219E-2
4.441625114E2,2.582584858E0,-3.374534607E0,2.140611410E-1
4.446625114E2,1.017626762E0,4.806642532E-1,-5.337905884E-2
4.451625114E2,3.304609299E0,-3.103094578E0,2.142801285E-1
4.456625114E2,1.670815945E0,1.981560707E0,-3.265671730E-1
4.461625114E2,3.348278046E0,-2.031457424E0,-3.308568001E-1
4.466625114E2,6.130743027E-1,2.772780418E0,-1.151308775E0
4.471625114E2,3.410058498E0,-1.598812103E0,1.726896763E-1
4.476625114E2,1.272750139E0,4.160349369E0,-5.563812256E-1
4.481625114E2,1.202908993E0,-7.509107590E-1,1.045311570E0
4.486625114E2,1.768688440E0,4.011039257E0,-2.378454208E-1
4.491625114E2,1.643857956E-1,-1.994338036E-1,2.651388407E0
4.496625114E2,1.641649127E0,4.055442333E0,-2.838530540E-1
4.501625114E2,-1.482859612E0,-8.084802628E-1,2.175011873E0
4.506625114E2,1.657250643E0,3.423193455E0,3.670376539E-1
4.511625114E2,-3.015790462E0,-1.572525501E0,3.436815977E0
4.516625114E2,1.625627041E0,1.574392319E0,1.294663906E0
4.521625114E2,-2.975491524E0,-8.070192337E-1,3.335884333E0
4.526625114E2,2.031787395E0,1.804351807E-3,2.211524010E0
4.531625114E2,-2.769794226E0,-5.038967133E-1,2.701591253E0
4.536625114E2,1.597042084E0,-8.330974579E-1,2.587862968E0
4.541625114E2,-1.670148611E0,-8.885908127E-2,2.574187756E0
4.546625114E2,2.194097281E0,-1.832895279E0,1.945265412E0
4.551625114E2,-1.685728312E0,1.453018188E-1,1.113410473E0
4.556625114E2,2.944386959E0,-2.814533234E0,1.524516106E0
4.561625114E2,-9.126260281E-1,-8.133029938E-1,6.005365849E-1
4.566625114E2,1.395308852E0,3.172738552E0,-4.099795818E-1
4.571625114E2,-1.580388784E0,-1.119462967E0,6.482636929E-2
4.576625114E2,2.322316170E0,2.109714508E0,6.390156746E-1
4.581625114E2,-1.745310545E0,-1.833883286E0,3.127995729E-1
4.586625114E2,2.253236771E0,2.047173500E0,2.872548103E-1
4.591625114E2,-1.692529440E0,-1.952933311E0,1.104891896E0
4.596625114E2,1.837104797E0,6.039571762E-1,1.542108417E0
4.601625114E2,-3.606195450E-1,-2.411350250E0,7.490504980E-1
4.606625114E2,1.527554512E0,-1.896585464E0,2.178534985E0
4.611625114E2,9.514188766E-1,-2.543446541E0,7.771018744E-1
4.616625114E2,2.748196125E0,-1.790557861E0,1.212855577E0
4.621625114E2,1.958661079E0,-9.359674454E-1,5.388762951E-1
4.626625114E2,3.436994553E0,-2.779461861E0,1.436201930E0
4.631625114E2,2.180891275E0,6.504707336E-1,8.686299324E-1
4.636625114E2,1.664217472E0,-2.906837940E0,6.979494095E-1
4.641625114E2,2.609113932E0,3.568274498E0,-3.244950771E-1
4.646625114E2,5.800166130E-1,-1.509641171E0,1.821767688E0
4.651625114E2,2.287222624E0,3.150529861E0,-5.686476231E-1
4.656625114E2,-1.605112076E0,-1.352201939E0,3.458751202E0
4.661625114E2,2.467013597E0,1.330479622E0,2.631670237E-1
4.666625114E2,-2.725068092E0,-6.277709007E-1,3.771487713E0
4.671625114E2,2.117118835E0,-5.320816040E-1,2.287811279E0
4.676625114E2,-2.452886343E0,-3.280353546E-1,1.527434707E0
4.681625114E2,2.045983791E0,-1.973584175E0,1.776729822E0
4.686625114E2,-1.978889227E0,-8.505477905E-1,6.795147657E-1
4.691625114E2,1.483833551E0,2.998441696E0,2.435936928E-1
4.696625114E2,-9.362990856E-1,-1.554129601E0,-7.057833672E-2
4.701625114E2,1.577389717E0,1.037843704E0,1.061220765E0
4.706625114E2,-7.314615250E-1,-1.939165115E0,-1.818089485E-1
4.711625114E2,1.794011354E0,1.609859467E-1,2.615382910E0
4.716625114E2,-7.474346161E-1,-2.395025253E0,6.110167503E-1
4.721625114E2,2.403798342E0,-5.251255035E-1,2.578236580E0
4.726625114E2,2.074098587E-1,-2.362941742E0,8.538814783E-1
4.731625114E2,2.430635452E0,-1.661831856E0,2.724838734E0
4.736625114E2,1.182832956E0,-1.588246346E0,1.225569725E0
4.741625114E2,3.088155746E0,-1.602582932E0,2.856480837E0
4.746625114E2,1.878144503E0,-1.367904663E0,1.190604091E0
4.751625114E2,2.554971218E0,-2.442140579E0,2.195003510E0
4.756625114E2,2.726060152E0,1.359806061E-1,9.294317961E-1
4.761625114E2,3.390206814E0,-1.848215103E0,1.811138988E0
4.766625114E2,3.260903120E0,1.303097248E0,-7.464814186E-1
4.771625114E2,1.994005680E0,-1.741132736E0,2.901599884E0
4.776625114E2,2.535148621E0,2.791598797E0,-1.200181842E0
4.781625114E2,-1.178678513E0,-9.326629639E-1,1.089838147E0
4.786625114E2,2.428627014E-1,3.245303631E0,-2.345620394E-1
4.791625114E2,-3.159709692E0,6.980614662E-1,1.410616279E0
4.796625114E2,6.934046745E-1,7.023963928E-1,1.728785515E0
4.801625114E2,-2.423884869E0,6.770534515E-1,3.207155704E0
4.806625114E2,1.524013042E0,-1.616024971E0,1.766245842E0
4.811625114E2,-1.926448584E0,-1.469707489E-1,1.697368145E0
4.816625114E2,-1.105094194E0,2.903548241E0,5.986707211E-1
4.821625114E2,-8.296029568E-1,-4.406175613E-1,1.573987007E-1
4.826625114E2,2.716000080E-1,2.997420788E0,7.065528631E-1
4.831625114E2,-1.510149956E0,-1.459268570E0,3.145788908E-1
4.836625114E2,6.056067944E-1,1.678122044E0,1.449620247E0
4.841625114E2,-2.335491180E-1,-2.401102066E0,3.823594451E-1
4.846625114E2,1.867154598E0,-1.278615952E0,2.208781719E0
4.851625114E2,7.981915474E-1,-2.469430923E0,1.197500825E0
4.856625114E2,1.662613869E0,-1.721961975E0,2.270926476E0
4.861625114E2,1.316612720E0,-1.580001831E0,4.210631251E-1
4.866625114E2,2.851969242E0,-2.597410202E0,2.294106483E0
4.871625114E2,4.389238358E-1,-1.454238892E-1,4.636423588E-1
4.876625114E2,3.624195099E0,-1.946639061E0,1.520180464E0
4.881625114E2,1.253628492E0,1.014433384E0,3.065550327E-1
4.886625114E2,2.362076759E0,-1.563969135E0,1.527916908E0
4.891625114E2,1.787920237E0,3.227829456E0,-8.895330429E-1
4.896625114E2,1.217288494E0,2.301898003E-1,1.995873451E0
4.901625114E2,7.333974838E-1,3.659474850E0,-9.420816898E-1
4.906625114E2,-9.327669144E-1,2.387409210E-1,3.273842335E0
4.911625114E2,1.904364347E0,2.440332890E0,1.232226610E0
4.916625114E2,-2.533691406E0,-1.681601524E0,3.951286554E0
4.921625114E2,2.123410940E0,2.755775452E-1,1.313534737E0
4.926625114E2,-2.522767544E0,-3.964476585E-1,3.142210484E0
4.931625114E2,1.663369179E0,-1.957464218E-1,1.873250961E0
4.936625114E2,-2.905161142E0,-2.308249474E-1,2.127247810E0
4.941625114E2,1.576203346E0,3.463438511E0,-9.560152292E-1
4.946625114E2,-2.134375334E0,-1.262278557E-1,6.191937327E-1
4.951625114E2,9.398391247E-1,3.781548977E0,-2.739540339E-1
4.956625114E2,-1.211854696E0,-6.013717651E-1,7.788545489E-1
4.961625114E2,5.391461849E-1,3.887763500E0,1.175919771E-1
4.966625114E2,-1.507642508E0,-9.537992477E-1,9.178356528E-1
4.971625114E2,4.831657410E-1,2.829772472E0,1.169131160E0
4.976625114E2,2.411276817E0,-6.954022884E0,-4.244355202E0
4.981625114E2,-1.494472027E-1,-6.051970124E-1,-1.960175991E0
