"Time (s)","Acceleration x (m/s^2)","Acceleration y (m/s^2)","Acceleration z (m/s^2)"
7.011252000E-3,3.710071564E0,2.700300455E0,6.264409542E0
2.801510600E-2,3.094517946E0,2.860021353E0,5.370690346E0
5.280151060E-1,2.150549412E0,8.835497499E-1,1.412961721E0
1.028015106E0,9.558728218E0,-5.395216942E0,2.760120869E0
1.528015106E0,2.003390789E0,-7.357331276E0,-1.252044439E0
2.028015106E0,4.790431023E0,-1.097647572E1,2.596212626E-1
2.528015106E0,5.246263504E0,-1.170449162E1,2.392822653E-1
3.028015106E0,4.128815651E0,-1.226859951E1,-3.379862010E-1
3.528015106E0,9.115457535E0,-1.038784122E1,-3.937389612E0
4.028015106E0,4.937589645E0,-1.018385315E1,-1.591825247E0
4.528015106E0,4.003790379E0,-7.360322475E0,1.147358418E0
5.028015106E0,2.927618504E0,-3.554538012E0,-3.209373474E0
5.528015106E0,1.214357466E-1,-6.422336102E0,-1.134197950E0
6.028015106E0,4.825725079E0,-5.342574596E0,-2.994019270E0
6.528015106E0,2.619542599E0,-8.821739197E0,-1.989033818E0
7.028015106E0,5.609972477E0,-1.194676495E1,-1.867598057E0
7.528015106E0,3.890729666E0,-1.127019501E1,-1.320838094E0
8.028015106E0,8.511868477E0,-1.053440189E1,-1.570888042E0
8.528015106E0,5.042873859E0,-1.224826050E1,-3.044866920E-1
9.028015106E0,1.016590691E1,-9.553942680E0,-3.389433384E0
9.528015106E0,2.822334290E0,-7.532605648E0,-2.072184324E0
1.002801511E1,5.074578762E0,-5.239085197E0,1.604985833E0
1.052801511E1,3.257827997E0,-4.070789337E0,-4.359723091E0
1.102801511E1,2.796013355E0,-6.212964058E0,9.601200819E-1
1.152801511E1,3.108874798E0,-8.135597229E0,1.375873089E-1
1.202801511E1,4.112663746E0,-1.098006535E1,-3.378665686E0
1.252801511E1,7.347760201E0,-1.106441212E1,1.293320656E0
1.302801511E1,6.744170666E0,-7.817949772E0,-3.002992272E-1
1.352801511E1,9.955338478E0,-1.391665649E1,-1.031904817E0
1.402801511E1,6.759125710E0,-1.144845963E1,-2.464607239E0
1.452801511E1,4.896911621E0,-8.904889107E0,-2.261217386E-1
1.502801511E1,4.181457520E0,-4.638486862E0,-1.676172256E0
1.552801511E1,5.425127029E0,-4.834698200E0,1.440479279E0
1.602801511E1,2.717050076E0,-3.984647989E0,-3.246462107E0
1.652801511E1,2.169093609E0,-7.874181271E0,-4.821537733E-1
1.702801511E1,2.178664923E0,-7.963313580E0,-7.214360237E-1
1.752801511E1,3.075973511E0,-1.054457092E1,-4.534398913E-1
1.802801511E1,3.061616659E0,-1.062772179E1,4.564309120E-1
1.852801511E1,4.654638290E0,-1.043450165E1,-4.869394004E-1
1.902801511E1,9.032307625E0,-1.286979675E1,2.011167526E0
1.952801511E1,2.805584431E0,-1.177089310E1,1.408774376E0
2.002801511E1,1.117268753E1,-9.662218094E0,3.188436031E-1
2.052801511E1,5.519045353E0,-1.093400288E1,-3.984049559E-1
2.102801511E1,8.636893272E0,-7.800601959E0,-6.251249313E-1
2.152801511E1,5.267200947E0,-7.308876991E0,-4.009174347E0
2.202801511E1,-3.349951804E-1,-9.936794281E0,7.734799385E-1
2.252801511E1,1.714457393E0,-6.980462074E0,-1.633699656E0
2.302801511E1,5.970092416E-1,-8.800801277E0,2.183450609E-1
2.352801511E1,1.677966833E0,-6.732206345E0,-9.439685345E-1
2.402801511E1,5.276173949E-1,-9.850652695E0,-2.982653379E0
2.452801511E1,3.357728481E0,-9.723235130E0,1.402194023E0
2.502801511E1,4.209573269E0,-1.031486034E1,-5.186443329E-1
2.552801511E1,7.266404152E0,-1.399621773E1,5.300102234E-1
2.602801511E1,3.150749207E0,-1.044706345E1,5.904290080E-1
2.652801511E1,8.797810555E0,-1.248096275E1,1.807777524E0
2.702801511E1,1.852044702E0,-1.273280716E1,-3.792623878E-1
2.752801511E1,1.040698433E1,-8.191229820E0,-1.992024779E-1
2.802801511E1,5.862415314E0,-1.023350430E1,3.984049559E-1
2.852801511E1,6.619743824E0,-7.972885132E0,-7.866404653E-1
2.902801511E1,3.174677372E0,-6.635895252E0,-4.249652863E0
2.952801511E1,3.650250912E0,-7.216753006E0,2.573480844E0
3.002801511E1,5.497509956E0,-4.262813568E0,-3.753740549E0
3.052801511E1,3.003590584E0,-8.738588333E0,1.118644595E0
3.102801511E1,4.811367989E0,-5.731408596E0,-2.604587555E0
3.152801511E1,1.288534999E0,-1.096211910E1,-1.907677889E0
3.202801511E1,4.534996986E0,-1.405663681E1,7.639086246E-1
3.252801511E1,2.846262455E0,-1.109970570E1,-5.419743061E-1
3.302801511E1,7.295117855E0,-1.289252853E1,2.178664923E0
3.352801511E1,8.105686903E-1,-1.161595726E1,-6.424728632E-1
3.402801511E1,1.132104206E1,-1.131924725E1,1.590030670E0
3.452801511E1,2.437089920E0,-1.461894989E1,7.357929647E-2
3.502801511E1,9.848857880E0,-7.975875854E0,-3.782454491E0
3.552801511E1,5.231906891E0,-1.363071442E1,-4.402793646E-1
3.602801511E1,6.822535515E0,-1.176909828E1,4.229314029E-1
3.652801511E1,8.333602905E0,-1.091246796E1,-1.154536963E0
3.702801511E1,5.294120312E0,-1.175533962E1,2.827120066E0
3.752801511E1,8.727222443E0,-5.227719307E0,-4.601995945E0
3.802801511E1,2.550748825E0,-1.079282665E1,-3.236292601E-1
3.852801511E1,6.065207005E0,-6.961917400E0,-7.196413875E-1
3.902801511E1,3.014956474E0,-9.933204651E0,-1.922034740E0
3.952801511E1,7.203592777E0,-1.101655579E1,1.266401410E0
4.002801511E1,2.471187592E0,-1.073719311E1,-1.399801224E-1
4.052801511E1,8.715856552E0,-1.097228813E1,3.690928936E0
4.102801511E1,1.402194023E0,-1.073719311E1,5.012963414E-1
4.152801511E1,1.086999512E1,-1.003729248E1,-1.330409408E0
4.202801511E1,1.952543259E0,-1.320538998E1,1.879562140E0
4.252801511E1,8.229515076E0,-7.923832417E0,-1.405783296E-1
4.302801511E1,5.611767292E0,-5.523830891E0,-5.126622677E0
4.352801511E1,3.876372576E0,-7.955537319E0,1.804188251E0
4.402801511E1,6.172286034E0,-4.847858906E0,-2.941377163E0
4.452801511E1,3.927220106E0,-7.752745152E0,-1.415354609E0
4.502801511E1,3.795016766E0,-8.181658745E0,-3.266202807E-1
4.552801511E1,2.748754978E0,-1.040997505E1,-3.260818958E0
4.602801511E1,6.500102520E0,-1.219083309E1,3.110669553E-1
4.652801511E1,1.213759303E0,-1.218604755E1,-7.112665176E-1
4.702801511E1,8.419744492E0,-1.247498131E1,2.504687071E0
4.752801511E1,4.308277130E0,-1.426421356E1,-3.469592705E-2
4.802801511E1,6.907480717E0,-8.292326927E0,-1.965105653E0
4.852801511E1,4.868795872E0,-6.642475605E0,-2.975475073E0
4.902801511E1,3.866801500E0,-5.926423550E0,1.698904037E0
4.952801511E1,5.130211830E0,-3.632304668E0,-4.865804672E0
5.002801511E1,3.921238184E0,-7.741379261E0,4.785645381E-2
5.052801511E1,5.761917114E0,-7.043273449E0,-9.780662656E-1
5.102801511E1,4.820939541E0,-1.104227829E1,-2.226521492E0
5.152801511E1,7.039684296E0,-1.272802162E1,1.396211982E0
5.202801511E1,1.561915040E0,-1.051525879E1,-1.183848977E0
5.252801511E1,1.188933754E1,-1.122114182E1,9.894321561E-1
5.302801511E1,4.098307133E0,-1.286740398E1,7.609176040E-1
5.352801511E1,7.492526054E0,-9.242876053E0,-2.719442844E0
5.402801511E1,4.932205677E0,-9.491728783E0,-2.434697151E0
5.452801511E1,4.183850288E0,-8.212167740E0,1.574477315E0
5.502801511E1,5.876772404E0,-5.455635548E0,-3.373879910E0
5.552801511E1,3.803391695E0,-7.747959614E0,2.855833769E0
5.602801511E1,5.323431969E0,-5.027918816E0,-1.508674622E0
5.652801511E1,1.791027784E0,-6.878168583E0,-1.710868180E-1
5.702801511E1,3.622733593E0,-8.362317085E0,-1.100698471E0
5.752801511E1,1.746760488E0,-1.104407310E1,-2.286342144E0
5.802801511E1,6.957131863E0,-1.251266766E1,1.501496196E0
5.852801511E1,3.372683525E0,-1.286022568E1,9.415757060E-1
5.902801511E1,1.189352512E1,-1.166860008E1,-4.893322289E-1
5.952801511E1,1.623530149E0,-1.321795273E1,8.147560954E-1
6.002801511E1,9.452845573E0,-8.182256699E0,-1.554138303E0
6.052801511E1,4.776073933E0,-1.041176987E1,-2.069791555E-1
6.102801511E1,5.955137253E0,-9.460023880E0,-3.810569942E-1
6.152801511E1,7.484749317E0,-8.968298912E0,-3.525824070E0
6.202801511E1,5.706283569E0,-8.979664803E0,1.747956991E0
6.252801511E1,9.252447128E0,-4.003790379E0,-1.351346612E0
6.302801511E1,1.676172256E0,-6.203392506E0,-5.676971674E-1
6.352801511E1,4.445864677E0,-4.609772682E0,-2.321038008E0
6.402801511E1,1.419542074E0,-7.192824841E0,-2.362912297E-1
6.452801511E1,4.152743816E0,-5.553143024E0,-3.054438114E0
6.502801511E1,1.357926875E-1,-9.747162819E0,-7.561319470E-1
6.552801511E1,3.649652719E0,-7.704888821E0,-1.877169371E0
6.602801511E1,2.175673962E0,-1.070070267E1,-2.097907305E0
6.652801511E1,5.704489231E0,-1.319222927E1,4.354937077E-1
6.702801511E1,2.791227579E0,-1.220160103E1,5.742774606E-1
6.752801511E1,7.328617573E0,-1.238345528E1,2.991028316E-2
6.802801511E1,2.227119684E0,-1.325623703E1,5.024927258E-1
6.852801511E1,9.236295700E0,-8.663812637E0,-3.189034462E0
6.902801511E1,4.950151920E0,-1.015513897E1,-9.176474810E-1
6.952801511E1,8.289934158E0,-8.617751122E0,-2.381456852E0
7.002801511E1,4.430311203E0,-8.188239098E0,-1.942971945E0
7.052801511E1,5.492125988E0,-7.564908981E0,4.965106845E-1
7.102801511E1,4.305884361E0,-4.347160339E0,-4.409373760E0
7.152801511E1,2.705085993E0,-6.691528320E0,1.343569875E0
7.202801511E1,6.184250355E0,-4.442275047E0,-4.656432629E0
7.252801511E1,3.951148272E0,-7.646264553E0,-1.429711580E0
7.302801511E1,3.852444410E0,-7.448258877E0,-5.856433511E-1
7.352801511E1,3.239881754E0,-1.023948669E1,-2.903092146E0
7.402801511E1,5.366502762E0,-1.360200024E1,2.759522676E0
7.452801511E1,4.773082733E0,-1.103091240E1,-8.255238086E-2
7.502801511E1,8.706285477E0,-1.345364571E1,1.578066587E0
7.552801511E1,4.417150497E0,-1.140598774E1,-1.950150430E-1
7.602801511E1,9.754940033E0,-9.077172279E0,-1.100698411E-1
7.652801511E1,5.253442287E0,-7.355536938E0,-1.426122308E0
7.702801511E1,6.299703598E0,-5.982056618E0,1.094118118E0
7.752801511E1,4.959722996E0,-4.521238327E0,-5.023132801E0
7.802801511E1,1.846062660E0,-8.120043755E0,1.496112347E0
7.852801511E1,3.651447296E0,-7.830512047E0,3.780659735E-1
7.902801511E1,3.236890793E0,-1.059721375E1,-2.327019930E0
7.952801511E1,3.768097401E0,-1.308873940E1,1.178465128E0
8.002801511E1,4.526023865E0,-1.265683556E1,-1.990828395E0
8.052801511E1,6.930810928E0,-1.108056355E1,1.418345571E0
8.102801511E1,4.627718925E0,-1.259103298E1,-3.118446112E0
8.152801511E1,9.580862045E0,-9.169296265E0,-1.496710539E0
8.202801511E1,3.943371773E0,-8.723034859E0,-1.914258152E-1
8.252801511E1,2.766103029E0,-8.504091263E0,1.761117458E0
8.302801511E1,4.243670940E0,-4.860421181E0,-5.246263504E0
8.352801511E1,1.435693651E-1,-7.707880020E0,-5.898307562E-1
8.402801511E1,3.715455294E0,-8.682954788E0,-1.099501967E0
8.452801511E1,3.180659533E0,-1.204367447E1,-1.595414519E0
8.502801511E1,3.442075491E0,-1.186481094E1,1.208375469E-1
8.552801511E1,1.496710539E0,-1.143171024E1,8.739784956E-1
8.602801511E1,8.323433876E0,-1.269930840E1,-2.164906263E0
8.652801511E1,2.432902336E0,-8.833105087E0,1.016351461E0
8.702801511E1,5.538786411E0,-7.566105366E0,3.397808075E-1
8.752801511E1,3.574877024E0,-6.707680225E0,-2.445464849E0
8.802801511E1,2.793022156E0,-6.756134510E0,2.312663078E0
8.852801511E1,3.700500250E0,-5.930611134E0,-4.205385685E0
8.902801511E1,1.570888042E0,-9.415159225E0,-3.043670416E0
8.952801511E1,3.768097401E0,-1.094118118E1,1.484746456E0
9.002801511E1,2.646461725E0,-1.108355427E1,-2.510669231E0
9.052801511E1,9.880562782E0,-1.029751205E1,-4.594219327E-1
9.102801511E1,3.574877024E0,-1.198804188E1,-1.077966571E0
9.152801511E1,1.087478065E1,-1.061097240E1,-1.597209096E0
9.202801511E1,5.656632900E0,-1.085204887E1,3.463610709E-1
9.252801511E1,7.232904434E0,-7.609176159E0,1.651047587E0
9.302801511E1,6.445067883E0,-6.498906136E0,-3.678964853E0
9.352801511E1,2.827120066E0,-7.350750923E0,1.159920812E0
9.402801511E1,3.856033802E0,-6.997809887E0,-1.185643673E0
9.452801511E1,2.178664923E0,-1.066600704E1,-3.252444267E0
9.502801511E1,6.412764549E0,-1.283868980E1,1.839482427E0
9.552801511E1,2.874976397E0,-1.118524933E1,-9.930214286E-2
9.602801511E1,7.904689789E0,-1.197009563E1,1.037288666E0
9.652801511E1,3.393022537E0,-1.253061390E1,-5.760720372E-1
9.702801511E1,1.202632618E1,-1.059182930E1,7.776673883E-2
9.752801511E1,4.197010994E0,-1.103450203E1,1.447657645E-1
9.802801511E1,7.548757076E0,-7.333403111E0,-1.250249863E0
9.852801511E1,4.826921463E0,-5.386841774E0,-3.369094372E0
9.902801511E1,3.323032379E0,-6.993622303E0,8.261220455E-1
9.952801511E1,5.214558601E0,-4.750350952E0,-3.391227961E0
1.000280151E2,1.239482164E0,-8.668598175E0,-2.532802820E0
1.005280151E2,3.404388428E0,-7.749155998E0,-8.931210637E-1
1.010280151E2,4.073780537E0,-1.203410339E1,-1.148554921E0
1.015280151E2,4.377070904E0,-1.231944752E1,1.695314884E0
1.020280151E2,6.927221417E-1,-1.343330669E1,1.412961721E0
1.025280151E2,5.402993679E0,-1.191446209E1,2.245664120E0
1.030280151E2,1.207179070E0,-1.197488117E1,-6.616154313E-1
1.035280151E2,9.072386742E0,-1.094955635E1,-4.127618968E-1
1.040280151E2,4.724628448E0,-1.241097260E1,-5.647061467E-1
1.045280151E2,1.158425236E1,-8.111668587E0,-1.017547846E0
1.050280151E2,3.758526087E0,-1.124327564E1,-7.956135273E-1
1.055280151E2,7.952546120E0,-1.041835022E1,-2.263610125E0
1.060280151E2,5.345565796E0,-8.963513374E0,-1.135394335E0
1.065280151E2,5.806184292E0,-1.060020447E1,1.786242127E0
1.070280151E2,3.218944550E0,-6.124429703E0,-1.427916884E0
1.075280151E2,3.939782381E0,-7.588238716E0,2.512463808E0
1.080280151E2,4.435096741E0,-6.053841114E0,-3.133401155E0
1.085280151E2,2.233700037E0,-8.027321815E0,8.530412912E-1
1.090280151E2,3.576671600E0,-7.024130821E0,-2.581257343E0
1.095280151E2,1.724028707E0,-9.991230965E0,-1.799402595E0
1.100280151E2,4.789234638E0,-1.015872860E1,1.470389485E0
1.105280151E2,3.329612732E0,-1.015155029E1,-8.338986635E-1
1.110280151E2,5.556134224E0,-1.259402370E1,6.574280262E-1
1.115280151E2,2.654836655E0,-1.053799057E1,-3.110669553E-1
1.120280151E2,8.435297966E0,-1.235534000E1,1.528415442E0
1.125280151E2,2.444268227E0,-1.189232826E1,2.667997181E-1
1.130280151E2,9.751350403E0,-1.074855900E1,2.261815548E0
1.135280151E2,4.404588223E0,-1.025264645E1,1.035493970E0
1.140280151E2,1.070070267E1,-1.010608673E1,8.165507317E-1
1.145280151E2,3.300898790E0,-1.358046532E1,-3.170489892E-2
1.150280151E2,9.358927727E0,-8.891729355E0,-2.295913219E0
1.155280151E2,4.362713814E0,-9.069993973E0,-2.172683001E0
1.160280151E2,5.688935757E0,-9.093922615E0,-1.394417405E0
1.165280151E2,3.491726398E0,-5.842076302E0,-3.276372433E0
1.170280151E2,2.589034081E0,-8.343173981E0,3.198007345E0
1.175280151E2,5.246263504E0,-4.657629490E0,-3.707080364E0
1.180280151E2,1.823330879E0,-8.735597610E0,-1.278963685E0
1.185280151E2,3.399602890E0,-7.877171993E0,-8.213363886E-1
1.190280151E2,2.050050735E0,-8.801998138E0,-2.305484533E0
1.195280151E2,2.516052961E0,-1.202453232E1,1.197607756E0
1.200280151E2,2.927020311E0,-1.041476059E1,-1.882553220E0
1.205280151E2,7.362117290E0,-1.422174168E1,1.695314884E0
1.210280151E2,5.042873859E0,-1.226261806E1,2.697907388E-1
1.215280151E2,9.657432556E0,-1.392144203E1,1.986042738E0
1.220280151E2,3.142972469E0,-1.202034473E1,-1.183848977E0
1.225280151E2,9.979267120E0,-1.035912704E1,-1.092323542E0
1.230280151E2,3.535395384E0,-1.210768223E1,4.277170599E-1
1.235280151E2,7.673183918E0,-7.329813957E0,-3.332005441E-1
1.240280151E2,4.325026989E0,-7.402196884E0,-2.764906645E0
1.245280151E2,3.839882135E0,-7.834101200E0,9.774680734E-1
1.250280151E2,3.741178274E0,-4.572085857E0,-3.966103554E0
1.255280151E2,1.973480463E0,-6.691528320E0,-1.046261668E0
1.260280151E2,3.363112211E0,-7.546962738E0,-6.580262445E-3
1.265280151E2,4.390829504E-1,-7.737192154E0,-2.051845312E0
1.270280151E2,3.807579041E0,-9.151947975E0,1.274178028E0
1.275280151E2,3.010170937E0,-1.046979523E1,-5.407779217E-1
1.280280151E2,6.165107727E0,-1.212802124E1,9.840483069E-1
1.285280151E2,3.922434568E0,-1.270469189E1,1.036690354E0
1.290280151E2,6.720242500E0,-1.181874943E1,-6.394818425E-1
1.295280151E2,3.803391695E0,-1.328016567E1,-1.076770201E-2
1.300280151E2,9.163313866E0,-9.900303841E0,-1.147358418E0
1.305280151E2,5.635695457E0,-8.524430275E0,1.112064362E0
1.310280151E2,4.881358147E0,-7.026523590E0,2.026122570E0
1.315280151E2,4.308875561E0,-4.597808838E0,-4.455435753E0
1.320280151E2,2.775674343E0,-6.619743824E0,1.130608678E0
1.325280151E2,3.018545866E0,-7.382455826E0,-2.432304144E0
1.330280151E2,1.185643673E0,-6.933203697E0,-9.361918569E-1
1.335280151E2,4.634299278E0,-5.350351334E0,-1.960319996E0
1.340280151E2,2.903092146E0,-9.418149948E0,-2.001596212E0
1.345280151E2,4.528416634E0,-1.154118156E1,-8.422735929E-1
1.350280151E2,4.238885403E0,-1.280638695E1,3.984049559E-1
1.355280151E2,4.938786030E0,-1.347637749E1,1.527817249E0
1.360280151E2,4.831707001E0,-1.143649578E1,3.954139352E-1
1.365280151E2,8.602795601E0,-1.071685410E1,-3.105883837E0
1.370280151E2,3.725026608E0,-1.316830158E1,-1.099501967E0
1.375280151E2,6.880561352E0,-8.455039024E0,-8.584251404E-1
1.380280151E2,3.372683525E0,-6.417550564E0,-3.091526747E0
1.385280151E2,2.021337032E0,-8.928817749E0,1.356132269E0
1.390280151E2,3.690928936E0,-6.293123722E0,8.691928387E-1
1.395280151E2,1.945963025E0,-8.063812256E0,-7.357929647E-2
1.400280151E2,1.408176184E0,-1.073420238E1,3.523431420E-1
1.405280151E2,3.011965513E0,-1.063011456E1,-1.165902853E0
1.410280151E2,6.342176437E0,-1.288893890E1,9.678967595E-1
1.415280151E2,1.365703583E0,-1.108833981E1,3.714857101E-1
1.420280151E2,8.059026718E0,-1.182233810E1,2.219343036E-1
1.425280151E2,2.245664120E0,-1.422114277E1,1.099501967E0
1.430280151E2,9.921838760E0,-1.179541969E1,-6.107679605E-1
1.435280151E2,4.463212490E0,-1.334357548E1,-7.339983582E-1
1.440280151E2,9.414560318E0,-1.033579731E1,-7.836494446E-1
1.445280151E2,4.139583111E0,-7.249056339E0,-2.914458036E0
1.450280151E2,3.056830883E0,-4.836492538E0,2.093719840E-1
1.455280151E2,3.147160053E0,-5.773283005E0,-3.010170937E0
1.460280151E2,3.375674486E0,-1.047099209E1,-2.629113913E0
1.465280151E2,3.475574970E0,-1.222433281E1,6.209374666E-1
1.470280151E2,2.982653379E0,-1.210887909E1,-3.541377485E-1
1.475280151E2,7.730611801E0,-1.411286831E1,-1.169492126E0
1.480280151E2,1.807179332E0,-1.337109280E1,-6.765705943E-1
1.485280151E2,6.930810928E0,-7.871190071E0,-1.373480201E0
1.490280151E2,4.765306473E0,-5.066802025E0,-4.389633179E0
1.495280151E2,2.167897224E0,-6.452246189E0,1.484746456E0
1.500280151E2,3.150749207E0,-5.727221012E0,-3.075973511E0
1.505280151E2,1.118046403E0,-9.198010445E0,-2.558525562E0
1.510280151E2,2.506481647E0,-1.048176003E1,-7.579265833E-1
1.515280151E2,3.605385542E0,-1.094656563E1,-1.176072359E0
1.520280151E2,6.157330990E0,-1.299183083E1,1.836491346E0
1.525280151E2,2.907877684E0,-1.324068451E1,-6.448656917E-1
1.530280151E2,8.508877754E0,-1.064148045E1,-1.758724600E-1
1.535280151E2,3.211168051E0,-1.348714447E1,-9.607182741E-1
1.540280151E2,8.103293419E0,-8.918647766E0,-2.724826813E0
1.545280151E2,5.617151260E0,-8.541180611E0,-1.914258122E0
1.550280151E2,4.477569580E0,-1.035733318E1,8.578268886E-1
1.555280151E2,4.720440865E0,-5.620141983E0,-4.137788773E0
1.560280151E2,1.134197950E0,-8.073383331E0,2.036890268E0
1.565280151E2,5.039284706E0,-5.645864964E0,-2.534597397E0
1.570280151E2,8.913264275E-1,-8.529814720E0,-2.937189817E0
1.575280151E2,1.515853167E0,-8.336593628E0,-7.980063558E-1
1.580280151E2,2.649452925E0,-1.049013424E1,-3.287738323E0
1.585280151E2,4.560719967E0,-1.332682610E1,1.969891191E0
1.590280151E2,3.266801119E0,-1.308694553E1,-9.200403094E-1
1.595280151E2,9.912267685E0,-1.262752342E1,-8.973085135E-2
1.600280151E2,3.710071564E0,-1.287996578E1,1.058824062E0
1.605280151E2,8.813961983E0,-8.365307808E0,-1.843669891E0
1.610280151E2,5.645864964E0,-1.021854877E1,-1.036690354E0
1.615280151E2,3.956532240E0,-9.115457535E0,4.366901219E-1
1.620280151E2,6.554539204E0,-4.664807796E0,-4.174877167E0
1.625280151E2,2.310270309E0,-6.821339130E0,-9.062815905E-1
1.630280151E2,3.600599766E0,-6.127420425E0,-1.295713425E0
1.635280151E2,5.886343479E0,-8.562715530E0,-1.167697430E0
1.640280151E2,6.031109333E0,-1.202273750E1,-1.036690354E0
1.645280151E2,4.345366001E0,-1.220040417E1,-1.283749342E0
1.650280151E2,7.817949772E0,-1.283988667E1,-1.349551916E0
1.655280151E2,1.092323542E0,-1.181456184E1,-1.122832060E0
1.660280151E2,5.721837044E0,-8.076972961E0,-3.427718580E-1
1.665280151E2,4.462016106E0,-5.916851997E0,-4.089931965E0
1.670280151E2,1.169492126E0,-6.705885410E0,-1.226321608E-1
1.675280151E2,3.118446112E0,-6.312266350E0,-9.607182741E-1
1.680280151E2,1.124626637E0,-7.990831375E0,-1.710868180E-1
1.685280151E2,3.605385542E0,-7.843672752E0,-2.083550215E0
1.690280151E2,2.849253654E0,-1.027298546E1,-1.207777262E0
1.695280151E2,4.989633560E0,-1.281595802E1,2.216950178E0
1.700280151E2,6.412764788E-1,-1.325504112E1,1.149751306E0
1.705280151E2,7.993822098E0,-1.269990635E1,-3.476173162E0
1.710280151E2,3.119044304E0,-1.185404301E1,3.972085714E-1
1.715280151E2,7.646264553E0,-8.886942863E0,1.250249863E0
1.720280151E2,4.672584534E0,-6.827321053E0,-4.841876507E0
1.725280151E2,2.547159672E0,-5.461617470E0,1.051645517E0
1.730280151E2,3.246462107E0,-4.011567116E0,-3.761517286E0
1.735280151E2,7.878368497E-1,-7.065407276E0,3.122633696E-1
1.740280151E2,1.898704767E0,-8.894720078E0,5.407779217E-1
1.745280151E2,3.153740168E0,-1.037168980E1,-1.453639746E0
1.750280151E2,6.655636311E0,-1.177448177E1,-1.204786181E0
1.755280151E2,1.311266780E0,-1.379821205E1,6.448656917E-1
1.760280151E2,6.047859192E0,-1.085025406E1,4.187439755E-2
1.765280151E2,2.772683144E0,-1.309053421E1,-1.118046403E0
1.770280151E2,8.224729538E0,-8.836095810E0,-2.525624275E0
1.775280151E2,6.817749977E0,-8.219944000E0,-2.807379246E0
1.780280151E2,4.134797573E0,-9.019744873E0,1.179063320E0
1.785280151E2,4.191029072E0,-5.203192711E0,-1.432104349E0
1.790280151E2,2.519043922E0,-7.830512047E0,2.075175524E0
1.795280151E2,4.188635826E0,-6.170491219E0,-3.222533941E0
1.800280151E2,2.374876499E0,-9.421140671E0,-2.374876499E0
1.805280151E2,3.305684566E0,-1.171047401E1,7.788637877E-1
1.810280151E2,3.041875839E0,-1.215434265E1,2.039881349E-1
1.815280151E2,8.247461319E0,-1.251745319E1,6.221339107E-1
1.820280151E2,1.357926846E0,-1.162792206E1,-1.351944804E-1
1.825280151E2,9.004789352E0,-9.058030128E0,-2.082952023E0
1.830280151E2,4.626522541E0,-9.522237778E0,-5.922235847E-1
1.835280151E2,5.746363640E0,-6.979265213E0,1.065404296E0
1.840280151E2,4.990231514E0,-5.374279499E0,-3.785445452E0
1.845280151E2,3.142374277E0,-6.181857109E0,2.056032896E0
1.850280151E2,4.587639332E0,-5.093721390E0,-2.364108801E0
1.855280151E2,2.641676188E0,-8.252246857E0,-1.316052437E0
1.860280151E2,1.712064624E0,-9.767501831E0,-1.914258152E-1
1.865280151E2,3.443870068E0,-1.014556789E1,-9.870393276E-1
1.870280151E2,3.689732552E0,-1.321974659E1,8.021938205E-1
1.875280151E2,3.571287870E0,-1.301994610E1,6.568298340E-1
1.880280151E2,8.475378036E0,-1.234875965E1,-1.984846354E0
1.885280151E2,3.766302824E0,-1.362174129E1,-2.356930375E-1
1.890280151E2,7.566105366E0,-8.669795036E0,-2.739183664E0
1.895280151E2,8.554341197E-1,-7.925028801E0,-3.182454109E0
1.900280151E2,3.606581926E0,-7.488338470E0,2.534597397E0
1.905280151E2,4.772484779E0,-3.600001574E0,-3.588037491E0
1.910280151E2,2.383251429E0,-6.512066841E0,1.274178028E0
1.915280151E2,4.473381996E0,-6.535995007E0,-1.622333765E0
1.920280151E2,1.713261008E0,-8.073383331E0,-2.532802820E0
1.925280151E2,2.441875458E0,-9.826126099E0,-3.541377485E-1
1.930280151E2,3.582653761E0,-1.153639603E1,1.722832322E-1
1.935280151E2,6.705885410E0,-1.228654575E1,1.123430252E0
1.940280151E2,1.777269006E0,-1.169432259E1,-5.419743061E-1
1.945280151E2,9.247062683E0,-1.127318573E1,-2.602194548E-1
1.950280151E2,3.574877024E0,-1.270588779E1,-5.922235921E-2
1.955280151E2,8.204390526E0,-8.699107170E0,-6.340979785E-2
1.960280151E2,4.622933388E0,-4.796412945E0,-3.413361549E0
1.965280151E2,3.884149313E0,-5.980261803E0,1.389631748E0
1.970280151E2,2.760120869E0,-5.725426197E0,-3.262613773E0
1.975280151E2,1.511067510E0,-7.722237110E0,-1.903490424E0
1.980280151E2,4.612165451E0,-9.489934921E0,2.167897224E0
1.985280151E2,3.595216036E0,-1.050568771E1,-1.082752272E-1
1.990280151E2,7.359126091E0,-1.483669662E1,1.915454507E0
1.995280151E2,2.146960020E0,-1.271067429E1,1.561915040E0
2.000280151E2,9.729216576E0,-9.210572243E0,7.537391037E-2
2.005280151E2,4.143172264E0,-8.699107170E0,-1.064806059E-1
2.010280151E2,4.599005222E0,-7.339385033E0,1.895115495E0
2.015280151E2,4.459024906E0,-4.080958843E0,-3.617947817E0
2.020280151E2,1.822134495E0,-6.742974281E0,5.407779217E-1
2.025280151E2,4.436293125E0,-5.803791523E0,-1.621137381E0
2.030280151E2,2.108675003E0,-9.032307625E0,-2.425125837E0
2.035280151E2,3.133401155E0,-1.203948689E1,7.004988194E-1
2.040280151E2,2.249253273E0,-1.136770248E1,-2.883351147E-1
2.045280151E2,6.882954121E0,-1.180618668E1,2.845664263E0
2.050280151E2,1.646261930E0,-9.682557106E0,2.949153781E-1
2.055280151E2,9.290133476E0,-1.024008465E1,-2.300698996E0
2.060280151E2,3.530609846E0,-1.034955597E1,9.930214286E-2
2.065280151E2,4.861019135E0,-7.435098171E0,2.012962103E0
2.070280151E2,5.402993679E0,-4.152743816E0,-1.802393675E0
2.075280151E2,9.631111026E-1,-6.760920525E0,1.078564763E0
2.080280151E2,3.467798233E0,-5.772684574E0,-3.066402197E0
2.085280151E2,1.840678811E0,-8.124829292E0,-2.032702923E0
2.090280151E2,3.069393158E0,-1.173260784E1,4.917250574E-1
2.095280151E2,3.119044304E0,-1.084307575E1,-3.050848842E-1
2.100280151E2,8.118248940E0,-1.339801216E1,6.568298340E-1
2.105280151E2,2.260020971E0,-1.336630726E1,5.982056856E-1
2.110280151E2,7.843672752E0,-1.064207840E1,-2.033899307E0
2.115280151E2,3.734597921E0,-1.261615753E1,-3.816552162E-1
2.120280151E2,5.368297577E0,-8.918647766E0,2.075773627E-1
2.125280151E2,2.069193363E0,-8.672785759E0,-5.349154949E0
2.130280151E2,9.391828775E-1,-7.546962738E0,3.619144261E-1
2.135280151E2,3.094517946E0,-4.425525665E0,-3.359523058E0
2.140280151E2,6.891329288E-1,-7.043273449E0,-5.276173949E-1
2.145280151E2,3.013161898E0,-7.867600918E0,-1.419542074E0
2.150280151E2,3.032304525E0,-9.678369522E0,-2.419741869E0
2.155280151E2,1.917249203E0,-1.159561825E1,4.426721856E-2
2.160280151E2,3.302095175E0,-1.013599682E1,-5.874379873E-1
2.165280151E2,6.545566559E0,-1.339621735E1,1.216750264E0
2.170280151E2,2.641676188E0,-1.196590805E1,-6.825526357E-1
2.175280151E2,9.017950058E0,-1.219262791E1,-1.487139225E0
2.180280151E2,2.265404940E0,-1.256710434E1,-1.406979680E0
2.185280151E2,9.282357216E0,-8.020741463E0,-8.201399446E-1
2.190280151E2,6.122036934E0,-8.137392044E0,-1.330409408E0
2.195280151E2,3.863212109E0,-8.931808472E0,1.094118118E0
2.200280151E2,4.900500774E0,-5.620141983E0,-4.258028030E0
2.205280151E2,1.308275819E0,-7.095317364E0,2.611765862E0
2.210280151E2,4.418945312E0,-7.219744205E0,-5.246263742E-1
2.215280151E2,1.714457393E0,-9.299705505E0,-2.288734913E0
2.220280151E2,5.239085197E0,-9.954142570E0,8.596215248E-1
2.225280151E2,3.380460262E0,-1.072163963E1,2.392822653E-1
2.230280151E2,6.360122681E0,-1.270887947E1,1.503889084E0
2.235280151E2,2.056032896E0,-1.210170078E1,2.757728100E-1
2.240280151E2,9.416953087E0,-9.855438232E0,-8.069794178E-1
2.245280151E2,4.006781578E0,-1.367857075E1,-4.307080805E-2
2.250280151E2,7.315456867E0,-1.035254669E1,-3.062812984E-1
2.255280151E2,4.776073933E0,-8.992227554E0,-3.025724173E0
2.260280151E2,4.600201607E0,-7.944170952E0,1.722832322E-1
2.265280151E2,4.222135544E0,-5.000999451E0,-4.558925152E0
2.270280151E2,1.657029629E0,-6.211767673E0,8.099704385E-1
2.275280151E2,4.050450325E0,-5.790630817E0,-3.163311481E0
2.280280151E2,1.415354609E0,-8.629714966E0,-4.528416991E-1
2.285280151E2,3.729214191E0,-6.832705021E0,-2.121237278E0
2.290280151E2,1.889133453E0,-9.491728783E0,-1.001396298E0
2.295280151E2,1.903490424E0,-1.160519028E1,4.606183618E-2
2.300280151E2,2.968894720E0,-1.121396351E1,-2.092523336E0
2.305280151E2,5.679364681E0,-1.428515148E1,8.458628058E-1
2.310280151E2,2.891726255E0,-1.170269775E1,-1.848455518E-1
2.315280151E2,8.739784241E0,-1.294217968E1,-7.322037220E-1
2.320280151E2,3.614358664E0,-1.353081417E1,3.990031779E-1
2.325280151E2,8.811569214E0,-8.068597794E0,-1.783849239E0
2.330280151E2,6.337390900E0,-1.124507046E1,1.052841991E-1
2.335280151E2,6.470192432E0,-8.550153732E0,-1.379462242E0
2.340280151E2,4.064807415E0,-5.495715618E0,-3.391826153E0
2.345280151E2,2.261815548E0,-6.797410965E0,1.576271892E0
2.350280151E2,3.853640795E0,-4.938786030E0,-4.946562767E0
2.355280151E2,1.645065546E0,-7.039684296E0,-2.572284266E-2
2.360280151E2,3.789034605E0,-6.394818306E0,-2.173879385E0
2.365280151E2,1.832902193E0,-9.746564865E0,-1.461416483E0
2.370280151E2,2.304886341E0,-1.178225899E1,4.067798555E-1
2.375280151E2,4.023531437E0,-9.940981865E0,1.073779106E0
2.380280151E2,9.848857880E0,-1.242951679E1,3.708875179E-2
2.385280151E2,4.162314892E0,-1.331546021E1,-4.295116663E-1
2.390280151E2,1.029272652E1,-1.033220863E1,-1.140778184E0
2.395280151E2,5.704489231E0,-9.805787086E0,2.964108944E0
2.400280151E2,7.850253105E0,-7.733603001E0,-9.122636318E-1
2.405280151E2,3.276970625E0,-7.374679565E0,-2.216950178E0
2.410280151E2,2.245664120E0,-7.378268719E0,9.726824164E-1
2.415280151E2,6.755536556E0,-3.726222992E0,-5.302495003E0
2.420280151E2,2.679961443E0,-5.894718647E0,2.145763636E0
2.425280151E2,3.616153240E0,-5.916254044E0,-2.035693884E0
2.430280151E2,3.001796007E0,-7.810173035E0,-2.181057930E0
2.435280151E2,3.388236761E0,-9.576076508E0,1.256231871E-2
2.440280151E2,4.569094658E0,-9.253643036E0,-2.465803623E0
2.445280151E2,7.378268719E0,-1.173799133E1,9.762716293E-1
2.450280151E2,4.476373196E0,-1.234098244E1,4.995017350E-1
2.455280151E2,1.029093170E1,-1.252044487E1,4.498506486E-1
2.460280151E2,3.431307554E0,-1.317368507E1,1.262213886E-1
2.465280151E2,9.064012527E0,-8.464012146E0,-6.873382926E-1
2.470280151E2,4.358526230E0,-9.871589661E0,-2.859423161E-1
2.475280151E2,5.117051125E0,-9.658628464E0,1.496710539E0
2.480280151E2,6.068198204E0,-6.004788399E0,-3.554538012E0
2.485280151E2,2.220539331E0,-8.519644737E0,2.420340061E0
2.490280151E2,5.880361557E0,-5.935396671E0,-1.923829436E0
2.495280151E2,9.296116233E-1,-8.896514893E0,3.314059377E-1
2.500280151E2,4.193421841E0,-8.263014793E0,-2.632105052E-1
2.505280151E2,2.234896421E0,-1.142213917E1,-9.678967595E-1
2.510280151E2,7.095317364E0,-1.331366539E1,1.536192179E0
2.515280151E2,1.563111424E0,-1.350030518E1,-2.512463741E-2
2.520280151E2,9.834501266E0,-1.162792206E1,-1.269990563E0
2.525280151E2,3.788436413E0,-1.268854046E1,1.107278705E0
2.530280151E2,7.853243828E0,-7.937591076E0,-1.097707391E0
2.535280151E2,4.707280159E0,-6.915257454E0,-2.344966173E0
2.540280151E2,2.432304144E0,-6.918248653E0,2.391027927E0
2.545280151E2,3.641875982E0,-4.350151539E0,-3.306880951E0
2.550280151E2,7.052844763E-1,-6.937391281E0,1.448854089E0
2.555280151E2,3.769293785E0,-6.565905571E0,-8.087740541E-1
2.560280151E2,2.410170555E0,-9.252447128E0,-1.700698733E0
2.565280151E2,4.424927235E0,-1.003250694E1,8.727820516E-1
2.570280151E2,2.986242771E0,-1.039442158E1,1.293918848E0
2.575280151E2,6.336194515E0,-1.239302635E1,1.891526341E0
2.580280151E2,1.783849239E0,-1.350808239E1,-2.554338276E-1
2.585280151E2,8.398807526E0,-1.041356373E1,-1.627119333E-1
2.590280151E2,3.573082447E0,-1.126421261E1,-3.178864956E0
2.595280151E2,6.477969170E0,-8.889934540E0,-1.979462504E0
2.600280151E2,5.444269657E0,-7.701299667E0,-2.918047190E0
2.605280151E2,2.530410051E0,-7.910671711E0,2.332403898E0
2.610280151E2,4.418346882E0,-5.039284706E0,-3.549154282E0
2.615280151E2,1.677966833E0,-8.743373871E0,7.166503668E-1
2.620280151E2,4.021736622E0,-7.402196884E0,-1.355534077E0
2.625280151E2,8.691928387E-1,-8.864809990E0,-1.405783296E0
2.630280151E2,3.198605776E0,-1.095075321E1,6.424728632E-1
2.635280151E2,3.996013880E0,-1.139163017E1,-1.360917926E0
2.640280151E2,9.129815102E0,-1.154477119E1,1.015753269E0
2.645280151E2,3.334398270E0,-1.230748367E1,2.775674164E-1
2.650280151E2,9.515657425E0,-1.182532978E1,1.654038668E0
2.655280151E2,2.468196630E0,-1.338186073E1,9.990034699E-1
2.660280151E2,7.987242222E0,-9.213563919E0,-4.582255483E-1
2.665280151E2,4.658227444E0,-9.588638306E0,-4.097708762E-1
2.670280151E2,3.175873756E0,-7.511668682E0,1.264606714E0
2.675280151E2,5.873781204E0,-6.122036934E0,-2.711666346E0
2.680280151E2,3.140579700E0,-6.261418819E0,1.782054663E0
2.685280151E2,3.648456335E0,-5.664409637E0,-3.586242914E0
2.690280151E2,2.709871531E-1,-8.733802795E0,-1.143769264E0
2.695280151E2,3.236292601E-1,-1.083829021E1,-6.340979785E-2
2.700280151E2,1.435693540E-2,-1.006899738E1,6.699903309E-2
2.705280151E2,3.353540897E0,-1.418943787E1,-9.487541914E-1
2.710280151E2,1.762912035E0,-1.353559971E1,5.706881881E-1
2.715280151E2,1.265982628E1,-1.018684387E1,3.768695593E-1
2.720280151E2,4.040879250E0,-1.011565781E1,9.026923180E-1
2.725280151E2,7.363911629E0,-8.499305725E0,2.283949137E0
2.730280151E2,5.430510998E0,-5.830710411E0,-1.006780148E0
2.735280151E2,4.212564468E0,-6.028118610E0,1.922034740E0
2.740280151E2,3.740580082E0,-3.674179077E0,-3.061616659E0
2.745280151E2,5.003990173E0,-4.908875465E0,-1.200000525E0
2.750280151E2,1.238285661E0,-5.955137253E0,-8.458628058E-1
2.755280151E2,1.121037364E0,-1.156331539E1,-2.681756020E0
2.760280151E2,8.283951759E0,-1.250967693E1,1.141974568E0
2.765280151E2,3.768695593E-1,-1.361157131E1,3.828516304E-1
2.770280151E2,8.191828728E0,-8.896514893E0,-2.284547329E0
2.775280151E2,4.972285271E0,-1.050808048E1,-1.387837082E-1
2.780280151E2,4.010370731E0,-9.816555023E0,-7.226324677E-1
2.785280151E2,5.132006168E0,-5.251647472E0,-3.206382275E0
2.790280151E2,2.378465652E0,-4.650450706E0,-1.226321578E0
2.795280151E2,4.039084435E0,-5.564508915E0,-1.673779488E0
2.800280151E2,1.505683661E0,-8.659027100E0,-1.020538807E0
2.805280151E2,3.472583771E0,-1.020299530E1,3.590430260E0
2.810280151E2,7.549355626E-1,-1.142154026E1,8.183453679E-1
2.815280151E2,5.490929604E0,-1.274895859E1,1.515853167E0
2.820280151E2,1.235892892E0,-1.426600838E1,-2.309073806E-1
2.825280151E2,8.194221497E0,-1.000199890E1,-1.811964989E0
2.830280151E2,5.562116146E0,-1.198923779E1,-5.407779217E-1
2.835280151E2,6.993024349E0,-9.696913719E0,4.917250574E-1
2.840280151E2,4.179663181E0,-7.194619656E0,-2.766103029E0
2.845280151E2,4.557130814E0,-6.719046116E0,1.141974568E0
2.850280151E2,4.334598064E0,-3.992424488E0,-4.561916351E0
2.855280151E2,1.743171334E0,-7.179664135E0,5.808576941E-1
2.860280151E2,4.385445595E0,-4.444069862E0,-4.461417675E0
2.865280151E2,1.491326690E0,-9.771091461E0,-1.299900889E0
2.870280151E2,2.528615236E0,-1.109611702E1,-4.941178858E-1
2.875280151E2,2.338984251E0,-1.141974640E1,-8.506484628E-1
2.880280151E2,4.717449665E0,-1.272024536E1,2.462812662E0
2.885280151E2,2.001596212E0,-1.133420277E1,-9.810572863E-1
2.890280151E2,7.545167923E0,-1.375394440E1,2.341975212E0
2.895280151E2,1.011565804E0,-1.153340530E1,-2.907279432E-1
2.900280151E2,1.007019424E1,-1.110090256E1,1.722832322E0
2.905280151E2,-2.273181453E-2,-1.317966747E1,-2.213360965E-1
2.910280151E2,1.131805134E1,-8.679964066E0,6.077769399E-1
2.915280151E2,3.262613773E0,-1.263410378E1,1.198205948E0
2.920280151E2,6.364908218E0,-1.375992680E1,-8.949156404E-1
2.925280151E2,9.757930756E0,-1.094297600E1,4.586442947E0
2.930280151E2,4.328018188E0,-1.126361465E1,6.831508875E-1
2.935280151E2,1.085982513E1,-3.520440340E0,-5.911468506E0
2.940280151E2,5.192425251E0,-7.278966427E0,1.324427366E0
2.945280151E2,5.577071190E0,-4.200001717E0,-3.351746321E0
2.950280151E2,1.941177368E0,-1.053499985E1,-2.907279432E-1
2.955280151E2,5.473581791E0,-7.753942013E0,9.122636318E-1
2.960280151E2,3.006581545E0,-9.376275063E0,-2.094916344E0
2.965280151E2,5.251049519E0,-1.172483063E1,2.986242771E0
2.970280151E2,3.423531055E0,-1.005344391E1,-2.012962103E0
2.975280151E2,4.314857483E0,-1.263888931E1,3.141177893E0
2.980280151E2,1.902892232E0,-1.020000458E1,-1.008574724E0
2.985280151E2,6.580262184E0,-1.169312572E1,2.073380709E0
2.990280151E2,4.024727821E0,-8.459824562E0,-6.891329288E-1
2.995280151E2,7.221538544E0,-1.021077251E1,2.691925503E-2
3.000280151E2,3.576671600E0,-9.727422714E0,9.750752151E-2
3.005280151E2,6.088537216E0,-8.180462837E0,-6.807580590E-1
3.010280151E2,3.011367321E0,-1.188156128E1,-6.496513486E-1
3.015280151E2,6.457630157E0,-1.047577763E1,-1.016949639E-1
3.020280151E2,7.144968510E0,-7.902296543E0,-1.729412556E0
3.025280151E2,1.945963025E0,-9.090931892E0,8.315058798E-2
3.030280151E2,4.946562767E0,-6.892525673E0,-4.271188378E-1
3.035280151E2,5.871986866E0,-9.282955170E0,-4.863412082E-1
3.040280151E2,3.443870068E0,-9.488738060E0,7.160521746E-1
3.045280151E2,5.974279881E0,-7.976474285E0,-3.858426511E-1
3.050280151E2,4.625924587E0,-8.888737679E0,-2.512463741E-2
3.055280151E2,3.906881094E0,-8.861220360E0,6.729813814E-1
3.060280151E2,4.527220249E0,-8.705088615E0,6.526423693E-1
3.065280151E2,4.364508629E0,-8.875576973E0,4.707878530E-1
3.070280151E2,6.681957245E0,-1.074556828E1,9.906286001E-1
3.075280151E2,6.448058605E0,-1.072821999E1,1.433898926E0
3.080280151E2,4.607379913E0,-8.062017441E0,2.566302419E-1
3.085280151E2,4.942375183E0,-1.088255692E1,2.124826431E0
3.090280151E2,1.657627940E0,-1.097707367E1,-2.691925466E-1
3.095280151E2,9.735198975E0,-1.029571724E1,6.173482537E-1
3.100280151E2,2.980260611E0,-1.216152096E1,-4.420739710E-1
3.105280151E2,7.822735310E0,-8.419146538E0,-1.556531072E0
3.110280151E2,4.748556614E0,-8.169096947E0,-1.886740685E0
3.115280151E2,3.952943087E0,-7.902296543E0,3.311666489E0
3.120280151E2,5.341976643E0,-6.273981094E0,-5.157729149E0
3.125280151E2,7.122834682E0,-6.902695179E0,2.376671076E0
3.130280151E2,5.236692429E0,-5.892325878E0,-2.901895761E0
3.135280151E2,3.255435228E0,-9.055637360E0,2.987439156E0
3.140280151E2,6.466603279E0,-4.816154003E0,-2.231307030E0
3.145280151E2,3.034099102E0,-9.142376900E0,-1.100698471E0
3.150280151E2,4.772484779E0,-6.873981476E0,-2.123630047E0
3.155280151E2,3.568296671E0,-1.042911720E1,-1.014556766E0
3.160280151E2,2.601596355E0,-1.278245831E1,1.034895778E0
3.165280151E2,4.509274483E0,-1.040698433E1,-5.970092416E-1
3.170280151E2,2.932404041E0,-1.483430386E1,3.547359467E0
3.175280151E2,4.825126648E0,-1.088136101E1,4.307080805E-2
3.180280151E2,6.189035892E0,-1.323051453E1,1.518844128E0
3.185280151E2,3.458226919E0,-1.073599720E1,-1.735992789E0
3.190280151E2,9.229715347E0,-1.401057434E1,2.179263115E0
3.195280151E2,2.944966555E0,-1.209212875E1,-1.639083475E-1
3.200280151E2,9.821340561E0,-1.345364571E1,3.288934708E0
3.205280151E2,3.969094515E0,-1.338903904E1,-1.353141189E0
3.210280151E2,8.227720261E0,-7.057032108E0,-1.614557028E0
3.215280151E2,3.669393539E0,-7.966304779E0,4.564309120E-1
3.220280151E2,-5.676971674E-1,-1.100518990E1,1.080359459E0
3.225280151E2,1.817348838E0,-6.491129398E0,-1.759921074E0
3.230280151E2,5.225924492E0,-5.778068542E0,1.509272933E0
3.235280151E2,5.472983360E0,-5.093122959E0,-5.199005604E0
3.240280151E2,3.176471949E0,-8.362317085E0,1.223928809E0
3.245280151E2,7.378268719E0,-5.875576019E0,-4.093521118E0
3.250280151E2,4.238885403E0,-1.078983593E1,1.131206870E0
3.255280151E2,5.401797295E0,-1.432343674E1,-7.896314859E-1
3.260280151E2,5.605785370E0,-8.199007034E0,-1.214357495E0
3.265280151E2,1.899901152E0,-8.322237015E0,-6.065805554E-1
3.270280151E2,6.719046116E0,-7.845467091E0,-4.175475538E-1
3.275280151E2,3.013760090E0,-8.858229637E0,6.496513486E-1
3.280280151E2,6.090332031E0,-8.408378601E0,-4.247260094E-1
3.285280151E2,3.774677753E0,-8.762516975E0,-3.948157281E-2
3.290280151E2,4.234099865E0,-9.198010445E0,1.214357466E-1
3.295280151E2,4.614558697E0,-9.154939651E0,2.979064286E-1
3.300280151E2,4.431507587E0,-8.009973526E0,-4.426721856E-2
3.305280151E2,4.634299278E0,-8.541180611E0,-3.320041299E-1
3.310280151E2,3.719642878E0,-7.799405575E0,1.347757339E0
3.315280151E2,3.544368505E0,-6.934400082E0,-1.533201098E0
3.320280151E2,3.793820381E0,-7.393822193E0,1.978266120E0
3.325280151E2,4.705485821E0,-5.661418438E0,-2.600399971E0
3.330280151E2,3.263810158E0,-1.035135078E1,-9.284151793E-1
3.335280151E2,1.758126378E0,-1.019521904E1,-6.400800347E-1
3.340280151E2,4.047459602E0,-1.216810131E1,-1.215553880E0
3.345280151E2,7.060023308E0,-1.080778122E1,3.981656790E0
3.350280151E2,2.270190477E0,-1.044706345E1,1.351944804E-1
3.355280151E2,9.269794464E0,-9.745368004E0,9.535398483E-1
3.360280151E2,1.025922656E0,-1.196411324E1,-1.461416483E0
3.365280151E2,6.065207005E0,-6.990631580E0,2.442473650E0
3.370280151E2,9.387641907E0,-6.129215240E0,3.298506021E0
3.375280151E2,5.235496044E0,-1.438086414E1,1.410568953E0
3.380280151E2,7.976474285E0,-7.004988194E0,3.008376360E0
3.385280151E2,4.238885403E0,-3.826721668E0,-6.466603279E0
3.390280151E2,2.327020019E-1,-6.985845566E0,-2.496910334E0
3.395280151E2,5.342574596E0,-1.076770210E1,3.659224033E0
3.400280151E2,2.188834429E0,-1.183968639E1,-7.980063558E-1
3.405280151E2,7.634898663E0,-1.306481171E1,2.861815929E0
3.410280151E2,-2.930011272E0,-1.776551247E1,6.230910301E0
3.415280151E2,8.189435959E0,-9.579665184E0,2.027917147E0
3.420280151E2,5.341976285E-1,-5.741578102E0,-4.252644062E0
3.425280151E2,3.295515060E0,-5.412564754E0,5.282155871E-1
3.430280151E2,4.052245140E0,-6.230910301E0,-2.650051117E0
3.435280151E2,2.204387903E0,-1.025683403E1,-1.649253011E0
3.440280151E2,4.482953072E0,-1.308275795E1,3.126821041E0
3.445280151E2,4.426722050E0,-1.310907841E1,2.261217386E-1
3.450280151E2,8.328219414E0,-1.387657642E1,-3.792623878E-1
3.455280151E2,1.207777262E0,-1.521954823E1,5.252245665E-1
3.460280151E2,8.923434258E0,-9.717850685E0,2.735594511E0
3.465280151E2,6.518048763E0,-9.016156197E0,-6.538388133E-1
3.470280151E2,4.603790760E0,-8.950951576E0,4.642075896E-1
3.475280151E2,6.653841496E0,-5.030909538E0,-2.865405083E0
3.480280151E2,1.773679733E0,-8.225327492E0,1.843669891E0
3.485280151E2,3.704089403E0,-7.564310551E0,3.158525825E-1
3.490280151E2,1.299900889E0,-7.851449490E0,-1.842473388E0
3.495280151E2,4.328018188E0,-6.649055958E0,6.861419082E-1
3.500280151E2,-8.117650747E-1,-1.066361427E1,-2.536391914E-1
3.505280151E2,9.713663101E0,-1.366182041E1,9.032905698E-1
3.510280151E2,2.909672260E0,-1.233559895E1,2.464607239E0
3.515280151E2,5.461617470E0,-6.917052269E0,-1.774278045E0
3.520280151E2,5.036293507E0,-5.044070244E0,-2.201396942E0
3.525280151E2,4.043870449E0,-6.004788399E0,1.887338877E0
3.530280151E2,5.669195175E0,-3.949353695E0,-3.387040377E0
3.535280151E2,2.560320139E0,-1.034656525E1,-1.791625977E0
3.540280151E2,4.343571186E0,-1.170090294E1,1.925025821E0
3.545280151E2,-4.486542568E-2,-1.357567883E1,-1.238285661E0
3.550280151E2,7.256234646E0,-1.063729286E1,-3.342175007E0
3.555280151E2,1.422533035E0,-6.720840454E0,3.372085333E0
3.560280151E2,4.466801643E0,-6.427121639E0,-3.655036688E-1
3.565280151E2,6.004190445E0,-6.481558323E0,-2.045265198E0
3.570280151E2,2.927618504E0,-9.059226990E0,-2.999403238E0
3.575280151E2,5.539982796E0,-1.146281719E1,3.105883837E0
3.580280151E2,5.404190063E0,-9.662218094E0,1.657029688E-1
3.585280151E2,7.265805721E0,-1.368574905E1,-1.088734269E-1
3.590280151E2,1.017547846E0,-1.443829155E1,-2.271386862E0
3.595280151E2,7.862815380E0,-8.974879265E0,-2.285145670E-1
3.600280151E2,1.963909149E0,-9.576076508E0,-6.604190469E-1
3.605280151E2,3.422932863E0,-7.786244869E0,2.050050735E0
3.610280151E2,3.609572887E0,-6.157330990E0,-2.715853751E-1
3.615280151E2,7.501499057E-1,-6.479763508E0,-4.223332107E-1
3.620280151E2,2.941975355E0,-8.742177963E0,2.716451883E0
3.625280151E2,1.836491346E0,-1.107876873E1,-2.030908108E0
3.630280151E2,4.023531437E0,-1.159920788E1,-6.221338734E-2
3.635280151E2,2.854039192E0,-1.041655540E1,9.798609018E-1
3.640280151E2,9.311669350E0,-1.207896900E1,-1.040877849E-1
3.645280151E2,4.368097782E0,-1.203470135E1,-1.435693540E-2
3.650280151E2,1.121157074E1,-1.069711399E1,-2.456830740E0
3.655280151E2,2.879761934E0,-1.116670513E1,-1.564906001E0
3.660280151E2,4.310071945E0,-8.963513374E0,1.510469317E0
3.665280151E2,4.994419098E0,-4.021736622E0,-4.080360889E0
3.670280151E2,2.904886723E0,-6.781259537E0,6.233302951E-1
3.675280151E2,3.528217077E0,-4.137788773E0,-3.232105255E0
3.680280151E2,5.383851007E-2,-9.189635277E0,-8.937192559E-1
3.685280151E2,1.543370634E-1,-1.053200912E1,-7.465606928E-1
3.690280151E2,2.080559254E0,-1.093878841E1,-2.670390129E0
3.695280151E2,4.314857483E0,-1.259880924E1,1.533201098E0
3.700280151E2,2.654238462E0,-1.380180073E1,-8.057830334E-1
3.705280151E2,9.153742790E0,-1.173739338E1,-2.673979282E0
3.710280151E2,1.698904037E0,-1.641596031E1,-1.302891970E0
3.715280151E2,6.940382004E0,-1.012343407E1,-1.743769526E0
3.720280151E2,5.439484119E0,-8.901300430E0,-1.884347796E-1
3.725280151E2,4.881358147E0,-9.676574707E0,1.408774376E0
3.730280151E2,5.133202553E0,-4.948357105E0,-2.867797852E0
3.735280151E2,2.925823927E0,-6.894918442E0,-1.932204217E-1
3.740280151E2,3.547957659E0,-5.980860233E0,-1.252044439E0
3.745280151E2,2.618944407E0,-9.463015556E0,-2.596810818E0
3.750280151E2,2.439482689E0,-1.099083233E1,5.042873621E-1
3.755280151E2,4.356133461E0,-1.004806042E1,-1.418345571E0
3.760280151E2,7.641479015E0,-1.735454369E1,1.434497118E0
3.765280151E2,5.253442287E0,-1.288594818E1,1.398604870E0
3.770280151E2,9.640084267E0,-1.447478199E1,-2.429313183E0
3.775280151E2,2.934797049E0,-1.167817116E1,1.577468276E0
3.780280151E2,3.600001574E0,-7.619943619E0,-8.823533654E-1
3.785280151E2,5.273781300E0,-6.305685997E0,-4.869992256E0
3.790280151E2,1.087537885E0,-9.017352104E0,2.847458839E0
3.795280151E2,5.741578102E0,-5.054837704E0,-3.195614576E0
3.800280151E2,3.520440340E0,-8.336593628E0,-1.585843205E0
3.805280151E2,3.013161898E0,-7.816154957E0,-1.788634896E0
3.810280151E2,3.131606579E0,-1.042313576E1,-6.616154313E-1
3.815280151E2,4.438087940E0,-1.468415451E1,2.611167669E0
3.820280151E2,2.014756680E0,-1.222134209E1,1.317248821E0
3.825280151E2,7.012764931E0,-1.113978577E1,-3.720839322E-1
3.830280151E2,5.012365341E0,-1.146281719E1,2.374876440E-1
3.835280151E2,6.449853420E0,-1.050628567E1,1.190429211E0
3.840280151E2,5.578866005E0,-4.748556614E0,-1.175474167E0
3.845280151E2,5.452644825E0,-5.843272686E0,1.770688772E0
3.850280151E2,4.016951084E0,-4.828716278E0,-9.343972206E-1
3.855280151E2,-1.196411327E-1,-7.786244869E0,-1.363908887E0
3.860280151E2,1.437488198E0,-7.689335346E0,-2.396411896E0
3.865280151E2,2.458625287E-1,-9.512067795E0,-1.657029688E-1
3.870280151E2,5.857629776E0,-9.598209381E0,-3.936193287E-1
3.875280151E2,3.327219963E0,-1.195753288E1,3.292523861E0
3.880280151E2,9.328418732E0,-1.145324516E1,1.578066587E0
3.885280151E2,2.111665964E0,-1.169611740E1,8.027920127E-1
3.890280151E2,9.922437668E0,-1.078504944E1,-1.237687469E0
3.895280151E2,4.113860130E0,-1.234576797E1,5.186443329E-1
3.900280151E2,6.985845566E0,-7.679165840E0,-1.298704505E0
3.905280151E2,3.743571043E0,-6.260820389E0,-3.818944931E0
3.910280151E2,3.771088600E0,-8.033304214E0,1.447059512E0
3.915280151E2,3.695714474E0,-4.814359188E0,-3.800998688E0
3.920280151E2,3.255435228E0,-6.320641041E0,7.064808607E-1
3.925280151E2,3.780659676E0,-6.194419384E0,-2.458625317E0
3.930280151E2,1.604387641E0,-1.054397297E1,-8.327022791E-1
3.935280151E2,3.560520172E0,-1.132463169E1,1.494317770E0
3.940280151E2,3.140579700E0,-1.122114182E1,-1.412961721E0
3.945280151E2,5.572285652E0,-1.237747288E1,4.917250574E-1
3.950280151E2,2.764308453E0,-1.181456184E1,7.064808607E-1
3.955280151E2,8.711668968E0,-1.136231804E1,4.079762697E-1
3.960280151E2,1.981257200E0,-1.236610699E1,2.072184324E0
3.965280151E2,9.835697174E0,-8.877371788E0,-1.136590764E-1
3.970280151E2,6.083751678E0,-6.945765972E0,4.037888348E-1
3.975280151E2,4.575077057E0,-6.417550564E0,1.609173179E0
3.980280151E2,5.197210789E0,-3.762713671E0,-6.533602238E0
3.985280151E2,2.520838737E0,-6.497111797E0,1.914258115E-2
3.990280151E2,2.843869686E0,-7.157530785E0,-3.030509949E0
3.995280151E2,2.470589399E0,-9.804591179E0,-4.179064751E0
4.000280151E2,3.384647608E0,-1.125404263E1,-1.501496136E-1
4.005280151E2,3.329014540E0,-1.325324631E1,-2.285145670E-1
4.010280151E2,1.051525879E1,-1.379402447E1,6.640082598E-1
4.015280151E2,3.263810158E0,-1.493898964E1,1.423131227E0
4.020280151E2,1.048176003E1,-1.059541893E1,-1.704886079E0
4.025280151E2,7.239484787E0,-7.563114166E0,-3.044866920E-1
4.030280151E2,5.426921844E0,-6.353542328E0,1.391426325E0
4.035280151E2,5.112265587E0,-3.387040377E0,-4.688735962E0
4.040280151E2,3.680161238E0,-5.294120312E0,-2.650051117E-1
4.045280151E2,3.472583771E0,-6.110072613E0,-1.095912814E0
4.050280151E2,2.384447813E0,-9.227920532E0,-2.059023857E0
4.055280151E2,5.437689424E-1,-1.147597694E1,-1.180259824E0
4.060280151E2,3.310470104E0,-1.109192944E1,3.990031779E-1
4.065280151E2,4.868197441E0,-1.531705570E1,3.245863914E0
4.070280151E2,1.349551916E0,-1.554018688E1,-1.347757339E0
4.075280151E2,7.937591076E0,-8.668598175E0,6.819544733E-2
4.080280151E2,5.891129494E0,-8.234899521E0,-2.606980324E0
4.085280151E2,4.703093052E0,-6.077769279E0,8.362914920E-1
4.090280151E2,4.343571186E0,-5.978467464E0,-2.432902336E0
4.095280151E2,3.041875839E0,-8.014161110E0,1.920240164E0
4.100280151E2,3.035295486E0,-8.708678246E0,-6.634100676E-1
4.105280151E2,1.639681697E0,-1.043868923E1,-2.961117983E0
4.110280151E2,5.172086239E0,-1.187617683E1,2.217548370E0
4.115280151E2,2.782254457E0,-1.276810169E1,-7.674978375E-1
4.120280151E2,9.402596474E0,-1.060499001E1,2.462812662E0
4.125280151E2,3.616153240E0,-1.312523079E1,2.123630047E0
4.130280151E2,9.660423279E0,-9.835697174E0,-1.561316848E-1
4.135280151E2,3.394817114E0,-1.012044334E1,-1.537388563E0
4.140280151E2,6.046064377E0,-9.979267120E0,-3.276372433E0
4.145280151E2,5.616552830E0,-4.661218643E0,-3.662214994E0
4.150280151E2,4.411168575E0,-8.286943436E0,3.341576815E0
4.155280151E2,4.100101471E0,-5.270790100E0,-3.013161898E0
4.160280151E2,1.102493048E0,-8.307880402E0,7.956135273E-1
4.165280151E2,3.470789194E0,-5.899504185E0,-2.755335331E0
4.170280151E2,8.434699774E-1,-9.903294563E0,-1.834098577E0
4.175280151E2,4.138386726E0,-9.027522087E0,-1.496710539E0
4.180280151E2,3.510869026E0,-1.098305607E1,-1.906481385E0
4.185280151E2,5.169693470E0,-1.520399475E1,2.018345833E0
4.190280151E2,8.853443861E-1,-1.336929798E1,1.007976532E0
4.195280151E2,7.850253105E0,-8.933005333E0,-1.342971683E0
4.200280151E2,4.895715237E0,-9.373284340E0,-1.701895118E0
4.205280151E2,4.024727821E0,-6.650252342E0,3.334398270E0
4.210280151E2,4.279563427E0,-5.325226784E0,-3.718446493E0
4.215280151E2,1.022931695E0,-8.311469078E0,2.763710022E-1
4.220280151E2,2.313261271E0,-9.287142754E0,-8.458628058E-1
4.225280151E2,3.343371391E0,-1.116849995E1,-2.958725214E0
4.230280151E2,4.313661098E0,-1.302652645E1,2.490330219E0
4.235280151E2,1.322034448E-1,-1.332682610E1,-2.425125837E0
4.240280151E2,8.968298912E0,-1.234217930E1,-1.373480201E0
4.245280151E2,2.449054003E0,-9.713663101E0,-1.046261668E0
4.250280151E2,4.091726780E0,-6.809973240E0,1.185643673E0
4.255280151E2,4.471587181E0,-4.372883320E0,-3.381656647E0
4.260280151E2,3.098705411E-1,-9.988838196E0,-1.347757339E0
4.265280151E2,4.314857483E0,-1.008514881E1,1.639681697E0
4.270280151E2,3.190829039E0,-1.145384407E1,-1.550549030E0
4.275280151E2,7.545766354E0,-1.301037502E1,1.641476393E0
4.280280151E2,5.389832854E-1,-1.371266842E1,-6.813562512E-1
4.285280151E2,7.113263607E0,-6.971488953E0,-1.355534077E0
4.290280151E2,4.188635826E0,-8.401798248E0,-1.892124534E0
4.295280151E2,1.869392633E0,-8.827720642E0,1.217348576E0
4.300280151E2,4.798207760E0,-5.562116146E0,-3.066402197E0
4.305280151E2,3.115455151E0,-1.153819084E1,-5.724828243E-1
4.310280151E2,5.382056236E0,-1.059242725E1,3.553341627E-1
4.315280151E2,7.845467091E0,-1.027657509E1,2.153540403E-1
4.320280151E2,9.620343208E0,-1.365942764E1,2.177468538E0
4.325280151E2,5.302495003E0,-1.100399303E1,1.507478237E0
4.330280151E2,5.246861935E0,-6.653243542E0,-1.247258782E0
4.335280151E2,2.927020311E0,-5.210371494E0,-5.885147095E0
4.340280151E2,3.737588882E0,-5.550152302E0,1.528415442E0
4.345280151E2,3.539582968E0,-5.520840168E0,-2.578266382E0
4.350280151E2,2.820539713E0,-1.098485088E1,-1.503889084E0
4.355280151E2,8.512466431E0,-1.010847950E1,1.670190215E0
4.360280151E2,3.059821844E0,-1.294337559E1,2.121835470E0
4.365280151E2,7.952546120E0,-1.067198944E1,-1.540977836E0
4.370280151E2,5.358128071E0,-1.250788212E1,1.752742529E-1
4.375280151E2,5.946762562E0,-8.340183258E0,1.517049551E0
4.380280151E2,2.332403898E0,-5.776273727E0,-4.986642361E0
4.385280151E2,3.131008387E0,-6.281757832E0,1.824527264E0
4.390280151E2,3.607180119E0,-6.492924213E0,-1.846062660E0
4.395280151E2,2.898306370E0,-1.140239811E1,-2.853440940E-1
4.400280151E2,4.098307133E0,-1.129412270E1,1.440479279E0
4.405280151E2,3.877569199E0,-1.304447269E1,-5.629115105E-1
4.410280151E2,5.640480995E0,-1.049970531E1,-2.920439959E0
4.415280151E2,3.097508907E0,-7.433901787E0,-2.537588358E0
4.420280151E2,3.731008768E0,-6.290132523E0,1.895115495E0
4.425280151E2,3.153740168E0,-5.657829285E0,-5.178068161E0
4.430280151E2,9.954141974E-1,-8.371888161E0,-1.441675663E0
4.435280151E2,1.775474429E0,-9.306883812E0,-8.931210637E-1
4.440280151E2,2.898306370E0,-1.037168980E1,-2.006381750E0
4.445280151E2,6.190830231E0,-1.371266842E1,1.987239242E0
4.450280151E2,2.548356056E-1,-1.352423382E1,-6.640082598E-1
4.455280151E2,8.161319733E0,-7.727022648E0,2.141576260E-1
4.460280151E2,4.702494621E0,-7.463811874E0,-5.898307562E-1
4.465280151E2,2.394617319E0,-7.869395256E0,1.263410330E0
4.470280151E2,3.604787350E0,-5.696114540E0,-3.286541939E0
4.475280151E2,1.762313843E0,-8.737391472E0,-1.180858016E0
4.480280151E2,2.986242771E0,-8.560322762E0,7.334001660E-1
4.485280151E2,3.809373617E0,-1.233081341E1,1.003190875E0
4.490280151E2,5.388636589E0,-1.334237862E1,2.453839540E0
4.495280151E2,3.348157167E0,-1.338544941E1,-1.615155302E-2
4.500280151E2,6.187839508E0,-7.752745152E0,-1.380060434E0
4.505280151E2,4.725226402E0,-4.898705959E0,-5.691328526E0
4.510280151E2,2.082952023E0,-6.864409924E0,-1.130608693E-1
4.515280151E2,6.472585201E-1,-9.206384659E0,1.034895778E-1
4.520280151E2,2.691327333E0,-1.073539925E1,-1.300499082E0
4.525280151E2,3.960719585E0,-1.223988628E1,8.787640929E-1
4.530280151E2,2.359323025E0,-1.228953743E1,4.606183469E-1
4.535280151E2,7.234699249E0,-1.116371441E1,-1.527817249E0
4.540280151E2,4.590630054E0,-7.055237770E0,-6.299105883E-1
4.545280151E2,4.654040039E-1,-7.810173035E0,6.305087805E-1
4.550280151E2,2.978466034E0,-5.298905849E0,-1.758126378E0
4.555280151E2,9.314061999E-1,-6.178267956E0,-7.262216806E-1
4.560280151E2,2.549552441E0,-7.784450054E0,-8.602197170E-1
4.565280151E2,3.504886866E0,-1.038365364E1,-1.424925923E0
4.570280151E2,7.543971539E0,-1.416192055E1,-7.645068169E-1
4.575280151E2,2.951546669E0,-1.350868034E1,-1.196411327E-1
4.580280151E2,6.800402164E0,-1.157049370E1,-3.110669553E-1
4.585280151E2,4.226921082E0,-5.241477966E0,-5.318048477E0
4.590280151E2,2.156531334E0,-6.658627033E0,2.949153781E-1
4.595280151E2,3.926023722E0,-4.450650215E0,-3.825525284E0
4.600280151E2,1.927418590E0,-7.322037220E0,-2.073979139E0
4.605280151E2,6.636493683E0,-9.046066284E0,-3.732803464E-1
4.610280151E2,4.198805332E0,-1.155075264E1,5.665007830E-1
4.615280151E2,8.434102058E0,-1.233559895E1,2.422732830E0
4.620280151E2,4.400999069E0,-1.404766369E1,3.828516304E-1
4.625280151E2,8.365307808E0,-1.150349522E1,1.578066587E0
4.630280151E2,4.841876507E0,-7.168896675E0,-1.798206210E0
4.635280151E2,2.201396942E0,-6.485745907E0,-1.284347534E0
4.640280151E2,3.123830080E0,-6.531209469E0,-1.390828133E0
4.645280151E2,1.536192179E0,-9.734002113E0,-1.362114310E0
4.650280151E2,3.457030535E0,-1.086042404E1,4.181457460E-1
4.655280151E2,2.351546526E0,-1.137547874E1,6.017948985E-1
4.660280151E2,7.902296543E0,-1.245524025E1,2.463410854E0
4.665280151E2,5.216353416E0,-1.541576004E1,-2.362314224E0
4.670280151E2,2.520240545E0,-8.830712318E0,-4.127618968E-1
4.675280151E2,3.330809116E0,-4.131208420E0,-4.080958843E0
4.680280151E2,1.531406522E0,-7.046264648E0,-1.339980662E-1
4.685280151E2,3.979862213E0,-7.091129780E0,-1.679761529E0
4.690280151E2,1.724028707E0,-9.764511108E0,-3.909872293E0
4.695280151E2,5.140979290E0,-1.265324593E1,2.734398127E0
4.700280151E2,2.482553482E0,-1.256590843E1,4.211367965E-1
4.705280151E2,1.000678444E1,-1.441555977E1,1.845464468E0
4.710280151E2,2.598605394E0,-1.223809147E1,1.878365725E-1
4.715280151E2,4.452444553E0,-8.261219978E0,2.845664263E0
4.720280151E2,2.458027124E0,-4.142574310E0,-5.884549141E0
4.725280151E2,3.726821184E0,-4.683950424E0,-7.525427341E-1
4.730280151E2,3.511467218E0,-5.524429321E0,-3.175873756E0
4.735280151E2,3.153740168E0,-8.589036942E0,-3.360719442E0
4.740280151E2,5.621338367E0,-1.170090294E1,1.384247899E0
4.745280151E2,2.918047190E0,-1.243669605E1,1.076770186E0
4.750280151E2,9.563513756E0,-1.203888893E1,-2.547159672E0
4.755280151E2,4.480560303E0,-1.239123249E1,7.980063558E-1
4.760280151E2,6.988836765E0,-8.819944382E0,1.140778184E0
4.765280151E2,4.935196877E0,-5.949753284E0,-3.169293642E0
4.770280151E2,2.249253273E0,-5.996413708E0,5.090730190E-1
4.775280151E2,1.965105653E0,-6.221338749E0,-2.013560295E0
4.780280151E2,2.136192322E0,-8.855237961E0,-2.508874655E0
4.785280151E2,4.047459602E0,-1.390229988E1,-7.734799385E-1
4.790280151E2,3.114258766E0,-1.219083309E1,-7.425527096E0
4.795280151E2,7.080960274E0,-1.112004471E1,-3.862015724E0
4.800280151E2,4.879563808E0,-8.846863747E0,-2.325823545E0
4.805280151E2,4.683950424E0,-6.404389858E0,3.576671600E0
4.810280151E2,5.346762180E0,-4.066602230E0,-3.225524902E0
4.815280151E2,1.287338614E0,-6.875775814E0,-8.267202377E-1
4.820280151E2,3.941577196E0,-7.531409264E0,-1.113858938E0
4.825280151E2,3.824927092E0,-1.084786129E1,-1.877169371E0
4.830280151E2,6.756134510E0,-1.325743389E1,3.228515863E0
4.835280151E2,7.860422134E-1,-1.425823212E1,1.068395257E0
4.840280151E2,9.137591362E0,-1.041655540E1,-1.743769526E0
4.845280151E2,2.435893536E0,-1.346501160E1,1.236491084E0
4.850280151E2,4.318446636E0,-8.012965202E0,3.349951804E-1
4.855280151E2,4.249652863E0,-3.281157970E0,-5.027918816E0
4.860280151E2,2.882154942E0,-6.401398659E0,-1.974078715E-1
4.865280151E2,3.863810301E0,-8.038687706E0,-1.546959877E0
4.870280151E2,1.927418590E0,-1.178824043E1,-1.546959877E0
4.875280151E2,7.134200573E0,-1.330229950E1,3.316452265E0
4.880280151E2,-4.660021961E-1,-1.406321716E1,1.700100541E0
4.885280151E2,7.935796261E0,-7.870592117E0,-9.972088337E-1
4.890280151E2,4.975874901E0,-7.095317364E0,-3.573082447E0
4.895280151E2,2.257030010E0,-7.792825222E0,1.543968797E0
4.900280151E2,2.585444927E0,-8.196614265E0,4.689932466E-1
4.905280151E2,-1.539183140E0,-1.336152172E1,-6.059823632E-1
4.910280151E2,7.186842918E0,-1.048714352E1,2.039881229E0
4.915280151E2,3.244667530E0,-1.187797165E1,-3.230310604E-2
4.920280151E2,1.209512043E1,-1.064626598E1,-1.252642632E0
4.925280151E2,4.927420139E0,-1.076650524E1,-8.458628058E-1
4.930280151E2,3.527020693E0,-7.382455826E0,2.338984251E0
4.935280151E2,6.041278839E0,-3.722035646E0,-5.866004944E0
4.940280151E2,3.384647608E0,-6.067001820E0,-2.332403898E0
4.945280151E2,5.650650501E0,-7.229315281E0,3.108874798E0
4.950280151E2,4.253242016E0,-1.107697392E1,2.231307179E-1
4.955280151E2,9.592227936E0,-1.023948669E1,-3.505485058E-1
4.960280151E2,1.936989903E0,-1.177268696E1,1.944766641E0
4.965280151E2,1.041954613E1,-8.092526436E0,1.126421213E0
4.970280151E2,4.109074593E0,-5.605785370E0,-6.202196121E0
4.975280151E2,3.139383316E0,-6.899703979E0,5.347958803E-1
4.980280151E2,5.136193752E0,-6.136991978E0,-1.039681435E0
4.985280151E2,1.068993568E0,-1.075633621E1,-1.066002488E0
4.990280151E2,5.047659397E0,-1.178824043E1,5.101497650E0
4.995280151E2,3.225524902E0,-1.218724346E1,3.269792080E0
5.000280151E2,9.404989243E0,-9.077172279E0,1.314257860E0
5.005280151E2,2.639881611E0,-1.250489140E1,3.767499208E0
5.010280151E2,9.031708717E0,-7.911868095E0,1.935195327E0
5.015280151E2,4.688735962E0,-5.353342533E0,-4.114458561E0
5.020280151E2,5.521438122E0,-5.791827202E0,1.132403374E0
5.025280151E2,5.806184292E0,-4.351347923E0,-2.350948334E0
5.030280151E2,3.552743435E0,-7.690532207E0,-9.170492887E-1
5.035280151E2,5.506483078E0,-9.006584167E0,4.618147850E0
5.040280151E2,4.815555573E0,-1.204846001E1,2.356332064E0
5.045280151E2,9.017352104E0,-9.097511292E0,2.204986095E0
5.050280151E2,1.333998680E0,-1.194796181E1,5.611169338E-1
5.055280151E2,1.172842026E1,-1.112483025E1,-6.759724021E-1
5.060280151E2,2.651247501E0,-1.286979675E1,8.548358679E-1
5.065280151E2,8.663214684E0,-7.136593342E0,-6.233302951E-1
5.070280151E2,6.223133564E0,-7.429116249E0,-8.626125455E-1
5.075280151E2,5.133800983E0,-7.964509964E0,2.739183664E0
5.080280151E2,5.093122959E0,-5.248058319E0,-4.241278172E0
5.085280151E2,3.506083488E0,-7.599604607E0,1.396211982E0
5.090280151E2,4.844867706E0,-5.483152866E0,-2.014756680E0
5.095280151E2,3.590430260E0,-1.058465099E1,-1.381855130E0
5.100280151E2,4.926223755E0,-1.146281719E1,7.800601721E-1
5.105280151E2,-1.721635938E0,-1.714218140E1,-3.608376503E0
5.110280151E2,1.005344391E1,-1.041655540E1,-7.226324677E-1
5.115280151E2,3.299104214E0,-9.237491608E0,5.252245665E-1
5.120280151E2,5.794219971E0,-3.994817495E0,3.792623878E-1
5.125280151E2,3.087937593E0,-7.024130821E0,-3.699303865E0
5.130280151E2,-1.009771109E0,-1.115832996E1,-1.244267821E0
5.135280151E2,3.151945591E0,-1.099382401E1,8.841479421E-1
5.140280151E2,2.242672920E0,-1.143888855E1,-7.322037220E-1
5.145280151E2,1.014197922E1,-1.368694592E1,2.244467735E0
5.150280151E2,3.713660717E0,-1.309472179E1,-2.428714931E-1
5.155280151E2,7.917252064E0,-1.304925823E1,3.224328458E-1
5.160280151E2,7.812566161E-1,-1.420080376E1,5.862415582E-2
5.165280151E2,7.228118896E0,-8.735597610E0,1.585245013E0
5.170280151E2,1.835893154E0,-8.054241180E0,-1.419542074E0
5.175280151E2,2.706880569E0,-6.928418159E0,1.543370634E-1
5.180280151E2,4.343571186E0,-6.153143406E0,-4.201796532E0
5.185280151E2,9.655039310E-1,-9.288937569E0,-1.236491084E0
5.190280151E2,4.121636868E0,-8.507680893E0,7.214360237E-1
5.195280151E2,2.246262312E0,-1.143589783E1,-7.537391037E-2
5.200280151E2,5.891129494E0,-1.210887909E1,2.094317913E0
5.205280151E2,1.635494232E0,-1.367438316E1,8.183453679E-1
5.210280151E2,8.033304214E0,-1.265205002E1,-1.304088384E-1
5.215280151E2,2.759522676E0,-1.317966747E1,6.735795736E-1
5.220280151E2,7.850253105E0,-7.765905857E0,-1.129412293E0
5.225280151E2,4.705485821E0,-6.582056999E0,-2.599801779E0
5.230280151E2,3.544368505E0,-6.090929985E0,1.473978758E0
5.235280151E2,3.658027649E0,-5.404788017E0,-3.118446112E0
5.240280151E2,3.375674486E0,-7.475177765E0,-1.499103427E0
5.245280151E2,3.584448338E0,-9.681360245E0,2.374876440E-1
5.250280151E2,3.949353695E0,-1.062592697E1,-2.165504545E-1
5.255280151E2,5.583053589E0,-1.344766331E1,2.223530531E0
5.260280151E2,2.158325911E0,-1.239302635E1,3.846462369E-1
5.265280151E2,9.119645119E0,-1.067797089E1,-1.178465128E0
5.270280151E2,3.927818298E0,-9.582656860E0,6.143572330E-1
5.275280151E2,3.898506403E0,-6.556334019E0,1.288534999E0
5.280280151E2,4.558925152E0,-6.265605927E0,-3.695714474E0
5.285280151E2,2.001596212E0,-9.530014038E0,-2.572284341E-1
5.290280151E2,4.844269276E0,-1.107518005E1,1.366899967E0
5.295280151E2,5.581258535E-1,-1.215733337E1,2.659024239E0
5.300280151E2,6.768098831E0,-1.205683517E1,2.645265341E0
5.305280151E2,1.587637782E0,-1.437727451E1,8.566305041E-1
5.310280151E2,7.685746193E0,-8.317451477E0,1.877767563E0
5.315280151E2,5.373083115E0,-6.683752060E0,-3.008974552E0
5.320280151E2,2.793620348E0,-7.100701332E0,1.250249863E0
5.325280151E2,5.383851051E0,-5.588437080E0,-3.101098061E0
5.330280151E2,1.703689694E0,-1.097468090E1,-5.012963414E-1
5.335280151E2,3.535395384E0,-1.222612762E1,1.986042738E0
5.340280151E2,4.046861172E0,-1.050808048E1,-1.801197290E0
5.345280151E2,7.435696602E0,-1.296909904E1,3.055036306E0
5.350280151E2,1.073779106E0,-1.182353497E1,5.168496966E-1
5.355280151E2,1.039322472E1,-9.804591179E0,-2.907279432E-1
5.360280151E2,2.536391973E0,-1.252582836E1,1.484746456E0
5.365280151E2,6.114858150E0,-1.011864853E1,2.599801779E0
5.370280151E2,4.884349346E0,-7.131807804E0,-3.699303865E0
5.375280151E2,3.252444267E0,-8.947959900E0,-1.941177368E0
5.380280151E2,9.453444481E0,-5.021936417E0,6.799205780E0
5.385280151E2,5.181059361E0,-6.586244106E0,-2.944368362E0
5.390280151E2,2.262413740E0,-7.944170952E0,-5.275575638E0
5.395280151E2,4.224528313E0,-1.158784199E1,3.576671600E0
5.400280151E2,-6.556333899E-1,-1.406501102E1,4.370490551E0
5.405280151E2,4.827519894E0,-6.598208427E0,1.164108157E0
5.410280151E2,6.726822853E0,-5.517848969E0,-2.496910334E0
5.415280151E2,8.889335990E-1,-8.821739197E0,-2.853441000E0
5.420280151E2,4.042075634E0,-1.089990520E1,2.422732830E0
5.425280151E2,1.556531072E0,-1.375035572E1,2.279163599E-1
5.430280151E2,8.984451294E0,-1.136411285E1,1.100698471E0
5.435280151E2,1.370489120E0,-1.286381435E1,-6.221339107E-1
5.440280151E2,9.341579437E0,-8.952746391E0,-1.510469317E0
5.445280151E2,2.279163599E-1,-8.591429710E0,-3.217748165E0
5.450280151E2,5.704489231E0,-8.858229637E0,2.529811859E0
5.455280151E2,4.206582069E0,-5.663212776E0,-2.628515720E0
5.460280151E2,2.309672117E0,-7.242475986E0,1.457827210E0
5.465280151E2,2.720041037E0,-5.763711452E0,-1.938186288E0
5.470280151E2,2.925823927E0,-7.353742123E0,-1.241276741E0
5.475280151E2,5.798407555E0,-9.409774780E0,6.640082598E-1
5.480280151E2,4.188635826E0,-1.029392338E1,-9.332008362E-1
5.485280151E2,3.684946775E0,-1.552104378E1,3.467798233E0
5.490280151E2,5.091926575E0,-1.421516132E1,1.573280931E0
5.495280151E2,6.170491219E0,-1.428694534E1,-7.956135273E-1
5.500280151E2,2.416750908E0,-1.340459251E1,-4.432703853E-1
5.505280151E2,1.136231804E1,-1.033579731E1,-1.076770201E-2
5.510280151E2,2.129612207E0,-1.114457130E1,-2.027917147E0
5.515280151E2,8.922237396E0,-9.590433121E0,4.480560422E-1
5.520280151E2,2.578266382E0,-1.257966709E1,1.180259824E0
5.525280151E2,9.372088432E0,-1.209452248E1,7.322037220E-1
5.530280151E2,6.400800496E-2,-1.356251907E1,-1.674975902E-1
5.535280151E2,7.904091358E0,-1.387059498E1,-2.458625287E-1
5.540280151E2,3.450450182E0,-1.356251907E1,-7.298108935E-2
5.545280151E2,5.691926956E0,-1.202513027E1,1.387837082E-1
5.550280151E2,3.172882795E0,-1.022692394E1,3.744767308E-1
5.555280151E2,2.683550596E0,-1.023828983E1,-4.905286431E-2
5.560280151E2,1.527817249E0,-9.900303841E0,6.795616150E-1
5.565280151E2,2.663809776E0,-9.026923180E0,-7.501499057E-1
5.570280151E2,3.738785267E0,-1.200060368E1,-8.913264275E-1
5.575280151E2,2.005185366E0,-8.190033913E0,-3.761517286E0
5.580280151E2,3.552145243E0,-9.113064766E0,-8.195417523E-1
5.585280151E2,3.025724173E0,-9.333204269E0,5.443671346E-2
5.590280151E2,4.370490551E0,-8.928219795E0,4.037888348E-1
5.595280151E2,3.425325632E0,-9.080163956E0,-4.534398913E-1
5.600280151E2,4.462016106E0,-8.805587769E0,2.709871531E-1
5.605280151E2,4.021138668E0,-8.895318031E0,-1.495514214E-1
5.610280151E2,4.026522160E0,-8.943174362E0,-2.763710022E-1
5.615280151E2,3.900300980E0,-8.751749039E0,-4.187439755E-2
5.620280151E2,4.229313850E0,-9.008378983E0,-2.506481707E-1
5.625280151E2,4.109074593E0,-8.864809990E0,-1.304088384E-1
5.630280151E2,4.141377926E0,-8.883952141E0,2.751746029E-2
5.635280151E2,4.244867325E0,-8.848658562E0,2.572284266E-2
5.640280151E2,4.286143780E0,-8.726025581E0,-1.160518974E-1
5.645280151E2,4.400999069E0,-8.751749039E0,-6.520441920E-2
5.650280151E2,4.450650215E0,-8.677571297E0,-1.657029688E-1
5.655280151E2,4.050450325E0,-8.760722160E0,-4.342973232E-1
5.660280151E2,4.260420799E0,-8.840881348E0,-2.117647976E-1
5.665280151E2,4.361517429E0,-8.742177963E0,-4.426721856E-2
5.670280151E2,4.445864677E0,-8.724231720E0,-1.447657645E-1
5.675280151E2,4.320241451E0,-8.726025581E0,-5.252245665E-1
5.680280151E2,4.025924206E0,-8.875576973E0,-7.764709592E-1
5.685280151E2,3.994219303E0,-8.880363464E0,-6.544370055E-1
5.690280151E2,4.090530396E0,-8.852247238E0,-6.759724021E-1
5.695280151E2,4.086941242E0,-8.822935104E0,-5.904290080E-1
5.700280151E2,4.121636868E0,-8.818149567E0,-6.460621357E-1
5.705280151E2,4.076173306E0,-8.877371788E0,-6.376872063E-1
5.710280151E2,4.083351612E0,-8.822935104E0,-5.964110494E-1
5.715280151E2,4.058227062E0,-8.837292671E0,-6.496513486E-1
5.720280151E2,4.009174347E0,-8.866603851E0,-7.657032609E-1
5.725280151E2,4.289732933E0,-8.782855988E0,-6.257231236E-1
5.730280151E2,4.157529354E0,-9.213563919E0,-1.308275819E0
5.735280151E2,4.681557655E0,-9.446864128E0,-6.448656917E-1
5.740280151E2,1.400997639E0,-8.665607452E0,-3.302095234E-1
5.745280151E2,3.144168854E0,-7.390830994E0,1.184447184E-1
5.750280151E2,2.523829699E0,-1.105663490E1,-1.112064362E0
5.755280151E2,4.978267670E0,-1.272144127E1,1.580459356E0
5.760280151E2,3.193820000E0,-1.147896862E1,-2.069791555E-1
5.765280151E2,9.062217712E0,-1.354995632E1,2.273181453E-2
5.770280151E2,2.565105915E0,-9.483952522E0,8.632107973E-1
5.775280151E2,6.047261238E0,-5.370690346E0,4.151547253E-1
5.780280151E2,3.497110367E0,-4.381856441E0,-3.295515060E0
5.785280151E2,3.634099483E0,-6.911668301E0,1.044467092E0
5.790280151E2,2.799602509E0,-7.222734928E0,-1.028913736E0
5.795280151E2,1.719243050E0,-9.394221306E0,-1.727617979E0
5.800280151E2,1.807179332E0,-1.080897808E1,8.015955985E-2
5.805280151E2,3.089732170E0,-1.076650524E1,-2.392822690E-2
5.810280151E2,6.521039963E0,-1.198804188E1,2.126022816E0
5.815280151E2,4.037290096E0,-1.386221981E1,2.169692039E0
5.820280151E2,9.266803741E0,-9.086145401E0,1.304088384E-1
5.825280151E2,3.289532900E0,-8.620143890E0,-5.084748268E-1
5.830280151E2,4.860421181E0,-6.238687038E0,6.831508875E-1
5.835280151E2,2.685943365E0,-5.243870735E0,-4.248456478E0
5.840280151E2,2.413759947E0,-8.984451294E0,-8.919246197E-1
5.845280151E2,3.396611691E0,-9.799206734E0,-3.529413342E-1
5.850280151E2,3.299104214E0,-1.126062298E1,-3.972085714E-1
5.855280151E2,7.079763889E0,-1.547677708E1,1.488335729E0
5.860280151E2,1.432702541E0,-1.232662582E1,5.952146053E-1
5.865280151E2,8.079365730E0,-7.064808846E0,-9.505487680E-1
5.870280151E2,3.865604877E0,-6.610172749E0,-8.434699774E-1
5.875280151E2,4.549354076E0,-7.475177765E0,7.286145091E-1
5.880280151E2,5.653641701E0,-6.457630157E0,-1.240678549E0
5.885280151E2,3.233301640E0,-1.158604717E1,-9.445667267E-1
5.890280151E2,7.701299667E0,-1.222911835E1,4.104887009E0
5.895280151E2,5.155934811E0,-1.201316643E1,-2.788236618E0
5.900280151E2,7.104888439E0,-7.449455261E0,6.699903309E-2
5.905280151E2,3.534797192E0,-4.941776752E0,9.571290575E-3
5.910280151E2,4.861019135E0,-6.123831272E0,3.117249727E0
5.915280151E2,4.362713814E0,-4.766502857E0,-3.624528170E0
5.920280151E2,2.386840582E0,-8.937790871E0,-4.767699242E-1
5.925280151E2,5.131408215E0,-1.130189991E1,2.243271112E0
5.930280151E2,2.934797049E0,-1.127498055E1,1.256830096E0
5.935280151E2,3.916452408E0,-1.324068451E1,2.478964329E0
5.940280151E2,2.147558212E0,-1.322572899E1,3.092723191E-1
5.945280151E2,8.812167168E0,-1.146281719E1,-1.530210137E0
5.950280151E2,2.900100946E0,-1.201795197E1,1.159322619E0
5.955280151E2,6.913462639E0,-7.082755089E0,-5.419743061E-1
5.960280151E2,3.736392498E0,-4.085744858E0,-3.699303865E0
5.965280151E2,4.066602230E0,-5.621936798E0,7.112665176E-1
5.970280151E2,3.294318676E0,-5.885147095E0,-2.955734253E0
5.975280151E2,7.609176040E-1,-6.397211552E0,-1.936391711E0
5.980280151E2,3.909872293E0,-6.911668301E0,2.356930375E-1
5.985280151E2,2.710469961E0,-9.247062683E0,-4.803591371E-1
5.990280151E2,5.590830326E0,-1.013898754E1,2.380858511E-1
5.995280151E2,2.267199516E0,-1.085384369E1,1.832902193E0
6.000280151E2,8.425726891E0,-1.214118195E1,2.805584669E-1
6.005280151E2,1.028913736E0,-1.187976646E1,-9.272187948E-2
6.010280151E2,9.710074425E0,-9.228518486E0,-1.122832060E0
6.015280151E2,4.243670940E0,-9.096315384E0,7.818548083E-1
6.020280151E2,7.229315281E0,-7.794021606E0,-1.740180254E0
6.025280151E2,5.371288776E0,-5.460421085E0,-2.992822886E0
6.030280151E2,4.595416069E0,-5.160720348E0,2.057827473E0
6.035280151E2,3.723232031E0,-4.750949383E0,-4.158725739E0
6.040280151E2,1.200000525E0,-7.517052174E0,1.439282775E0
6.045280151E2,2.190030813E0,-7.155735970E0,-2.172683001E0
6.050280151E2,1.818545222E0,-8.816953659E0,-1.643270969E0
6.055280151E2,4.568496704E0,-1.024307537E1,-1.944168359E-1
6.060280151E2,3.597608805E0,-1.105184937E1,-1.633699656E0
6.065280151E2,5.674578667E0,-1.319581890E1,2.231905222E0
6.070280151E2,2.587837696E0,-1.151785183E1,1.914258152E-1
6.075280151E2,7.701299667E0,-1.166142082E1,1.566700578E0
6.080280151E2,2.598605394E0,-1.227637672E1,-1.807179332E0
6.085280151E2,8.818149567E0,-7.818548203E0,-3.142374277E0
6.090280151E2,5.614758492E0,-7.855038643E0,-1.911267042E0
6.095280151E2,3.579662561E0,-8.202595711E0,8.327022791E-1
6.100280151E2,5.809773445E0,-5.603990555E0,-4.420141697E0
6.105280151E2,3.611965895E0,-7.593622684E0,1.962114573E0
6.110280151E2,4.587639332E0,-6.193821430E0,-1.462612867E0
6.115280151E2,2.504088879E0,-9.175278664E0,-4.582255483E-1
6.120280151E2,4.469792843E0,-9.951150894E0,1.510469317E0
6.125280151E2,4.533202648E0,-1.031486034E1,-1.226321578E0
6.130280151E2,4.935196877E0,-1.431565952E1,4.106083870E0
6.135280151E2,3.339184046E0,-1.194616699E1,3.088535786E0
6.140280151E2,8.363512993E0,-1.281894875E1,8.853443861E-1
6.145280151E2,6.128616810E0,-8.763712883E0,2.552543640E0
6.150280151E2,8.888737679E0,-6.109474182E0,3.850649834E0
6.155280151E2,4.314857483E0,-5.243272781E0,-2.818745136E0
6.160280151E2,5.024927616E0,-3.812364578E0,-3.912265003E-1
6.165280151E2,4.815555573E0,-6.248856544E0,3.948157281E-2
6.170280151E2,3.822534084E0,-1.068036366E1,-1.119840980E0
6.175280151E2,8.277371407E0,-9.748359680E0,2.854039192E0
6.180280151E2,5.667400360E0,-1.360678577E1,2.234896421E0
6.185280151E2,6.848258495E0,-1.166860008E1,-8.153542876E-1
6.190280151E2,3.571886063E0,-1.161954689E1,1.333400369E0
6.195280151E2,4.917848587E0,-8.267800331E0,-4.127619043E-2
6.200280151E2,6.458826542E0,-3.922434568E0,-4.217350006E0
6.205280151E2,3.361317635E0,-5.289334297E0,1.472782373E0
6.210280151E2,3.721437454E0,-6.227321148E0,-3.448655605E0
6.215280151E2,2.368894339E0,-7.932805061E0,-9.942178130E-1
6.220280151E2,2.690729141E0,-9.411569595E0,-5.491527915E-1
6.225280151E2,4.006781578E0,-1.156331539E1,-1.038485050E0
6.230280151E2,5.833701611E0,-1.346201992E1,1.944766641E0
6.235280151E2,4.281357765E0,-1.334596825E1,1.327418327E0
6.240280151E2,9.550951958E0,-1.257547951E1,1.697109461E0
6.245280151E2,2.590230465E0,-1.159741306E1,5.120640397E-1
6.250280151E2,7.411170006E0,-8.002795219E0,-2.252842426E0
6.255280151E2,4.802993298E0,-5.390431404E0,-4.453640938E0
6.260280151E2,4.632504463E0,-6.763313293E0,4.965106845E-1
6.265280151E2,4.067798615E0,-4.743771076E0,-3.387040377E0
6.270280151E2,2.182254314E0,-8.011170387E0,-1.083350420E0
6.275280151E2,5.196014404E0,-9.891928673E0,6.364908218E-1
6.280280151E2,4.683950424E0,-1.132403278E1,-1.555334687E0
6.285280151E2,7.119245529E0,-1.217109203E1,2.847458839E0
6.290280151E2,1.698904037E0,-1.436949825E1,-1.795813441E0
6.295280151E2,8.149953842E0,-9.426525116E0,-7.992027402E-1
6.300280151E2,1.925624013E0,-1.099920750E1,5.790630579E-1
6.305280151E2,4.329214573E0,-6.784250259E0,4.420739710E-1
6.310280151E2,4.668995380E0,-4.372883320E0,-5.626124382E0
6.315280151E2,2.796013355E0,-4.719842434E0,-1.705484390E0
6.320280151E2,4.198805332E0,-5.539982796E0,-3.479164124E0
6.325280151E2,3.072384357E0,-6.449853420E0,-1.162911773E0
6.330280151E2,7.188039303E0,-6.492326260E0,3.876372576E-1
6.335280151E2,2.943171740E0,-1.345603848E1,1.926222295E-1
6.340280151E2,8.493324280E0,-1.195932770E1,7.286145091E-1
6.345280151E2,2.979662418E0,-1.190668583E1,-1.331605792E0
6.350280151E2,1.094776154E1,-1.042313576E1,-3.607180119E0
6.355280151E2,5.766702652E0,-1.131505966E1,-7.992027402E-1
6.360280151E2,7.484749317E0,-7.605587006E0,-1.609771490E0
6.365280151E2,5.036293507E0,-6.476772785E0,-4.998008251E0
6.370280151E2,3.393022537E0,-5.120640278E0,1.346560955E0
6.375280151E2,1.882553220E0,-5.099703312E0,-2.913261652E0
6.380280151E2,3.560520172E0,-5.084149837E0,-1.986042738E0
6.385280151E2,4.050450325E0,-8.355736732E0,-6.669993401E-1
6.390280151E2,3.005385160E0,-1.014676476E1,-2.854039192E0
6.395280151E2,3.884747505E0,-1.201974678E1,8.374879137E-3
6.400280151E2,1.901695848E0,-1.169013500E1,1.412961721E0
6.405280151E2,8.859425545E0,-1.190548897E1,2.062613010E0
6.410280151E2,4.371088982E0,-1.297268772E1,4.516452849E-1
6.415280151E2,1.149691486E1,-1.032263660E1,-3.306880951E0
6.420280151E2,3.955934048E0,-9.699306488E0,-3.511467278E-1
6.425280151E2,6.793821812E0,-7.627122402E0,2.026122570E0
6.430280151E2,2.667398930E0,-5.938985825E0,-4.972285271E0
6.435280151E2,3.147758245E0,-8.130811691E0,2.439482689E0
6.440280151E2,5.027918816E0,-6.141777515E0,-2.127817631E0
6.445280151E2,1.884347796E0,-9.795019150E0,1.782652885E-1
6.450280151E2,3.902095556E0,-9.351150513E0,1.009771109E0
6.455280151E2,-5.467599630E-1,-1.155374432E1,-4.207778454E0
6.460280151E2,5.980261803E0,-1.134018517E1,1.357926875E-1
6.465280151E2,5.696114540E0,-1.038604641E1,1.067198873E0
6.470280151E2,6.479763508E0,-1.277767277E1,-4.767699242E-1
6.475280151E2,6.150750637E0,-1.322094345E1,1.798206210E0
6.480280151E2,1.052841949E1,-1.376172161E1,-1.427318692E0
6.485280151E2,3.820739508E0,-1.314317703E1,-1.380060434E0
6.490280151E2,9.252447128E0,-7.827520847E0,-1.524826288E0
6.495280151E2,3.973880291E0,-8.818149567E0,-1.788036704E0
6.500280151E2,5.042275429E0,-7.328019142E0,-9.714859724E-1
6.505280151E2,3.774677753E0,-4.717449665E0,-3.518645763E0
6.510280151E2,1.734198213E0,-6.638886452E0,1.573280931E0
6.515280151E2,3.673580885E0,-6.025127411E0,-3.303889751E0
6.520280151E2,2.584248543E0,-7.160521984E0,-2.413161755E0
6.525280151E2,3.089732170E0,-8.202595711E0,-1.927418590E0
6.530280151E2,3.078366280E0,-8.539385796E0,-2.834298372E0
6.535280151E2,2.867797852E0,-1.119063377E1,-4.031906128E-1
6.540280151E2,4.904089928E0,-1.111825085E1,-1.201196909E0
6.545280151E2,4.836492538E0,-1.298525047E1,2.512463741E-2
6.550280151E2,5.005784988E0,-1.285125256E1,-6.669993401E-1
6.555280151E2,5.596213818E0,-1.375274849E1,4.390829504E-1
6.560280151E2,2.748156786E0,-1.221117210E1,1.701895118E0
6.565280151E2,8.169096947E0,-1.242652607E1,-2.757728100E-1
6.570280151E2,4.353142738E0,-1.260060406E1,-4.689932466E-1
6.575280151E2,9.288937569E0,-9.596415520E0,-3.137588739E0
6.580280151E2,2.312663078E0,-1.004806042E1,5.922235921E-2
6.585280151E2,5.416153908E0,-8.229515076E0,-4.247260094E-1
6.590280151E2,4.316651821E0,-5.734399319E0,-4.619942188E0
6.595280151E2,3.543172121E0,-5.905486107E0,8.997012973E-1
6.600280151E2,5.005784988E0,-4.777270317E0,-2.431107759E0
6.605280151E2,2.689532757E0,-7.593622684E0,8.578268886E-1
6.610280151E2,4.463212490E0,-6.792625427E0,-1.805384636E0
6.615280151E2,1.222134113E0,-9.323633194E0,-1.413560033E0
6.620280151E2,4.547559261E0,-9.498309135E0,-2.087737769E-1
6.625280151E2,3.317648649E0,-1.035015392E1,-1.278963685E0
6.630280151E2,1.051645517E0,-1.193898869E1,-6.185446382E-1
6.635280151E2,5.760122299E0,-1.140299606E1,-6.927221417E-1
6.640280151E2,6.736992359E0,-1.188873959E1,3.170489892E-2
6.645280151E2,8.673982024E-1,-1.204905796E1,-7.962117195E-1
6.650280151E2,9.573084831E0,-9.151350021E0,-4.145565331E-1
6.655280151E2,3.677170277E0,-1.045543861E1,4.785645287E-3
6.660280151E2,7.625327587E0,-7.904091358E0,-1.638485312E0
6.665280151E2,5.176871777E0,-7.559525013E0,-1.661815286E0
6.670280151E2,2.816950560E0,-8.560322762E0,4.606183469E-1
6.675280151E2,5.239085197E0,-5.371288776E0,-4.573282242E0
6.680280151E2,2.743969440E0,-7.150950432E0,2.706880569E0
6.685280151E2,4.859224796E0,-4.682155609E0,-3.732803345E0
6.690280151E2,2.405983210E0,-8.017151833E0,-5.276173949E-1
6.695280151E2,3.520440340E0,-7.610970497E0,-9.475577474E-1
6.700280151E2,2.343171597E0,-9.406784058E0,-1.847259045E0
6.705280151E2,2.774477959E0,-1.050449181E1,2.506481707E-1
6.710280151E2,2.999403238E0,-9.744770050E0,-2.214557409E0
6.715280151E2,4.816154003E0,-1.224766254E1,2.104487419E0
6.720280151E2,3.774677753E0,-1.150469112E1,6.969096065E-1
6.725280151E2,5.316852093E0,-1.213280678E1,1.712064624E0
6.730280151E2,2.734398127E0,-1.246840096E1,4.366901219E-1
6.735280151E2,6.089135647E0,-1.168953705E1,1.828116536E0
6.740280151E2,1.774278045E0,-1.131206894E1,-1.328016520E-1
6.745280151E2,8.994022369E0,-1.056012440E1,6.508477330E-1
6.750280151E2,2.379662037E0,-1.312702465E1,-1.098903775E0
6.755280151E2,8.079365730E0,-9.628718376E0,-1.440479279E0
6.760280151E2,4.249652863E0,-1.093340492E1,-4.725824594E-1
6.765280151E2,7.886743546E0,-8.907880783E0,5.521438122E-1
6.770280151E2,4.235296249E0,-6.497709751E0,-2.094916344E0
6.775280151E2,2.770888567E0,-7.200601578E0,1.122832060E0
6.780280151E2,4.119244099E0,-4.182653904E0,-3.619144201E0
6.785280151E2,3.219542980E0,-6.518048763E0,1.448255897E0
6.790280151E2,4.755136967E0,-5.556134224E0,-3.994817495E0
6.795280151E2,3.075375319E0,-7.567301750E0,4.414757788E-1
6.800280151E2,4.204787731E0,-6.272784710E0,-2.772084951E0
6.805280151E2,2.987439156E0,-8.519644737E0,-2.474178553E0
6.810280151E2,2.337189436E0,-1.024247742E1,-8.949156404E-1
6.815280151E2,3.357728481E0,-1.003669453E1,-1.652842283E0
6.820280151E2,3.789034605E0,-1.085683441E1,1.197607756E0
6.825280151E2,4.107878208E0,-1.005763149E1,-1.252044439E0
6.830280151E2,8.057231903E0,-1.302832127E1,5.712863803E-1
6.835280151E2,1.966900229E0,-1.263230896E1,1.107278705E0
6.840280151E2,7.586444378E0,-1.232901859E1,-1.000199914E0
6.845280151E2,4.727021217E0,-1.338664627E1,-5.090730190E-1
6.850280151E2,8.946166039E0,-8.537590981E0,-2.614158690E-1
6.855280151E2,4.414159775E0,-9.110671997E0,-2.689532757E0
6.860280151E2,4.161716938E0,-8.159524918E0,1.606780410E0
6.865280151E2,4.334598064E0,-6.171687603E0,-3.557528973E0
6.870280151E2,3.290729284E0,-7.923233986E0,1.911267042E0
6.875280151E2,3.853640795E0,-5.193621635E0,-4.186243057E0
6.880280151E2,3.195016384E0,-6.526423931E0,-4.115654826E-1
6.885280151E2,3.415156126E0,-7.433901787E0,-2.108675003E0
6.890280151E2,4.512863636E0,-9.051449776E0,-2.094916344E0
6.895280151E2,2.623729944E0,-1.183370399E1,-4.767699242E-1
6.900280151E2,5.029713154E0,-9.954142570E0,-4.725824594E-1
6.905280151E2,5.897709846E0,-1.437308788E1,-3.080759048E-1
6.910280151E2,2.624328136E0,-1.157647610E1,3.457628787E-1
6.915280151E2,8.176873207E0,-1.039322472E1,-1.052841991E-1
6.920280151E2,2.693121910E0,-1.297986603E1,-1.208973646E0
6.925280151E2,8.264809608E0,-8.423932076E0,-2.882154942E0
6.930280151E2,6.398407936E0,-9.096315384E0,-2.082952023E0
6.935280151E2,7.094120979E0,-8.113463402E0,-4.163511395E-1
6.940280151E2,5.866004944E0,-6.183053493E0,-2.568096876E0
6.945280151E2,5.642275810E0,-8.744570732E0,6.251249313E-1
6.950280151E2,4.989633560E0,-5.408975601E0,-3.958925009E0
6.955280151E2,3.485146284E0,-7.240681171E0,2.501097918E0
6.960280151E2,4.653441906E0,-4.997410297E0,-3.537788391E0
6.965280151E2,3.260818958E0,-7.947760582E0,2.026122570E0
6.970280151E2,6.139982700E0,-5.654838085E0,-3.540181160E0
6.975280151E2,2.963510752E0,-9.573084831E0,1.569691658E0
6.980280151E2,3.466003656E0,-8.620143890E0,-8.434699476E-2
6.985280151E2,2.867797852E0,-1.011805058E1,-5.533402562E-1
6.990280151E2,6.090929985E0,-1.114696407E1,5.964110494E-1
6.995280151E2,5.211567879E0,-1.082692432E1,8.315058798E-2
7.000280151E2,9.644869804E0,-6.286543369E0,6.497111797E0
7.005280151E2,6.490531445E0,-1.789831281E0,1.033400249E1
7.010280151E2,3.383451223E0,3.399004459E0,1.193061352E1
7.015280151E2,3.626322746E0,3.970889091E0,1.417508125E1
7.020280151E2,1.620539188E0,5.063212872E0,8.980861664E0
7.025280151E2,2.988037348E0,6.264409542E0,9.040083885E0
7.030280151E2,-7.298108935E-2,5.335994720E0,8.805587769E0
7.035280151E2,2.006979942E0,4.277170658E0,8.824729919E0
7.040280151E2,-9.870393276E-1,4.950151920E0,7.459026337E0
7.045280151E2,7.926225066E-1,5.913262844E0,6.020341873E0
7.050280151E2,-9.349954724E-1,5.573482037E0,6.328417778E0
7.055280151E2,7.992027402E-1,5.701498032E0,6.884748936E0
7.060280151E2,9.343972206E-1,4.983651161E0,7.715656757E0
7.065280151E2,1.141974568E0,5.873781204E0,6.822535515E0
