"Time (s)","Gyroscope x (rad/s)","Gyroscope y (rad/s)","Gyroscope z (rad/s)"
2.707749500E-1,-8.495602012E-1,-4.566214085E-1,-2.922987938E-1
7.748688040E-1,-4.153880477E-1,-2.411999464E0,2.237444878E0
1.278963491E0,3.200931549E-1,3.029889166E-1,-5.549706817E-1
1.783058960E0,1.130099874E-2,-7.483093739E-1,2.609919906E-1
2.287155158E0,-3.423897028E-1,6.131555438E-1,-1.038470119E-2
2.791252033E0,-1.910479665E-1,-4.894554019E-1,1.924224012E-2
3.295349325E0,3.167333901E-1,5.986474827E-2,7.377719283E-1
3.799446981E0,-4.184423685E-1,9.468404204E-2,-4.560105503E-1
4.303544846E0,2.550360560E-1,-6.093376279E-1,4.495964646E-1
4.807642918E0,-4.402807951E-1,6.076577306E-1,-8.567378670E-2
5.311741148E0,3.226893246E-1,-5.119046569E-1,-4.088212550E-1
5.815839481E0,-3.581194878E-1,4.935787320E-1,2.808450758E-1
6.319937814E0,-8.185587823E-2,-4.398226440E-1,-6.330085993E-1
6.824036043E0,-6.652317643E-1,8.842267841E-2,7.643445730E-1
7.328134221E0,-1.174387559E-1,-6.007854939E-1,-8.219185472E-1
7.832232293E0,3.671297431E-1,3.324631453E-1,5.952877402E-1
8.336330314E0,-3.581194878E-1,-1.884517819E-1,-5.378664136E-1
8.840428439E0,4.396699369E-1,-2.079994529E-1,9.046907425E-1
9.344526668E0,1.059850380E-1,-7.803797722E-2,-7.412844300E-1
9.848624898E0,-2.385426909E-1,-8.323032409E-2,1.795942485E-1
1.035272313E1,1.742491722E-1,1.766926348E-1,1.954767257E-1
1.085682120E1,-2.089157552E-1,-3.507890999E-1,-3.659079969E-1
1.136091917E1,-7.793107629E-1,6.499601007E-1,4.984656572E-1
1.186501698E1,1.553123742E-1,-2.249051332E0,-2.855792828E-2
1.236911453E1,4.352411628E-1,5.238165259E-1,-1.010981202E-1
1.287321193E1,-4.491383433E-1,-2.281579971E-1,-8.242093325E-1
1.337730917E1,-2.501491308E-1,1.061377525E0,1.224631190E0
1.388140615E1,2.041815519E-1,-4.894554019E-1,-1.319467872E-1
1.438550287E1,-5.274817348E-1,1.508836001E-1,-1.302669197E-1
1.488959932E1,4.108065665E-1,2.351829410E-1,-1.191186309E-1
1.539369547E1,-1.449276656E-1,-6.989820004E-1,-6.979130208E-2
1.589779130E1,-3.158170879E-1,5.303833485E-1,2.005163580E-1
1.640188693E1,5.955931544E-2,-3.820959330E-1,-3.801106215E-1
1.690598229E1,-2.399171442E-1,3.694204688E-1,4.880809486E-1
1.741007740E1,-2.742782831E-1,-4.211912751E-1,-2.785543501E-1
1.791417219E1,5.894844979E-2,3.385718167E-1,7.447968721E-1
1.841826667E1,-3.654498458E-1,-2.596175298E-3,-8.811724186E-1
1.892236078E1,2.038761228E-1,-6.139190868E-2,9.364557266E-1
1.942645448E1,1.262962967E-1,-1.275180280E-1,-7.023417950E-1
1.993054781E1,-2.474002391E-1,-5.099193454E-1,1.398880333E-1
2.043464078E1,-1.802051067E-2,2.994764447E-1,-3.008509055E-2
2.093873339E1,-2.426660359E-1,-2.057087123E-1,-4.647153914E-1
2.144282563E1,2.962694131E-2,5.400044918E-1,9.217949510E-1
2.194691740E1,-3.597993553E-1,-9.020945430E-1,-5.862774849E-1
2.245100875E1,-1.401934624E-1,7.406735420E-1,5.827649832E-1
2.295509969E1,5.681042373E-2,-6.566796452E-3,-8.353576064E-1
2.345919021E1,-1.708894223E-1,-1.110246703E-1,9.552397728E-1
2.396328031E1,-5.592467189E-1,1.310304999E-1,-1.249829292E0
2.446737005E1,5.360338464E-2,-6.994401664E-2,1.007621408E0
2.497145943E1,1.038470119E-2,-1.664606482E-1,-1.032361507E0
2.547554834E1,1.837175786E-1,-5.635227636E-2,7.855721116E-1
2.597963682E1,-3.436114267E-2,-1.023198478E-2,-6.053670049E-1
2.648372500E1,6.169734150E-2,-2.139553875E-1,3.095557392E-1
2.698781344E1,6.230820715E-2,2.435823381E-1,1.308777779E-1
2.749190261E1,-2.875646055E-1,-3.020726442E-1,-4.792234302E-1
2.799599302E1,-9.162971377E-2,3.804160357E-1,4.043924809E-1
2.850008474E1,-2.955058515E-1,-5.966621637E-1,-4.899135530E-1
2.900417771E1,-1.420260593E-2,2.142608166E-1,7.947350740E-1
2.950827156E1,-3.074176908E-1,1.458439678E-1,-1.307861447E0
3.001236599E1,9.590577334E-2,3.817904973E-3,1.541517258E0
3.051646084E1,-4.870119393E-1,-3.649916872E-2,-1.892000914E0
3.102055584E1,1.513417512E-1,1.617264450E-1,1.837175846E0
3.152465089E1,-1.389717404E-2,-5.406153202E-1,-1.385288596E0
3.202874589E1,-2.535088956E-1,2.631300092E-1,9.952514172E-1
3.253284068E1,2.044869810E-1,2.087630332E-1,-4.773908257E-1
3.303693511E1,-4.376846254E-1,-2.846629918E-1,-7.162389904E-2
3.354102922E1,2.098320574E-1,6.519454122E-1,4.120282829E-1
3.404512302E1,-3.764454126E-1,-1.759290546E-1,-8.917098641E-1
3.454921656E1,-2.727511227E-1,5.589412451E-1,7.325795889E-1
3.505330964E1,-1.078176349E-1,-5.221366882E-1,-1.277776361E0
3.555740224E1,-2.755000293E-1,5.401571989E-1,1.661704898E0
3.606149433E1,-4.444041103E-2,-3.495673835E-1,-2.200029612E0
3.656558584E1,-3.000873327E-1,2.799287736E-1,2.611141443E0
3.706967688E1,-2.047924101E-1,-1.359174121E-2,-2.660010576E0
3.757376745E1,-5.513054505E-2,2.122755162E-2,2.188881159E0
3.807785750E1,-2.199113183E-2,-2.872591615E-1,-1.618944407E0
3.858194703E1,-1.310304999E-1,1.783725172E-1,1.156672478E0
3.908603610E1,1.744018942E-1,-7.208204269E-2,-6.411026120E-1
3.959012464E1,-2.289215773E-1,-2.270889878E-1,2.350302190E-1
4.009421266E1,-5.497782957E-3,5.053378940E-1,2.124282271E-1
4.059830021E1,-1.989891976E-1,-4.323395491E-1,-6.438514590E-1
4.110238724E1,-4.352411628E-2,1.661552191E-1,7.715222239E-1
4.160647370E1,-2.868010104E-1,7.360920310E-2,-9.416480660E-1
4.211055969E1,-2.767217457E-1,2.869537175E-1,9.439387918E-1
4.261464511E1,-2.487746775E-1,-1.061377525E-1,-1.181259751E0
4.311873000E1,-2.214384824E-2,1.223256737E-1,1.387426615E0
4.362281438E1,-3.115410507E-1,-6.612611562E-2,-1.185383081E0
4.412689828E1,2.461785078E-1,-2.223547846E-1,8.930842876E-1
4.463098177E1,4.963276163E-2,-1.861610413E-1,-4.944950342E-1
4.513506474E1,-4.725039005E-1,5.299251899E-2,2.425133139E-1
4.563914719E1,2.362519503E-1,2.996291816E-1,2.579376400E-1
4.614322901E1,-1.670715213E-1,-3.993528485E-1,-6.791289449E-1
4.664731031E1,-2.609919906E-1,6.064360142E-1,5.807796717E-1
4.715139104E1,-2.411388755E-1,-8.765909821E-2,-7.308996916E-1
4.765547141E1,-5.293143392E-1,4.579958618E-1,1.076038361E0
4.815955146E1,-2.168569900E-2,-2.272416949E-1,-1.292895317E0
4.866363120E1,1.171333194E-1,-2.206749022E-1,1.147814870E0
4.916771058E1,-1.956294477E-1,1.379027218E-1,-5.532907844E-1
4.967178959E1,5.833758786E-2,-5.595521331E-1,3.782780170E-1
5.017586823E1,5.757400393E-2,4.265363216E-1,-3.156643808E-1
5.067994656E1,-4.731147587E-1,-2.156352699E-1,2.790125012E-1
5.118402464E1,-7.635809481E-2,5.035052896E-1,4.685332775E-1
5.168810245E1,-4.572322965E-1,-4.495964646E-1,-9.457713962E-1
5.219218000E1,-4.735729098E-1,5.436696410E-1,1.222493172E0
5.269625724E1,-1.866191924E-1,-7.941242307E-3,-1.575114846E0
5.320033406E1,-4.581485991E-4,8.613193035E-2,1.839161158E0
5.370441031E1,-3.924806118E-1,-2.530507445E-1,-1.459203243E0
5.420848604E1,3.488037884E-1,-1.160643101E-1,1.189048290E0
5.471256141E1,-4.334085584E-1,1.603520066E-1,-7.098248601E-1
5.521663641E1,1.091920808E-1,-4.016436040E-1,2.952004075E-1
5.572071136E1,3.020726442E-1,-8.277218044E-2,-2.148716897E-1
5.622478659E1,-5.363392830E-1,-7.452550530E-2,-1.551596522E-1
5.672886222E1,5.665770918E-2,6.253728271E-1,6.246092319E-1
5.723293868E1,-1.640172005E-1,-7.874047160E-1,-9.598212838E-1
5.773701602E1,-1.404988952E-2,3.692677617E-1,1.269987822E0
5.824109415E1,-5.910117030E-1,-2.828303874E-1,-1.191644430E0
5.874517279E1,-3.035998046E-1,2.935205400E-1,1.335655808E0
5.924925164E1,-2.047924101E-1,-1.065959036E-1,-1.714239240E0
5.975333071E1,4.575377107E-1,1.075121984E-1,1.707061648E0
6.025740987E1,-6.890554428E-1,7.330377586E-3,-1.486539483E0
6.076148894E1,7.095194459E-1,-2.855792828E-2,1.240055561E0
6.126556779E1,-4.955640435E-1,1.411097646E-1,-7.606793642E-1
6.176964633E1,-8.735366166E-2,-1.817322671E-1,4.886918366E-1
6.227372456E1,-6.464476585E-1,3.338375986E-1,-4.709767401E-1
6.277780253E1,6.467530727E-1,-4.546361268E-1,3.346011937E-1
6.328188029E1,-3.205513060E-1,1.287397593E-1,2.220493406E-1
6.378595790E1,5.039634649E-3,-6.940951347E-1,-7.199041247E-1
6.429003519E1,-3.824013472E-1,3.284925222E-1,5.432115197E-1
6.479411211E1,-1.591302752E-1,-6.145299673E-1,-1.482874304E-1
6.529818873E1,4.306596518E-2,4.641045034E-1,6.052142978E-1
6.580226503E1,-2.118173689E-1,-3.741546869E-1,-9.459241033E-1
6.630634112E1,-1.359174103E-1,3.407098353E-1,9.805907011E-1
6.681041691E1,-5.864302069E-2,-5.381718874E-1,-9.769254923E-1
6.731449248E1,3.263545036E-1,3.639226854E-1,1.106123447E0
6.781856790E1,-6.325504780E-1,-8.552107215E-2,-1.039386392E0
6.832264300E1,3.037525117E-1,1.617264450E-1,9.401208758E-1
6.882671816E1,-5.329795182E-2,7.162389904E-2,-7.567087412E-1
6.933079352E1,-2.417497337E-1,-7.788526267E-2,3.740019500E-1
6.983486930E1,2.793179154E-1,1.708894223E-1,-3.419315517E-1
7.033894566E1,-4.190532267E-1,-2.335030586E-1,1.507308781E-1
7.084302258E1,1.719584316E-1,4.922043085E-1,-1.235474050E-1
7.134710003E1,-3.321577311E-1,-4.005745649E-1,-3.158170879E-1
7.185117790E1,-3.156643808E-1,1.365282834E-1,2.092211843E-1
7.235525602E1,1.519526094E-1,-5.401571989E-1,-6.227766275E-1
7.285933441E1,-2.710712552E-1,5.581777096E-1,5.177078843E-1
7.336341284E1,-4.022544622E-1,-3.173442483E-1,-3.995055556E-1
7.386749118E1,-8.613193035E-2,2.174678594E-1,1.250287533E0
7.437156941E1,-3.092502952E-1,6.566796452E-2,-1.155450702E0
7.487564737E1,2.122755162E-2,-1.035415828E-1,1.208901405E0
7.537972550E1,7.941242307E-2,-1.511890348E-2,-8.845322132E-1
7.588380378E1,1.218675226E-1,-4.703658819E-1,4.613556266E-1
7.638788206E1,2.226602137E-1,1.200349256E-1,-1.600465775E-1
7.689196024E1,-3.546070158E-1,-3.115410507E-1,1.527161920E-3
7.739603831E1,-1.733328849E-1,7.170025110E-1,2.547306120E-1
7.790011810E1,-5.818486959E-2,-4.256200492E-1,-3.979783952E-1
7.840419383E1,-7.182242870E-1,3.220784664E-1,5.623010397E-1
7.890827092E1,-7.834340632E-2,-1.695149690E-1,-1.162322998E0
7.941234748E1,1.660024971E-1,2.092211880E-2,1.411097646E0
7.991642357E1,-6.533198953E-1,-1.423314959E-1,-1.515708208E0
8.042049941E1,2.391535640E-1,-8.643736690E-2,1.421940446E0
8.092457477E1,-4.028653204E-1,-4.999928176E-1,-7.279980779E-1
8.142864972E1,3.312414289E-1,-1.149952933E-1,-9.453132749E-2
8.193272430E1,3.839285076E-1,2.495382577E-1,1.823431402E-1
8.243679836E1,-2.811505198E-1,8.491020650E-2,-2.197586000E-1
8.294087180E1,-2.689332068E-1,5.325213671E-1,8.213077188E-1
8.344494461E1,1.612683088E-1,-3.805687428E-1,-3.966039717E-1
8.394901691E1,-6.670643687E-1,2.890917659E-1,3.633118272E-1
8.445308868E1,3.695731983E-2,-1.840230078E-1,-7.530435324E-1
8.495715987E1,2.046397030E-1,-1.262962967E-1,7.203623056E-1
8.546123045E1,-1.440113783E-1,1.873827726E-1,-3.978256881E-1
8.596530050E1,9.376774728E-2,-3.721693754E-1,1.446222365E-1
8.646936998E1,-6.030762792E-1,6.107120514E-1,-2.487746775E-1
8.697343894E1,2.371682525E-1,-4.300487936E-1,-2.099847645E-1
8.747750748E1,5.619955808E-2,6.414080039E-3,6.505709887E-1
8.798157555E1,2.229656465E-2,-2.970330119E-1,-7.515164018E-1
8.848564310E1,-3.937023580E-1,2.072358727E-1,7.997747064E-1
8.898971008E1,-2.539670467E-1,8.628465235E-2,-1.027321815E0
8.949377649E1,1.003345400E-1,-1.114828214E-1,8.439096808E-1
8.999784227E1,-1.805105358E-1,5.482511222E-2,-6.287325621E-1
9.050190753E1,-1.679878100E-3,-4.489856064E-1,-1.649334840E-2
9.100597232E1,2.474002391E-1,2.478583902E-1,3.292561173E-1
9.151003685E1,-2.843575478E-1,-1.197294965E-1,-4.247037470E-1
9.201410149E1,-1.641699076E-1,2.686277926E-1,2.848156989E-1
9.251816597E1,-7.208204269E-2,-4.341721535E-1,-6.629409790E-1
9.302223014E1,-2.602283955E-1,1.408043355E-1,1.204014540E0
9.352629388E1,-4.993819445E-2,-1.653916389E-1,-1.101236463E0
9.403035717E1,1.375972927E-1,3.787361458E-2,1.229518056E0
9.453441998E1,-3.359756172E-1,9.254601598E-2,-1.038775563E0
9.503848237E1,-1.404988952E-2,-2.655734718E-1,5.242747068E-1
9.554254441E1,1.889099330E-1,6.108647678E-3,-1.951712966E-1
9.604660602E1,-1.933387071E-1,-2.692386508E-1,-1.899789423E-1
9.655066717E1,-1.157588735E-1,5.574141145E-1,1.276707351E-1
9.705472774E1,-9.468403645E-3,-6.414080262E-1,-5.355756879E-1
9.755878784E1,-3.689623177E-1,5.355756879E-1,5.618428588E-1
9.806284753E1,-1.102610901E-1,-2.498437017E-1,-7.689260244E-1
9.856690685E1,-4.754055142E-1,1.989891976E-1,1.003498077E0
9.907096586E1,-2.611446939E-2,-2.565632015E-2,-1.205847025E0
9.957502477E1,-2.748891478E-3,-3.132209182E-1,1.333517790E0
1.000790835E2,-1.027780026E-1,3.115410358E-2,-1.021824002E0
1.005831420E2,4.642572254E-2,-2.405280024E-1,5.581777096E-1
1.010872000E2,3.138317764E-1,4.764745384E-2,-5.757400393E-2
1.015912576E2,-3.385718167E-1,-5.115992427E-1,-1.843284518E-1
1.020953148E2,1.250745654E-1,5.691732764E-1,8.086322546E-1
1.025993715E2,6.948586553E-2,-4.437932670E-1,-1.235321283E0
1.031034279E2,-4.218021333E-1,4.382954836E-1,8.688024282E-1
1.036074839E2,5.818486959E-2,-3.970620930E-1,-1.262504816E0
1.041115395E2,-1.539379209E-1,3.582721949E-1,1.102305532E0
1.046155947E2,-1.264490038E-1,-2.325867712E-1,-1.081383348E0
1.051196494E2,-9.880737960E-2,1.221729559E-3,1.215315461E0
1.056237035E2,4.581485875E-3,5.138899684E-1,-9.958623052E-1
1.061277572E2,-3.711003438E-2,-3.878991306E-2,1.147509456E0
1.066318103E2,2.185368687E-1,-1.996000707E-1,-1.094669700E0
1.071358632E2,-2.232710719E-1,8.765909821E-2,1.185077667E0
1.076399155E2,-5.971203372E-2,-6.330085993E-1,-1.377805471E0
1.081439672E2,2.762635946E-1,1.363755614E-1,1.119562387E0
1.086480182E2,-1.061377525E-1,-3.069595397E-1,-7.913753390E-1
1.091520690E2,-1.096502244E-1,1.127045527E-1,4.583013058E-1
1.096561201E2,1.734855920E-1,3.126100600E-1,3.970621154E-2
1.101601715E2,-2.128863782E-1,-4.691441655E-1,-5.804742575E-1
1.106642232E2,-9.911280870E-2,2.712239623E-1,6.766854525E-1
1.111682749E2,-1.481347084E-1,-2.487746775E-1,-8.767436743E-1
1.116723265E2,-1.536324918E-1,3.312414289E-1,9.929606915E-1
1.121763778E2,-6.322450191E-2,-2.661843300E-1,-1.110094070E0
1.126804288E2,-2.869537175E-1,4.155407548E-1,1.139720917E0
1.131844794E2,3.191768378E-2,-3.234528899E-1,-1.304654479E0
1.136885296E2,-6.327031851E-1,4.615083337E-1,9.866993427E-1
1.141925795E2,1.980729103E-1,-1.098029464E-1,-1.029612541E0
1.146966288E2,-2.942841053E-1,-1.426369250E-1,1.490204573E0
1.152006775E2,-2.652680278E-1,-5.100720748E-2,-1.310304999E0
1.157047257E2,2.319758981E-1,7.070759684E-2,1.346193314E0
1.162087734E2,-2.338084877E-1,9.590577334E-2,-1.065195441E0
1.167128206E2,5.665770918E-2,-4.537198246E-1,5.899426341E-1
1.172168673E2,1.954767257E-1,1.012508348E-1,-5.493201613E-1
1.177209135E2,-5.169443488E-1,-1.586721241E-1,1.936441362E-1
1.182249592E2,3.202458620E-1,3.926333487E-1,-2.658788860E-1
1.187290044E2,-2.741255760E-1,-2.616028488E-1,-3.335321844E-1
1.192330492E2,-2.973384261E-1,4.899135530E-1,3.596466482E-1
1.197370936E2,5.681042373E-2,-2.017380893E-1,-4.596757591E-1
1.202411376E2,-3.701840639E-1,2.535088919E-2,6.155989766E-1
1.207451812E2,-2.489273995E-2,-5.844448805E-1,-7.507528067E-1
1.212492245E2,1.237001177E-2,1.884517819E-1,9.303470850E-1
1.217532674E2,-3.127627671E-1,-1.792888194E-1,-1.020144224E0
1.222573100E2,1.649334840E-2,2.154825479E-1,1.349705696E0
1.227613521E2,-2.367101014E-1,3.970621154E-3,-1.344818830E0
1.232653941E2,1.255327165E-1,-1.759290546E-1,1.271362305E0
1.237694358E2,-5.558869615E-2,1.043051630E-1,-1.011133909E0
1.242734772E2,-1.521053314E-1,-2.503018379E-1,5.187768936E-1
1.247775183E2,1.812741160E-1,1.149952933E-1,-5.757400393E-1
1.252815592E2,-4.718930274E-2,-2.596175373E-1,6.414080411E-2
1.257855997E2,-6.734783947E-2,3.205513060E-1,4.057669342E-1
1.262896400E2,4.495964646E-1,-4.723511934E-1,-1.108719558E-1
1.267936797E2,-7.191405892E-1,4.042397738E-1,2.855792828E-2
1.272977190E2,1.908952370E-2,-1.924224049E-1,-6.152935624E-1
1.278017581E2,-2.374736816E-1,2.243400961E-1,7.667880058E-1
1.283057967E2,4.886918236E-3,-3.503309488E-1,-8.275690675E-1
1.288098351E2,1.313359290E-1,-7.819069177E-2,1.002887249E0
1.293138731E2,-3.251327872E-1,4.108065739E-2,-7.260127664E-1
1.298179108E2,1.650862098E-1,8.200860023E-2,7.425061464E-1
1.303219481E2,3.054323897E-4,-1.404989064E-1,-7.017309070E-1
1.308259852E2,-3.069595434E-2,-5.641336441E-1,2.868010104E-1
1.313300218E2,2.797760665E-1,7.764091492E-1,7.330377586E-3
1.318340581E2,-2.336557806E-1,-6.032289863E-1,-3.199404180E-1
1.323380940E2,-1.594357044E-1,-9.773836285E-2,1.925751269E-1
1.328421293E2,1.893680729E-2,-2.803869247E-1,-3.407098353E-1
1.333461641E2,-2.345720828E-1,-3.451386094E-2,-4.642572254E-2
1.338501984E2,-2.046396956E-2,-4.810560122E-2,-2.046396956E-2
1.343542324E2,-3.419315517E-1,5.198459029E-1,8.315396905E-1
1.348582660E2,-1.003345400E-1,-2.203694731E-1,-2.881754637E-1
1.353622993E2,4.816668928E-1,-1.178968996E-1,3.773617148E-1
1.358663322E2,-2.571740746E-1,-8.597921580E-2,-3.478874862E-1
1.363703648E2,1.153007299E-1,-1.214093715E-1,4.224129915E-1
1.368743970E2,-1.130099874E-2,1.820377111E-1,-1.484401375E-1
1.373784291E2,-1.253799945E-1,-1.948658675E-1,-3.645335436E-1
1.378824608E2,4.013381600E-1,-5.696314201E-2,2.185368687E-1
1.383864923E2,-4.086685479E-1,-1.372918636E-1,-2.324340492E-1
1.388905237E2,5.009091273E-2,6.320923567E-1,6.782126427E-1
1.393945549E2,-1.055268943E-1,-5.714640021E-1,-7.846558094E-1
1.398985860E2,-5.772672221E-2,3.550651670E-1,7.765618563E-1
1.404026170E2,-2.280052751E-1,-7.223475724E-2,-1.314275622E0
1.409066479E2,3.512472380E-3,1.681405306E-1,1.713475704E0
1.414106786E2,-2.313650399E-1,1.302669197E-1,-1.616653681E0
1.419147090E2,1.255327165E-1,-1.687513888E-1,1.200349331E0
1.424187391E2,-1.693622619E-1,9.224057943E-2,-7.547234297E-1
1.429227691E2,-2.994764447E-1,-2.061668634E-1,4.027126133E-1
1.434267988E2,4.332558513E-1,1.185077652E-1,-2.874118686E-1
1.439308281E2,-2.081521749E-1,-6.233875155E-1,1.527161949E-4
1.444348572E2,-3.576613367E-1,6.728675365E-1,2.495382577E-1
1.449388859E2,-8.139773458E-2,-5.328267813E-1,-4.164570570E-1
1.454429143E2,-3.419315517E-1,4.129445851E-1,4.022544622E-1
1.459469425E2,-2.701549530E-1,2.700022459E-1,-7.283035517E-1
1.464509704E2,2.144135386E-1,-3.538434207E-1,1.079550743E0
1.469549982E2,-5.803215317E-3,-1.641699076E-1,-7.078395486E-1
1.474590258E2,-6.948586553E-2,-6.226239204E-1,3.678933084E-1
1.479630532E2,3.397935331E-1,2.260199636E-1,5.513054505E-2
1.484670803E2,-5.102248192E-1,-2.385426909E-1,-8.196278214E-1
1.489711073E2,-2.073885947E-1,3.229947388E-1,5.610793233E-1
1.494751341E2,-2.150243968E-1,-1.759290546E-1,-2.690859437E-1
1.499791610E2,-4.734201822E-3,3.077231348E-1,6.163625717E-1
1.504831878E2,-3.058905303E-1,1.985310577E-2,-5.632173419E-1
1.509872145E2,2.270889878E-1,-2.962694131E-2,7.910698652E-1
1.514912410E2,-1.695149764E-2,1.267544460E-2,-7.589994669E-1
1.519952675E2,-4.749473557E-2,-3.136790693E-1,5.235111117E-1
1.524992937E2,4.045451880E-1,2.009745091E-1,-1.730274558E-1
1.530033198E2,-4.778489769E-1,-1.530216336E-1,-1.922696829E-1
1.535073456E2,-1.343902480E-2,3.637699783E-1,1.446222365E-1
1.540113714E2,-7.223475724E-2,-2.666424811E-1,-6.388118267E-1
1.545153972E2,-1.632536054E-1,3.703367710E-1,5.916225314E-1
1.550194234E2,-1.350011230E-1,-3.394880891E-1,-7.654135823E-1
1.555234501E2,-2.415970266E-1,4.152353406E-1,1.143538833E0
1.560274778E2,-2.310595959E-1,-5.192350745E-1,-1.240360975E0
1.565315061E2,4.211912751E-1,2.260199636E-1,1.125060201E0
1.570355348E2,-3.391826749E-1,-9.514218569E-2,-7.403681278E-1
1.575395638E2,1.658497900E-1,2.367101051E-2,3.747655451E-1
1.580435928E2,1.794415265E-1,-5.910116807E-2,-3.178023994E-1
1.585476216E2,-9.162971377E-2,-3.637699783E-1,4.550942779E-2
1.590516505E2,-7.330377400E-2,5.904008150E-1,-1.687513888E-1
1.595556793E2,-1.398880333E-1,-4.844157696E-1,-3.185659945E-1
1.600597079E2,-1.362228394E-1,3.680460155E-1,3.101665974E-1
1.605637363E2,-2.443459071E-2,-3.675878942E-1,-7.351757884E-1
1.610677642E2,-6.507236958E-1,4.263836145E-1,1.046105981E0
1.615717919E2,1.788306683E-1,-2.244928032E-1,-1.158657789E0
1.620758192E2,-1.375972927E-1,4.856374860E-2,8.678861260E-1
1.625798463E2,-4.673115537E-2,-4.124864340E-1,-5.415316224E-1
1.630838730E2,4.703658819E-2,-2.883281708E-1,8.582650125E-2
1.635878995E2,-1.131627038E-1,5.006036758E-1,1.774562150E-1
1.640919256E2,-1.870773435E-1,-6.108647794E-4,1.249218509E-1
1.645959513E2,2.681696415E-1,5.024362728E-2,7.284562290E-2
1.650999766E2,-7.406735420E-2,-3.652971387E-1,-1.727220118E-1
1.656040016E2,-5.192350596E-2,5.772672221E-2,3.400989771E-1
1.661080264E2,-1.087339297E-1,-3.210094273E-1,-7.817541957E-1
1.666120511E2,-9.514218569E-2,5.219839811E-1,8.600975871E-1
1.671160754E2,-2.339612097E-1,4.489856213E-2,-7.116574645E-1
1.676200996E2,3.342957497E-1,-3.049742281E-1,7.122683525E-1
1.681241235E2,-4.050033391E-1,2.241873741E-1,-7.344121933E-1
1.686281472E2,3.274235129E-1,-6.714931130E-1,4.604393244E-1
1.691321708E2,4.780016840E-2,6.572905183E-1,-2.049451321E-1
1.696361940E2,5.070177838E-2,-3.051269650E-1,1.962403059E-1
1.701402169E2,-4.560105503E-1,-3.863719851E-2,-3.634645417E-2
1.706442395E2,1.185077652E-1,-2.770271897E-1,-5.149590373E-1
1.711482619E2,-2.301433086E-1,4.856374860E-1,6.997455955E-1
1.716522840E2,-9.285144508E-2,-1.736383140E-1,-8.604030609E-1
1.721563058E2,-1.307250559E-1,1.572976857E-1,1.038012028E0
1.726603273E2,1.240055487E-1,-1.287397593E-1,-7.249437571E-1
1.731643486E2,7.880155742E-2,-5.931497216E-1,5.436696410E-1
1.736683695E2,-9.575305134E-2,4.202749729E-1,-3.521635532E-1
1.741723903E2,6.200277433E-2,-3.048215210E-1,1.237001177E-2
1.746764108E2,-5.068650246E-1,2.835939825E-1,-1.889099330E-1
1.751804310E2,1.922696829E-1,-3.072649837E-1,2.383899838E-1
1.756844510E2,-1.007926930E-2,2.032652497E-1,4.628827870E-1
1.761884706E2,1.867718995E-1,-2.281579971E-1,-6.838631034E-1
1.766924899E2,-4.934260249E-1,2.710712552E-1,7.811433077E-1
1.771965089E2,-1.374445739E-3,-7.819069177E-2,-1.103374481E0
1.777005279E2,-1.878409274E-2,-2.047924101E-1,1.108566880E0
1.782045470E2,-6.597339362E-2,-1.105665267E-1,-9.564615488E-1
1.787085662E2,-3.665188700E-2,-1.818849891E-1,5.853611827E-1
1.792125856E2,-1.777616441E-1,3.498727977E-1,-4.738783538E-1
1.797166050E2,-2.163988501E-1,-5.398517251E-1,3.237583488E-2
1.802206245E2,-1.209512278E-1,5.051851869E-1,1.423314959E-1
1.807246440E2,-1.359174103E-1,-3.610210717E-1,-5.757400393E-1
1.812286634E2,-2.742782831E-1,2.671006322E-1,5.557342172E-1
1.817326826E2,-1.201876476E-1,1.007926911E-1,-6.646208763E-1
1.822367018E2,1.082757786E-1,-5.849030241E-2,8.629992008E-1
1.827407207E2,-3.882045746E-1,4.718930274E-2,-7.055488229E-1
1.832447395E2,2.947422564E-1,-2.119700760E-1,7.768672705E-1
1.837487578E2,-1.010981202E-1,5.345066637E-2,-6.572905183E-1
1.842527758E2,9.468404204E-2,-5.566505194E-1,3.802633286E-1
1.847567933E2,-1.020144150E-1,7.730493546E-1,-6.307178736E-2
1.852608105E2,-1.963930279E-1,-5.531380773E-1,-1.209512278E-1
1.857648272E2,-1.794415265E-1,6.003273726E-1,-7.742711157E-2
1.862688437E2,-2.703076601E-2,-4.140135944E-1,-5.833758786E-2
1.867728600E2,-2.331976295E-1,3.703367710E-1,1.962403059E-1
1.872768758E2,-1.996000707E-1,-2.996291816E-1,-3.440696001E-1
1.877808914E2,1.542433500E-1,-5.726857483E-2,7.506000996E-1
1.882849066E2,-2.318231910E-1,-3.436114267E-2,-6.748528481E-1
1.887889217E2,1.296560466E-1,4.306596518E-2,7.518218160E-1
1.892929367E2,8.536835015E-2,-3.579667509E-1,-7.544180155E-1
1.897969515E2,-2.641990185E-1,3.817904973E-3,8.659008145E-2
1.903009661E2,1.760817766E-1,3.646862805E-1,1.739437431E-1
1.908049803E2,-1.919642538E-1,-2.889390290E-1,-2.402225733E-1
1.913089942E2,-2.758054435E-1,1.353065521E-1,1.679878086E-1
1.918130077E2,2.318231910E-1,-1.084284950E-2,-2.530507445E-1
1.923170210E2,-5.401571989E-1,4.355465770E-1,8.338304609E-2
1.928210340E2,-1.997527778E-1,-2.872591615E-1,-2.707658112E-1
1.933250467E2,6.673697382E-2,-5.497782957E-3,7.822123766E-1
1.938290593E2,-1.707367003E-1,2.069304436E-1,-8.393282294E-1
1.943330718E2,-5.222893879E-2,-1.472184062E-1,8.793398738E-1
1.948370841E2,-5.665770918E-2,1.892153621E-1,-7.009673119E-1
1.953410962E2,-1.485928595E-1,-3.378082216E-1,3.335321844E-1
1.958451080E2,3.701840639E-1,6.459894776E-2,-8.578068614E-1
1.963491194E2,-3.191768378E-2,-1.736383140E-1,7.312051654E-1
1.968531306E2,-3.709476292E-1,2.420551628E-1,3.970621154E-3
1.973571414E2,3.066541255E-1,-4.331031144E-1,-5.206094980E-1
1.978611520E2,-2.580903769E-1,4.601338804E-1,6.432406306E-1
1.983651626E2,-2.364046723E-1,-1.679878086E-1,-8.037453294E-1
1.988691732E2,2.055560052E-1,-7.559451461E-2,1.044578791E0
1.993731835E2,-2.626718581E-1,-2.641990222E-2,-8.222240210E-1
1.998771938E2,6.062832847E-2,-2.548833191E-1,4.973966479E-1
2.003812037E2,1.543960720E-1,3.868301213E-1,-2.745837271E-1
2.008852134E2,-1.811214089E-1,-3.995055556E-1,-1.896735132E-1
2.013892227E2,-2.328922004E-1,2.228129357E-1,1.023198515E-1
2.018932319E2,-3.756818548E-2,-5.073232055E-1,-2.547306120E-1
2.023972408E2,-4.763218164E-1,3.862192631E-1,3.883572817E-1
2.029012499E2,1.832594350E-2,-3.072649837E-1,-6.849321127E-1
2.034052592E2,4.810560122E-2,8.704823442E-3,1.128725410E0
2.039092690E2,-4.036289155E-1,-9.896009415E-2,-1.174998403E0
2.044132795E2,2.974911332E-1,-3.394880891E-1,9.590576887E-1
2.049172903E2,-1.240055487E-1,-7.483093441E-2,-6.973021626E-1
2.054213011E2,1.073594838E-1,-3.921751976E-1,4.495964646E-1
2.059253121E2,-3.145953640E-2,4.323395491E-1,-1.426369250E-1
2.064293235E2,-2.104429156E-1,-8.964440972E-2,-5.311469436E-1
2.069333353E2,4.216494262E-1,-2.240346521E-1,3.375027776E-1
2.074373474E2,-4.282162189E-1,-4.676169753E-1,6.294961572E-1
2.079413599E2,-3.075704277E-1,8.587231636E-1,-2.336557768E-2
2.084453728E2,-3.446804583E-1,-7.330377400E-2,-1.019380569E0
2.089493862E2,2.290742993E-1,1.249218509E-1,1.443015337E0
2.094534002E2,-4.291325212E-1,-2.655734718E-1,-1.167667985E0
2.099574149E2,4.566214234E-2,-1.221729559E-3,6.197223067E-1
2.104614303E2,2.205221802E-1,1.980729103E-1,-1.623373181E-1
2.109654466E2,-3.515526950E-1,3.390299529E-2,3.176496923E-2
2.114694637E2,1.006399691E-1,2.276998460E-1,1.281288862E-1
2.119734817E2,-3.817904741E-2,-3.799578846E-1,1.495091617E-1
2.124775004E2,6.933315098E-2,-2.443459071E-2,-3.932442069E-1
2.129815199E2,-7.773254067E-2,-2.561050653E-1,9.071341902E-2
2.134855399E2,-1.104138121E-1,3.796524704E-1,8.567378670E-2
2.139895600E2,-2.160934210E-1,1.149952933E-1,-2.014326602E-1
2.144935800E2,2.231183648E-1,1.171333194E-1,7.707586288E-1
2.149976000E2,-3.507890999E-1,-5.115992576E-2,-7.527381182E-1
2.155016199E2,2.397644222E-1,-3.170388341E-1,6.704241037E-1
2.160056400E2,-6.948586553E-2,9.193515033E-2,-5.864301920E-1
2.165096599E2,-1.496618688E-1,-3.452913165E-1,2.058614343E-1
2.170136801E2,8.475748450E-2,2.273944169E-1,-1.606574357E-1
2.175177007E2,-3.145953715E-1,-3.637699783E-1,-6.246092543E-2
2.180217218E2,1.594357044E-1,5.933024287E-1,-1.160643063E-2
2.185257436E2,-1.744018942E-1,-2.199113220E-1,-2.959639728E-1
2.190297660E2,-6.308705807E-1,5.627591610E-1,4.005745649E-1
2.195337892E2,8.643736690E-2,-4.920515716E-1,-5.616901517E-1
2.200378131E2,-6.826414168E-2,9.850194305E-2,9.245438576E-1
2.205418374E2,-2.548833191E-1,2.382372618E-1,-9.601266980E-1
2.210458619E2,6.322450191E-2,-2.809978127E-1,1.000138402E0
2.215498864E2,-3.692677617E-1,-2.275471389E-2,-1.014493704E0
2.220539110E2,2.458730787E-1,-6.293434501E-1,4.886918366E-1
2.225579356E2,2.318231910E-1,1.640172005E-1,-1.325576603E-1
2.230619600E2,-1.710421443E-1,-2.435823381E-1,-2.153298408E-1
2.235659844E2,-1.035415828E-1,2.909243405E-1,2.926042378E-1
2.240700089E2,-2.029598206E-1,-4.098902643E-1,-4.830413163E-1
2.245740333E2,-1.957821548E-1,2.260199636E-1,4.017963111E-1
2.250780575E2,-2.412915789E-2,-4.795288444E-1,-6.495019794E-1
2.255820814E2,-3.478874862E-1,3.257436454E-1,7.492256761E-1
2.260861048E2,1.374445762E-2,-1.785252392E-1,-6.123919487E-1
2.265901276E2,3.802633286E-2,3.619373962E-2,8.063415289E-1
2.270941502E2,-5.907062292E-1,-9.315688163E-3,-7.968730927E-1
2.275981728E2,5.187768936E-1,-2.107483447E-1,1.055574298E0
2.281021956E2,-3.555232882E-1,1.350011230E-1,-7.376192212E-1
2.286062185E2,4.034761786E-1,-4.896081090E-1,4.767799675E-1
2.291102412E2,-6.001746282E-2,2.252563834E-1,-4.864010811E-1
2.296142637E2,-4.228711426E-1,-1.789833754E-1,2.583957911E-1
2.301182858E2,1.863137633E-1,5.088503361E-1,7.880155742E-2
2.306223075E2,-4.014908671E-1,-4.969384968E-1,-5.383245945E-1
2.311263289E2,-3.084867075E-2,4.411970973E-1,4.807505906E-1
2.316303504E2,-2.057087123E-1,-1.989891976E-1,-9.497420192E-1
2.321343719E2,-1.308777779E-1,3.405570984E-2,1.030987024E0
2.326383934E2,-3.836230934E-1,5.161807314E-2,-1.060613990E0
2.331424147E2,-1.350011230E-1,7.544180006E-2,1.271056890E0
2.336464356E2,-4.143190384E-1,-9.987638891E-2,-1.048091292E0
2.341504560E2,2.342666388E-1,-1.973093301E-1,1.131779671E0
2.346544762E2,-5.111411214E-1,2.214384824E-1,-8.335250020E-1
2.351584963E2,2.513708472E-1,-3.089448512E-1,6.197223067E-1
2.356625163E2,1.757763475E-1,4.627300799E-1,-2.770271897E-1
2.361665358E2,-1.514944583E-1,-5.998691916E-1,3.527744114E-2
2.366705550E2,3.405570984E-2,-6.108647678E-3,-8.857539296E-2
2.371745741E2,-1.802051067E-1,5.650499370E-3,-1.592829973E-1
2.376785930E2,-3.443750143E-1,4.260781705E-1,1.203403622E-1
2.381826119E2,1.747073233E-1,-5.242747068E-1,-2.182314396E-1
2.386866311E2,-3.095557392E-1,3.889681399E-1,4.709767401E-1
2.391906503E2,-1.084285006E-1,1.528689116E-1,-6.191114783E-1
2.396946694E2,-9.712749720E-2,-2.784016132E-1,6.898190379E-1
2.401986882E2,-1.716530025E-1,-4.978547990E-2,-7.728966475E-1
2.407027066E2,1.423314959E-1,1.146898642E-1,6.606502533E-1
2.412067246E2,-3.460549116E-1,-3.069595434E-2,-5.204567909E-1
2.417107424E2,2.889390290E-1,-3.825540543E-1,3.623955250E-1
2.422147594E2,2.109010667E-1,1.768453568E-1,-5.861247778E-1
2.427187757E2,-1.618791670E-1,-1.226311028E-1,2.889390290E-1
2.432227914E2,2.611446939E-2,1.783725172E-1,-1.377500147E-1
2.437268067E2,-1.215620935E-1,-2.399171442E-1,-8.093958721E-3
2.442308216E2,-2.336557768E-2,3.665188700E-2,1.682932526E-1
2.447348362E2,2.840521187E-2,-5.696314201E-2,-2.157879770E-1
2.452388505E2,-3.779725730E-1,2.680169344E-1,4.642572403E-1
2.457428645E2,-2.189950198E-1,1.829539984E-1,-6.470585465E-1
2.462468779E2,1.724165827E-1,-1.805105358E-1,7.119628787E-1
2.467508908E2,-2.503018379E-1,1.252272818E-2,-7.130318880E-1
2.472549033E2,8.139773458E-2,-2.189950198E-1,7.342594862E-1
2.477589156E2,1.264490038E-1,2.110537887E-1,-4.993819594E-1
2.482629275E2,-3.449858725E-1,-2.736674249E-1,1.482874304E-1
2.487669390E2,8.200860023E-2,5.407680273E-1,2.455676347E-1
2.492709501E2,-1.209512278E-1,-3.042106628E-1,-6.229293346E-1
2.497749607E2,-2.596175298E-3,-1.067486182E-1,6.388118267E-1
2.502789710E2,9.514218569E-2,-1.434005052E-1,-6.928733587E-1
2.507829808E2,-3.717112243E-1,2.703076601E-1,6.447677612E-1
2.512869904E2,-2.936732471E-1,8.933897316E-2,-8.242093325E-1
2.517909996E2,2.527453005E-1,-2.623664141E-1,1.068097115E0
2.522950085E2,-4.176788032E-1,1.430950761E-1,-9.567669630E-1
2.527990172E2,8.063415438E-2,-3.173442483E-1,7.611374855E-1
2.533030257E2,1.276707351E-1,2.681696415E-1,-5.809323788E-1
2.538070340E2,-3.159697950E-1,-5.786416531E-1,2.467893660E-1
2.543110421E2,2.400698513E-1,5.629118681E-1,-8.124501258E-2
2.548150498E2,-3.086394370E-1,-5.624537468E-1,-4.260781705E-1
2.553190573E2,1.527161989E-2,3.958403766E-1,-2.551887631E-1
2.558230644E2,-2.275471240E-1,-2.003636509E-1,2.252563834E-1
2.563270716E2,-1.398880333E-1,-5.619955808E-2,5.248855352E-1
2.568310790E2,-1.722638607E-1,-8.261945844E-2,-6.479747891E-1
2.573350866E2,8.368847519E-2,1.583666950E-1,8.691078424E-1
2.578390942E2,-3.894262910E-1,-2.741255760E-1,-1.012661099E0
2.583431016E2,3.329212964E-1,6.566796452E-3,1.030223489E0
2.588471089E2,-1.259908676E-1,-5.129737258E-1,-6.962331533E-1
2.593511161E2,1.330158114E-1,3.665188793E-3,2.583957911E-1
2.598551232E2,-8.384118974E-2,4.062250853E-1,8.323032409E-2
2.603591303E2,-1.394298822E-1,-4.109592736E-1,-3.367392123E-1
2.608631372E2,-2.654207349E-1,4.586067200E-1,3.126100600E-1
2.613671437E2,4.352411628E-2,-4.686860144E-1,-6.724094152E-1
2.618711499E2,-3.640754223E-1,3.749182522E-1,7.142536640E-1
2.623751557E2,-6.490438432E-2,-3.889681399E-1,-7.000510097E-1
2.628791613E2,-1.980729103E-1,1.901316643E-1,9.917389750E-1
2.633831665E2,-2.577849329E-1,-9.117157012E-2,-1.304654479E0
2.638871715E2,-1.401934624E-1,-1.000291109E-1,1.140331864E0
2.643911763E2,-3.039052337E-2,-1.809686869E-1,-8.724676371E-1
2.648951809E2,5.742128938E-2,-3.378082216E-1,7.177661061E-1
2.653991854E2,3.451386094E-2,3.109301627E-1,-2.918406427E-1
2.659031899E2,-1.226311028E-1,-4.425715208E-1,-2.916879393E-2
2.664071942E2,1.705839932E-1,2.199113220E-1,-5.054906011E-2
2.669111986E2,-1.757763475E-1,-3.042106628E-1,2.110537887E-1
2.674152032E2,-3.935496211E-1,3.281871080E-1,-4.555523992E-1
2.679192081E2,3.252854943E-2,-1.789833754E-1,-3.222311735E-1
2.684232128E2,9.101885557E-2,-1.348484010E-1,9.476040006E-1
2.689272174E2,-3.549124300E-1,1.844811589E-1,-3.958403766E-1
2.694312223E2,-1.747073233E-1,7.315105945E-2,6.705768108E-1
2.699352273E2,-2.275471389E-2,-3.107774556E-1,-7.052434087E-1
2.704392324E2,2.672533318E-2,6.261364091E-3,6.188060045E-1
2.709432378E2,2.921460867E-1,-2.640463114E-1,-1.137430191E0
2.714472434E2,-2.480110973E-1,-1.200349256E-1,1.791360974E-1
2.719512490E2,1.982256174E-1,0.000000000E0,-4.639517963E-1
2.724552544E2,4.520399496E-2,-5.377137065E-1,2.629773021E-1
2.729592594E2,-1.414151937E-1,4.103484154E-1,-1.464548260E-1
2.734632638E2,6.041452885E-1,-4.043924809E-1,-2.105956376E-1
2.739672678E2,-5.638281703E-1,2.533561587E-1,-1.290451884E-1
2.744712716E2,-5.792525411E-1,2.128863782E-1,8.999565244E-1
2.749752751E2,3.023780584E-1,-6.771436334E-1,-1.160643063E-2
2.754792784E2,2.275471389E-2,-5.410735011E-1,-9.257655740E-1
2.759832812E2,5.610793233E-1,-5.514581800E-1,6.652317643E-1
2.764872838E2,1.928805560E-1,-1.111773923E-1,-1.238528341E-1
2.769912861E2,-7.880155742E-2,-2.605338395E-1,-3.914116025E-1
2.774952881E2,9.392046183E-2,2.183841616E-1,6.307178736E-1
2.779992897E2,-9.162971377E-2,-4.586067200E-1,-4.665479660E-1
2.785032910E2,-2.423606068E-1,4.033234715E-1,4.274526238E-1
2.790072919E2,-2.299905866E-1,-4.515817761E-1,-2.270889878E-1
2.795112924E2,1.550069451E-1,5.981893539E-1,2.470948100E-1
2.800152926E2,2.328922004E-1,-1.774562150E-1,-2.748891413E-1
2.805192926E2,1.908952445E-1,-1.348484010E-1,2.399171442E-1
2.810232924E2,3.512472380E-3,-1.087339297E-1,-6.322450191E-2
2.815272917E2,-3.008508980E-1,-1.658497900E-1,-1.079703495E-1
2.820312910E2,1.437059343E-1,4.036289155E-1,-1.492037177E-1
2.825352903E2,-3.923279047E-1,-1.058323234E-1,-3.880518377E-1
2.830392896E2,-6.123919412E-2,4.932733178E-1,5.900954008E-1
2.835432888E2,4.657844082E-2,-2.916879356E-1,-5.540543795E-1
2.840472878E2,-2.431241870E-1,6.368265301E-2,3.289506733E-1
2.845512866E2,-3.116937578E-1,1.163697392E-1,-6.687442064E-1
2.850552850E2,1.078176349E-1,-2.700022459E-1,9.702059627E-1
2.855592833E2,-3.286452591E-1,1.603520103E-2,-8.724676371E-1
2.860632815E2,2.231183648E-1,-1.223256737E-1,1.060308576E0
2.865672793E2,-2.031125315E-2,1.220202371E-1,-8.894191384E-1
2.870712768E2,-3.649916872E-2,-1.988364905E-1,4.810560048E-1
2.875752740E2,9.850194305E-2,1.646280587E-1,-3.520108163E-1
2.880792708E2,-3.320049942E-1,-9.392046183E-2,-8.796452731E-2
2.885832676E2,7.360920310E-2,2.843575478E-1,2.903134823E-1
2.890872644E2,-2.652680278E-1,-3.639226854E-1,-8.877392411E-1
2.895912616E2,-4.405862093E-1,6.559160352E-1,9.914335608E-1
2.900952593E2,1.423314959E-1,-6.073523164E-1,-1.518762589E0
2.905992576E2,-9.191987514E-1,8.083268404E-1,1.200807452E0
2.911032567E2,3.744601011E-1,-1.912006736E-1,-1.632688880E0
2.916072566E2,-1.190880895E0,4.335612655E-1,1.691484571E0
2.921112576E2,8.294016719E-1,1.466075480E-1,-1.950491190E0
2.926152597E2,-1.203098178E0,-4.531089365E-1,1.646586061E0
2.931192627E2,5.409207344E-1,-3.364337683E-1,-1.997222424E0
2.936232663E2,-9.995275140E-1,1.424842030E-1,1.250592947E0
2.941272703E2,7.330377586E-3,2.616028488E-1,-7.573196292E-1
2.946312745E2,-3.145953640E-2,-1.114828214E-1,8.023709059E-1
2.951352792E2,-1.383608729E-1,1.110246703E-1,-8.281798959E-1
2.956392841E2,-1.884517819E-1,-1.374445739E-3,2.423606068E-1
2.961432891E2,1.015562713E-1,2.102901936E-1,3.207040019E-3
2.966472942E2,-4.851793647E-1,-2.710712552E-1,-3.246746361E-1
2.971512994E2,-5.726857483E-2,4.905244112E-1,4.468475878E-1
2.976553046E2,-4.694495797E-1,-3.130682111E-1,-7.735075355E-1
2.981593097E2,-4.480693042E-1,4.207331240E-1,7.092140317E-1
2.986633149E2,2.122755162E-2,-8.179479241E-1,-6.881392002E-1
2.991673198E2,-2.646571696E-1,2.994764447E-1,-4.621191919E-1
2.996713246E2,-9.682206810E-2,-1.423314959E-1,8.791871071E-1
3.001753290E2,-4.474584386E-2,4.042397738E-1,-3.648389876E-1
3.006793331E2,-5.777253509E-1,1.024725661E-1,6.705768108E-1
3.011833370E2,3.397935331E-1,1.386663020E-1,-1.373071313E0
3.016873405E2,-7.260127664E-1,1.415679157E-1,1.315649986E0
3.021913437E2,1.777616441E-1,-3.124573231E-1,-1.108261466E0
3.026953465E2,-6.261363626E-2,2.006690800E-1,4.561632872E-1
3.031993488E2,4.108065739E-2,1.010981202E-1,2.599229515E-1
3.037033507E2,2.429714650E-1,-5.787943602E-1,-1.459966749E-1
3.042073521E2,3.678933084E-1,-3.634645343E-1,1.640172005E-1
3.047113532E2,-3.139844835E-1,8.475748450E-2,-2.977965772E-2
3.052153540E2,1.797469556E-1,-9.514218569E-2,-5.329795182E-2
3.057193544E2,1.466075517E-2,5.406153202E-2,6.322450191E-2
3.062233544E2,-2.428187430E-2,7.299833745E-2,-6.414080039E-3
3.067273540E2,-1.682932526E-1,2.474002354E-2,1.934914142E-1
3.072313533E2,-2.238819450E-1,6.615665555E-1,-1.760817766E-1
3.077353524E2,-3.527744114E-2,-1.571449637E-1,-5.451968312E-2
3.082393511E2,-3.668242991E-1,5.470294356E-1,1.780670881E-1
3.087433497E2,4.431824088E-1,-4.642572403E-1,-8.261946440E-1
3.092473483E2,-7.941241860E-1,3.136790693E-1,1.032514215E0
3.097513466E2,1.809686869E-1,-5.390881747E-2,-1.224325776E0
3.102553449E2,-8.506292105E-2,-3.807214797E-1,1.286023021E0
3.107593433E2,2.703076601E-2,3.878991306E-2,-1.144913316E0
3.112633417E2,-3.391826749E-1,-5.181660652E-1,9.321796298E-1
3.117673401E2,4.986183643E-1,4.053087831E-1,-6.294961572E-1
3.122713386E2,-7.319687009E-1,-2.773326039E-1,6.904299259E-1
3.127753371E2,3.937023580E-1,1.116355360E-1,-7.782417536E-1
3.132793355E2,-5.998691916E-1,-8.078686893E-2,3.213148713E-1
3.137833336E2,-1.090393662E-1,5.913171172E-1,-1.131627038E-1
3.142873314E2,-8.109229803E-2,-8.216131479E-2,-4.353938699E-1
3.147913288E2,-1.589775532E-1,1.221729591E-1,2.842048407E-1
3.152953261E2,-3.656025827E-1,-5.690205693E-1,-6.429351568E-1
3.157993236E2,2.703076601E-2,6.890554428E-1,5.719221234E-1
3.163033211E2,-1.014035568E-1,-5.849030018E-1,-5.803215504E-1
3.168073185E2,-3.801106215E-1,6.852375865E-1,3.535379767E-1
3.173113156E2,3.329212964E-2,-7.980948091E-1,-7.596103549E-1
3.178153124E2,-6.841685623E-2,-1.082757786E-1,1.138346553E0
3.183193088E2,-1.343902498E-1,2.490801066E-1,-1.341153622E0
3.188233049E2,-6.490437984E-1,-2.170097083E-1,1.671326041E0
3.193273007E2,-1.747073233E-1,-5.421425030E-2,-1.501658320E0
3.198312963E2,6.658425927E-2,-3.309359848E-1,1.212872028E0
3.203352914E2,-2.304487377E-1,-2.655734718E-1,-1.096655011E0
3.208392862E2,2.680169344E-1,-2.547306120E-1,7.223476171E-1
3.213432808E2,-5.711585656E-2,-2.886336111E-2,-3.920224607E-1
3.218472751E2,4.825831652E-1,-8.257364631E-1,4.172206521E-1
3.223512693E2,-1.960875988E-1,6.371319890E-1,-4.809032977E-1
3.228552632E2,-1.849393100E-1,1.550069451E-1,-3.714057803E-1
3.233592568E2,-2.603811026E-1,3.119991720E-1,6.533198953E-1
3.238632501E2,5.100720748E-2,-3.552178741E-1,-9.972367287E-1
3.243672432E2,-3.092502952E-1,5.145008564E-1,9.320269227E-1
3.248712359E2,-1.798996776E-1,-5.090031028E-1,-8.075632453E-1
3.253752287E2,-7.457131743E-1,4.981602132E-1,8.263473511E-1
3.258792215E2,5.584831238E-1,-2.580903769E-1,-2.773326039E-1
3.263832143E2,-3.298669755E-1,-1.617264450E-1,-8.176425099E-1
3.268872072E2,-4.308123887E-1,3.778198659E-1,1.169653296E0
3.273912000E2,8.170316368E-2,-3.266599476E-1,-7.922916412E-1
3.278951928E2,3.558287397E-2,5.314523727E-2,7.272345424E-1
3.283991856E2,1.047633067E-1,-6.520981342E-2,-4.182896614E-1
3.289031785E2,-7.269290835E-2,-9.162971750E-3,2.335030586E-1
3.294071712E2,2.057087123E-1,-3.981311321E-1,-1.736383140E-1
3.299111638E2,-5.513054505E-2,2.467893660E-1,6.414080411E-2
3.304151562E2,-1.302669197E-1,5.039634556E-2,2.031125426E-1
3.309191485E2,-5.253437161E-2,-3.404043913E-1,4.841103405E-2
3.314231405E2,-3.329212964E-2,3.422369957E-1,-2.588539422E-1
3.319271322E2,7.422006875E-2,-4.146244824E-1,-3.591884971E-1
3.324311238E2,-4.237874448E-1,3.834703565E-1,6.259836555E-1
3.329351151E2,-1.221729559E-3,-8.170316368E-2,-1.066111803E0
3.334391063E2,-6.902772188E-2,6.811141968E-2,1.097418547E0
3.339430973E2,-2.631300092E-1,2.774853408E-1,-8.555161357E-1
3.344470886E2,1.313359290E-1,-4.735729098E-1,7.400626540E-1
3.349510801E2,8.429934084E-2,9.101885557E-2,-6.963858604E-1
3.354550718E2,-3.104720116E-1,-2.716821134E-1,4.653262496E-1
3.359590634E2,-4.251618981E-1,3.767508566E-1,-2.215912044E-1
3.364630547E2,4.276053309E-1,-6.046034098E-1,-7.426588535E-1
3.369670459E2,9.483675659E-2,-4.618137777E-1,8.277217746E-1
3.374710371E2,5.233584046E-1,-3.579667509E-1,-4.092794061E-1
3.379750283E2,-5.131264031E-2,-3.735437989E-1,-2.087630332E-1
3.384790193E2,-1.797469556E-1,2.049451321E-1,6.423243284E-1
3.389830101E2,-3.019199073E-1,1.505781710E-1,-9.866993427E-1
3.394870007E2,-8.826996386E-2,-5.161807314E-2,1.426980138E0
3.399909910E2,2.063195854E-1,-2.440404743E-1,-9.541707635E-1
3.404949812E2,-8.704823256E-2,-9.952514172E-1,1.962403059E-1
3.409989712E2,7.849612087E-2,-1.838703007E-1,-3.405571282E-1
3.415029611E2,-1.985310465E-1,5.627591610E-1,1.028085470E0
3.420069507E2,-3.862192631E-1,2.871064544E-1,-7.793107629E-1
3.425109400E2,4.444041103E-2,-3.628536761E-1,-2.698495090E-1
3.430149292E2,1.649334840E-2,6.688969582E-2,7.721330523E-1
3.435189181E2,-1.006399691E-1,-1.440113783E-1,-7.919861674E-1
3.440229067E2,-1.073594838E-1,-3.121519089E-1,5.002982616E-1
3.445268951E2,5.367974043E-1,1.679878123E-2,-2.145662606E-1
3.450308833E2,-6.801979542E-1,1.766926348E-1,-1.832594275E-1
3.455348712E2,1.058323234E-1,4.653262496E-1,5.177079141E-2
3.460388590E2,8.216131479E-2,-4.978547990E-1,-5.652026534E-1
3.465428467E2,-8.869756460E-1,3.796524704E-1,7.800742984E-1
3.470468342E2,4.657844007E-1,-4.844157696E-1,-1.184619546E0
3.475508213E2,-3.364337683E-1,-2.347247899E-1,1.529299974E0
3.480548083E2,9.911280870E-2,3.436114267E-2,-1.685375929E0
3.485587951E2,2.932151034E-2,-2.868010104E-1,1.495244265E0
3.490627816E2,-5.436696485E-2,2.153298259E-2,-9.676098228E-1
3.495667678E2,1.401934624E-1,-2.322813272E-1,3.773617148E-1
3.500707537E2,3.695731983E-2,2.641990222E-2,-9.560033679E-2
3.505747395E2,-1.679878123E-2,-8.888082206E-2,-6.594285369E-1
3.510787253E2,-3.321577311E-1,6.230820715E-2,6.194168925E-1
3.515827111E2,-1.710421443E-1,-7.712167501E-2,-4.995346665E-1
3.520866970E2,1.588248461E-2,-2.474002354E-2,7.031053901E-1
3.525906826E2,-6.669116020E-1,2.364046723E-1,-1.149647474E0
3.530946681E2,2.994764447E-1,-4.596757591E-1,1.194851518E0
3.535986535E2,1.400407553E-1,-5.054906011E-2,-6.394227147E-1
3.541026386E2,-7.330377400E-2,-3.248273432E-1,6.459894776E-2
3.546066234E2,-1.357647032E-1,3.130682111E-1,2.837466896E-1
3.551106082E2,-3.449858725E-1,1.032361463E-1,-1.031750560E0
3.556145928E2,-3.608683646E-1,2.655734718E-1,5.858193040E-1
3.561185774E2,2.553414702E-1,-6.261364091E-3,-7.867938280E-1
3.566225617E2,-7.422006875E-2,-7.944296598E-1,9.217949510E-1
3.571265460E2,1.595884264E-1,1.450803876E-1,-3.207040131E-1
3.576305304E2,-2.700022459E-1,4.428769648E-2,-2.677114904E-1
3.581345147E2,1.114828233E-2,1.762344837E-1,4.922043085E-1
3.586384988E2,-1.397353113E-1,-6.421716213E-1,-6.986765862E-1
3.591424828E2,-5.267181396E-1,4.555523992E-1,8.912517428E-1
3.596464667E2,2.470948100E-1,1.069013327E-1,-7.773254514E-1
3.601504507E2,-2.293797284E-1,-2.069304436E-1,1.254716277E0
3.606544349E2,-4.468475878E-1,-4.199695215E-2,-9.292780161E-1
3.611584193E2,2.503018379E-1,2.188423127E-1,6.146826744E-1
3.616624038E2,-1.064431891E-1,1.212566569E-1,1.021671370E-1
3.621663884E2,3.315468729E-1,-1.025641918E0,-1.052214622E0
3.626703729E2,-4.382954910E-2,-2.901607659E-3,5.991056561E-1
3.631743574E2,-1.052214578E-1,-3.321577311E-1,-3.098611534E-1
3.636783415E2,-2.255618125E-1,7.053961158E-1,-9.682206810E-2
3.641823253E2,-2.600756884E-1,-7.269290835E-2,-4.179842174E-1
3.646863088E2,-1.876882017E-1,3.037525117E-1,7.449495792E-1
3.651902919E2,-1.556178033E-1,-3.526217043E-1,-5.867356062E-1
3.656942750E2,2.587012351E-1,-2.382372692E-2,1.165529966E0
3.661982585E2,-2.732092738E-1,7.330377400E-2,-1.212719321E0
3.667022422E2,-1.527161896E-1,-3.645335436E-1,8.397863507E-1
3.672062262E2,2.961167097E-1,1.928805560E-1,-6.618719697E-1
3.677102103E2,-3.202458620E-1,-3.897317350E-1,3.266599476E-1
3.682141943E2,2.809977904E-2,4.329504073E-1,1.333212405E-1
3.687181785E2,-2.414443046E-1,-5.623010397E-1,-3.006981909E-1
3.692221627E2,-6.287325621E-1,1.437364817E0,8.216131479E-2
3.697261470E2,4.651735425E-1,-8.130609989E-1,-1.052520037E0
3.702301311E2,-7.941242307E-3,-1.177441850E-1,1.329852581E0
3.707341152E2,-2.700022459E-1,4.134027362E-1,-1.462410331E0
3.712381000E2,-1.397353113E-1,-9.789107740E-2,1.569769740E0
3.717420842E2,-2.176205814E-1,6.780599058E-2,-1.576947451E0
3.722460693E2,1.420260668E-1,-3.207040019E-3,1.163239241E0
3.727500547E2,1.875354946E-1,-2.991710305E-1,-9.228639603E-1
3.732540402E2,-5.810851455E-1,1.780670881E-1,1.742491722E-1
3.737580259E2,1.240055487E-1,3.714057803E-1,-3.793470263E-1
3.742620118E2,-5.783362389E-1,-1.339320987E-1,3.695731983E-2
3.747659980E2,1.401934624E-1,2.965748608E-1,1.385135949E-1
3.752699844E2,-3.582721949E-1,6.200277433E-2,-2.478583902E-1
3.757739710E2,-3.443750143E-1,4.033234715E-1,6.479747891E-1
3.762779577E2,-1.519526094E-1,-9.285144508E-2,-3.546070158E-1
3.767819447E2,1.175914705E-2,3.509418070E-1,7.625119686E-1
3.772859315E2,-3.095557392E-1,2.472475171E-1,-8.440623879E-1
3.777899182E2,3.717112243E-1,-2.825249732E-1,4.767799675E-1
3.782939049E2,4.372264743E-1,-2.092211880E-2,1.226311028E-1
3.787978916E2,-6.247619390E-1,-1.554650813E-1,-2.657261789E-1
3.793018786E2,1.824958473E-1,4.642572403E-1,1.953240186E-1
3.798058658E2,-1.035415828E-1,-4.915934205E-1,-3.889681399E-1
3.803098531E2,-1.666133702E-1,6.302597523E-1,-1.832594397E-3
3.808138402E2,-2.852738500E-1,-4.245510101E-1,1.221729559E-3
3.813178272E2,-1.417206228E-1,2.930623889E-1,3.779725730E-1
3.818218142E2,1.472184062E-1,-2.922987938E-1,-2.732092738E-1
3.823258015E2,3.118464649E-1,-4.398226365E-2,2.275471240E-1
3.828297889E2,-2.083048970E-1,-2.809977904E-2,-4.879282415E-1
3.833337764E2,9.025526792E-2,-4.399753511E-1,-2.477056682E-1
3.838377639E2,7.544180006E-2,1.679878100E-3,2.095266134E-1
3.843417515E2,-2.163988501E-1,1.672242284E-1,-2.671006322E-1
3.848457389E2,-2.932150960E-1,2.938259542E-1,4.163043499E-1
3.853497262E2,-5.894844979E-2,-2.689332068E-1,-1.145371422E-2
3.858537131E2,-1.449276656E-1,-1.145371422E-2,5.192350596E-2
3.863576999E2,2.758054435E-1,-1.620318890E-1,4.450149834E-1
3.868616867E2,-3.000873327E-1,4.949531853E-1,-3.607156575E-1
3.873656735E2,3.462076187E-1,-2.663370371E-1,-3.538434207E-1
3.878696600E2,-2.422078848E-1,9.330959618E-2,8.006910086E-1
3.883736463E2,-5.085449293E-2,-6.349939108E-1,-4.882336855E-1
3.888776323E2,5.879573524E-2,3.878991306E-2,5.400044918E-1
3.893816178E2,2.302960157E-1,3.298669681E-2,-5.894845128E-1
3.898856031E2,-3.257436454E-1,-2.466366589E-1,3.756818473E-1
3.903895882E2,2.779434808E-2,3.616319597E-1,-9.117157012E-2
3.908935733E2,-1.916588247E-1,-5.409207344E-1,-2.162461281E-1
3.913975585E2,-5.044215918E-1,6.727148294E-1,4.245510325E-2
3.919015436E2,1.363755614E-1,-7.783944607E-1,-1.970038861E-1
3.924055287E2,-2.903134823E-1,5.477929711E-1,4.474584460E-1
3.929095134E2,-1.035415828E-1,-2.649625838E-1,-4.547888339E-1
3.934134980E2,5.299251899E-2,1.354592592E-1,8.443678617E-1
3.939174825E2,-4.473057389E-1,-1.725693047E-2,-9.524909258E-1
3.944214668E2,1.811214089E-1,-2.906189263E-1,1.020907760E0
3.949254511E2,-1.514944583E-1,-9.926552325E-2,-8.724676371E-1
3.954294351E2,9.040798992E-2,-1.172860414E-1,6.525563002E-1
3.959334193E2,3.972148299E-1,1.301141977E-1,-6.676751971E-1
3.964374036E2,-3.017672002E-1,-3.958403766E-1,7.559451461E-2
3.969413880E2,-1.226311028E-1,2.822195292E-1,-8.842267841E-2
3.974453724E2,-1.166751757E-1,-3.549124300E-1,-3.066541255E-1
3.979493565E2,-3.886627257E-1,2.325867712E-1,2.419024557E-1
3.984533405E2,-4.444041103E-2,-4.471530318E-1,-3.207040131E-1
3.989573246E2,-1.966984570E-1,-5.513054505E-2,8.055779338E-1
3.994613086E2,-3.764454126E-1,-1.099556591E-2,-6.829468012E-1
3.999652928E2,3.310887218E-1,-1.896735132E-1,9.329432249E-1
4.004692768E2,2.368628234E-1,2.510654330E-1,-5.464185476E-1
4.009732609E2,3.039052337E-2,-5.971203446E-1,-9.773836471E-3
4.014772447E2,-4.932733253E-2,4.376846254E-1,-1.638644785E-1
4.019812283E2,-1.542433500E-1,-4.248564541E-1,-3.733910918E-1
4.024852118E2,-3.712530732E-1,2.903134823E-1,3.179551065E-1
4.029891951E2,-1.253799945E-1,-1.956294477E-1,-4.943423271E-1
4.034931780E2,-1.812741160E-1,4.793761373E-1,2.532034516E-1
4.039971606E2,-7.635809947E-3,-3.414734006E-1,-4.056142271E-1
4.045011431E2,-1.621845961E-1,-2.047924101E-1,1.207374215E0
4.050051255E2,-3.400989771E-1,-9.834922850E-2,-6.354520917E-1
4.055091076E2,3.732383847E-1,-3.124573231E-1,6.511818767E-1
4.060130895E2,2.072358727E-1,1.307250559E-1,-4.902189970E-1
4.065170711E2,-1.276707351E-1,-7.651081085E-1,2.025016695E-1
4.070210525E2,-2.672533393E-1,2.247982323E-1,-4.059196413E-1
4.075250335E2,-2.321286127E-2,-6.948586553E-2,-3.231474757E-1
4.080290144E2,-6.562215090E-1,8.465058804E-1,2.255618125E-1
4.085329952E2,2.301433086E-1,-5.233584046E-1,-8.379537463E-1
4.090369761E2,-1.673769504E-1,2.669478953E-1,1.386663079E0
4.095409568E2,-1.207985133E-1,-4.821250141E-1,-1.366046309E0
4.100449375E2,1.322522312E-1,7.284562290E-2,1.249065757E0
4.105489179E2,-2.382372618E-1,1.175914705E-2,-9.059124589E-1
4.110528984E2,-8.216131479E-2,-9.743293375E-2,2.583957911E-1
4.115568788E2,-1.075121984E-1,5.797106624E-1,-4.882336855E-1
4.120608597E2,-4.413498193E-2,-8.796452880E-1,-2.099847645E-1
4.125648410E2,-1.870773435E-1,3.330740333E-1,3.981311321E-1
4.130688227E2,1.172860414E-1,-5.036579967E-1,-4.230238497E-1
4.135728050E2,-6.708822250E-1,3.026835024E-1,9.442442060E-1
4.140767881E2,-1.307250559E-1,-1.870773435E-1,-8.781180978E-1
4.145807717E2,-1.130099818E-1,3.477347791E-1,1.199280262E0
4.150847558E2,4.520399496E-2,3.023780696E-2,-1.637728453E0
4.155887403E2,7.070759684E-2,-5.732966065E-1,1.550069332E0
4.160927249E2,-2.092211843E-1,1.580612659E-1,-1.163850069E0
4.165967095E2,1.977674663E-1,-1.345429718E-1,9.955568910E-1
4.171006940E2,-2.796233594E-1,2.281579971E-1,-6.864593029E-1
4.176046785E2,8.704823442E-3,-4.940368831E-1,2.028071135E-1
4.181086631E2,-2.138026757E-3,4.499019086E-1,7.269290835E-2
4.186126477E2,-3.692677617E-1,-3.006981909E-1,-5.668824911E-1
4.191166322E2,9.575305134E-2,3.915643096E-1,5.071704984E-1
4.196206167E2,-6.328558922E-1,-9.498947114E-2,-7.009673119E-1
4.201246015E2,1.557705253E-1,4.679224193E-1,7.391464114E-1
4.206285867E2,-4.589121640E-1,-3.150535226E-1,-8.494074941E-1
4.211325721E2,4.005745649E-1,-3.949240744E-1,7.389936447E-1
4.216365577E2,1.119409725E-1,1.557705253E-1,-6.084213257E-1
4.221405432E2,-4.440986812E-1,-1.985310465E-1,2.134972364E-1
4.226445286E2,-1.450803876E-2,4.725039005E-1,2.443459071E-2
4.231485139E2,-1.450803876E-1,-5.783362389E-1,-5.919279456E-1
4.236524991E2,-4.376846254E-1,5.415316224E-1,6.879864335E-1
4.241564842E2,-8.170316368E-2,2.061668634E-1,-9.944878817E-1
4.246604691E2,-1.556178033E-1,-2.790125012E-1,1.372155070E0
4.251644537E2,-1.256854236E-1,-1.185077652E-1,-8.917098641E-1
4.256684384E2,6.658425927E-2,-4.848739207E-1,3.875937164E-1
4.261724229E2,2.536616027E-1,4.758636653E-1,-2.616028488E-1
4.266764073E2,-1.934914142E-1,-9.315688163E-3,-3.982838392E-1
4.271803914E2,-5.784889460E-1,7.052434087E-1,4.645626545E-1
4.276843753E2,-9.407317638E-2,2.432768941E-1,-6.681333780E-1
4.281883591E2,-1.039997265E-1,2.275471240E-1,1.149952888E0
4.286923428E2,-3.686569035E-1,-1.128572673E-1,-1.456301689E0
4.291963262E2,1.994473487E-1,-1.496618688E-1,1.276401997E0
4.297003093E2,-1.380554438E-1,7.238747925E-2,-6.113229394E-1
4.302042924E2,-3.962985277E-1,-2.145662606E-1,-2.440404743E-1
4.307082753E2,1.786779463E-1,4.859429300E-1,-6.841685623E-2
4.312122580E2,-2.209803313E-1,2.162461281E-1,-4.482220411E-1
4.317162405E2,-2.657261789E-1,2.173151523E-1,1.904370934E-1
4.322202229E2,-4.260781705E-1,1.649334878E-1,-1.788306683E-1
4.327242051E2,-7.086031139E-2,1.606574357E-1,6.388118267E-1
4.332281870E2,-3.749182522E-1,3.222311661E-2,-2.493855506E-1
4.337321687E2,4.138608873E-1,-4.326449931E-1,2.040288299E-1
4.342361501E2,3.599520624E-1,2.046397030E-1,-1.704312712E-1
4.347401313E2,-4.969384968E-1,-1.009454057E-1,-3.017672002E-1
4.352441124E2,-1.404989064E-1,2.903134823E-1,1.140789986E-1
4.357480935E2,1.214093715E-1,-2.657261789E-1,1.354592592E-1
4.362520744E2,-2.712239623E-1,-1.340848207E-1,2.049451321E-1
4.367560552E2,5.314523727E-2,-6.643154472E-2,-4.340194166E-1
4.372600357E2,1.053741761E-2,-2.134972364E-1,3.998109996E-1
4.377640157E2,2.941313982E-1,-2.034179717E-1,-1.505781710E-1
4.382679953E2,-1.435532235E-2,-7.476984859E-1,4.390590489E-1
4.387719750E2,1.501200199E-1,1.696676910E-1,-1.310304999E-1
4.392759553E2,5.390881747E-2,-4.728093445E-1,-9.346231073E-2
4.397799360E2,2.260199748E-2,1.282816082E-1,1.970038936E-2
4.402839174E2,-2.176205814E-1,-2.565632164E-1,-2.583957911E-1
4.407878992E2,1.895207912E-1,2.041815519E-1,6.695078015E-1
4.412918814E2,1.024725661E-1,-1.325576603E-1,-4.888445437E-1
4.417958637E2,-2.315177470E-1,-8.826996386E-2,8.063415438E-2
4.422998464E2,1.463021189E-1,4.485274553E-1,-1.386663020E-1
4.428038289E2,-1.795942485E-1,-5.482511222E-2,-2.441931963E-1
4.433078112E2,-3.830122054E-1,7.026472092E-1,1.882990748E-1
4.438117935E2,-5.360338464E-2,2.209803313E-1,-3.630063832E-1
4.443157757E2,-3.727802336E-1,1.968511790E-1,7.009673119E-1
4.448197579E2,6.918043643E-2,8.032871783E-2,-8.422298431E-1
4.453237399E2,-3.359756200E-3,4.581485689E-2,6.374374032E-1
4.458277217E2,1.065959036E-1,5.707004070E-1,-2.302960157E-1
4.463317032E2,-1.753181964E-1,1.488982886E-1,-2.041815519E-1
4.468356845E2,-1.182023361E-1,1.594357044E-1,2.330449075E-1
4.473396658E2,-1.441640854E-1,-1.052214578E-1,-2.510654330E-1
4.478436470E2,-3.283398226E-2,3.775144219E-1,1.157588735E-1
4.483476280E2,-2.237292230E-1,3.921751976E-1,-5.707004070E-1
4.488516087E2,-6.811141968E-2,-2.193004489E-1,7.292198539E-1
4.493555893E2,-7.192932814E-2,-9.071341902E-2,-4.977020919E-1
4.498595696E2,-6.230820715E-2,-2.939786613E-1,3.561341763E-1
4.503635498E2,2.797760665E-1,3.526217043E-1,-2.139553875E-1
4.508675298E2,-1.641699076E-1,-4.323395491E-1,-1.314886510E-1
4.513715097E2,-3.634645343E-1,1.182023361E-1,1.569922417E-1
4.518754894E2,-4.749473557E-2,4.245510325E-2,-3.284925222E-1
4.523794688E2,6.719512492E-2,-7.192932814E-2,5.994110703E-1
4.528834480E2,-2.761108875E-1,-9.773836285E-2,-5.630646348E-1
4.533874270E2,2.916879356E-1,-1.718057245E-1,2.759581506E-1
4.538914057E2,2.515235841E-1,1.122464016E-1,4.612028971E-2
4.543953844E2,-2.817613780E-1,7.437278330E-2,3.046688139E-1
4.548993631E2,1.374445762E-2,6.734784245E-1,-1.414151937E-1
4.554033419E2,-2.373209596E-1,-4.543306828E-1,-5.169443488E-1
4.559073205E2,-2.374736816E-1,-4.031707719E-2,1.275180280E-1
4.564112990E2,4.001164436E-2,-9.575305134E-2,-4.479165971E-1
4.569152772E2,-1.893680729E-2,-2.197586000E-1,5.392408967E-1
4.574192552E2,4.092794061E-1,1.551596522E-1,-2.072358727E-1
4.579232333E2,-3.382663727E-1,-2.443459183E-1,-8.399390616E-3
4.584272118E2,-1.670715213E-1,3.573558927E-1,1.863137633E-2
4.589311907E2,1.737910360E-1,-3.995055556E-1,-4.127918780E-1
4.594351700E2,-3.585776389E-1,3.387245238E-1,5.002982616E-1
4.599391496E2,3.649916872E-2,-3.798051775E-1,-6.531671882E-1
4.604431296E2,3.200931549E-1,-2.596175373E-1,7.562506199E-1
4.609471098E2,-4.127918780E-1,2.803869247E-1,-9.590576887E-1
4.614510904E2,9.130901098E-1,-1.224020243E0,7.939714789E-1
4.619550714E2,-2.596175298E-3,1.937968582E-1,-1.406516135E-1
4.624590525E2,-2.918406427E-1,-8.811724186E-2,-3.210094273E-1
4.629630336E2,-3.017672002E-1,3.316995800E-1,4.920515716E-1
4.634670148E2,1.814268380E-1,5.047270060E-1,-3.164279461E-1
4.639709958E2,-3.900371492E-1,-6.860011220E-1,4.085158110E-1
4.644749766E2,-2.202167511E-1,-1.672242284E-1,-1.066417217E0
4.649789573E2,2.779434808E-2,-1.737910360E-1,1.015868187E0
4.654829378E2,1.603520066E-1,3.228420317E-1,-8.791871071E-1
4.659869182E2,-2.244928107E-2,-1.634063274E-1,2.142608166E-1
4.664908984E2,-3.110828996E-1,-3.837758005E-1,-2.414443046E-1
4.669948785E2,4.686860144E-1,-1.079703495E-1,2.927569449E-1
4.674988589E2,-5.560396910E-1,1.798996776E-1,4.711294472E-1
4.680028392E2,1.328630932E-2,-8.109229803E-2,-1.097418547E0
4.685068197E2,-3.384190798E-1,1.240055487E-1,1.448360443E0
4.690108004E2,-6.414080039E-3,2.000582218E-1,-1.093447924E0
4.695147812E2,7.391463965E-2,-3.130682111E-1,6.310232878E-1
4.700187622E2,2.600756884E-1,3.404043913E-1,-3.251327872E-1
4.705227432E2,-4.254673123E-1,-2.008218020E-1,-2.715294063E-1
4.710267242E2,-2.953531146E-1,1.200349256E-1,2.160934210E-1
4.715307052E2,1.466075480E-1,-1.595884264E-1,-5.041161776E-1
4.720346860E2,-3.700313270E-1,4.601338804E-1,2.206749022E-1
4.725386668E2,-7.495310903E-1,-1.852447391E-1,-5.088503361E-1
4.730426476E2,7.829759121E-1,-5.164861679E-1,8.214604259E-1
4.735466284E2,-2.753472924E-1,4.488328993E-1,-5.364919901E-1
4.740506092E2,1.473711282E-1,-8.688024282E-1,4.265363216E-1
4.745545901E2,1.912006736E-1,3.756818473E-1,-1.044578776E-1
4.750585711E2,-2.341139317E-1,-1.866191924E-1,-2.319758981E-1
4.755625526E2,-2.011272311E-1,1.565341055E-1,1.362228394E-1
4.760665338E2,1.305723488E-1,-4.653262496E-1,-3.746128380E-1
4.765705149E2,-2.748891525E-2,3.171915412E-1,9.650136232E-1
4.770744958E2,-1.916588247E-1,-3.527744114E-2,-8.095485568E-1
4.775784767E2,2.467893660E-1,-3.196350038E-1,8.755219579E-1
4.780824576E2,-1.021671370E-1,2.403752953E-1,-6.174315810E-1
4.785864387E2,-3.254382014E-1,-2.764163017E-1,1.499672979E-1
4.790904200E2,-3.101665974E-1,5.180133581E-1,1.536324918E-1
4.795944014E2,8.113811612E-1,-7.567087412E-1,-3.949240744E-1
4.800983829E2,-3.633118272E-1,7.098248601E-1,3.840812445E-1
4.806023644E2,-1.899789423E-1,1.434005052E-1,-7.664825916E-1
4.811063460E2,4.572322965E-1,-5.606211424E-1,8.596394658E-1
4.816103275E2,-2.791652083E-1,2.031125315E-2,-4.828886092E-1
4.821143087E2,6.459894776E-2,-4.274526238E-1,5.554288030E-1
4.826182900E2,3.451386094E-2,3.072649837E-1,-1.267544478E-1
4.831222712E2,-1.014035568E-1,-3.604102135E-1,-1.820377111E-1
4.836262522E2,-5.169443488E-1,6.059778333E-1,4.251618981E-1
4.841302330E2,1.840230078E-1,-8.720094711E-2,-7.750346661E-1
4.846342137E2,-6.878337264E-1,1.583666950E-1,9.346231222E-1
4.851381943E2,-4.138609022E-2,-2.596175298E-2,-1.289840937E0
4.856421749E2,2.620609999E-1,-5.099193454E-1,8.281798959E-1
4.861461554E2,1.024725661E-1,-3.207040131E-1,-5.157225728E-1
4.866501361E2,-2.565632015E-2,-5.742128938E-2,3.885099888E-1
4.871541167E2,-6.505709887E-2,5.560396910E-1,9.880737960E-2
4.876580975E2,1.649334840E-2,-3.014617562E-1,-6.481275558E-1
4.881620785E2,9.850194305E-2,-4.065304995E-1,1.043509722E0
4.886660599E2,-5.671879649E-1,6.142245531E-1,-1.633910537E0
4.891700416E2,2.620609999E-1,1.374445762E-2,1.486233950E0
4.896740236E2,7.116574794E-2,3.466657698E-1,-2.028071135E-1
4.901780057E2,-3.970620930E-1,-2.866483033E-1,1.430950761E-1
4.906819877E2,-4.123337101E-3,3.663661480E-1,-5.887209177E-1
4.911859697E2,1.156061590E-1,-4.459312856E-1,-8.394809365E-1
4.916899516E2,-5.170970559E-1,3.969093859E-1,1.079092622E0
4.921939336E2,-7.513637096E-2,-1.605047137E-1,-1.208290577E0
4.926979155E2,1.676823795E-1,6.643154472E-2,1.394909739E0
4.932018974E2,4.856374860E-2,8.216131479E-2,-1.032208800E0
4.937058792E2,-4.428769648E-2,-1.933387071E-1,2.315177470E-1
4.942098610E2,2.382372692E-2,-8.231402934E-2,1.368337125E-1
4.947138424E2,-7.483093534E-3,-2.061668634E-1,-3.958403766E-1
4.952178237E2,-4.531089365E-1,3.400989771E-1,5.476402640E-1
4.957218049E2,-2.061668634E-1,-2.145662606E-1,-5.800161362E-1
4.962257860E2,2.368628234E-1,2.275471240E-1,1.056185246E0
4.967297671E2,-2.701549530E-1,2.437350452E-1,-9.581413865E-1
4.972337480E2,1.985310577E-3,-2.999345958E-1,8.709404469E-1
4.977377288E2,3.778198659E-1,2.012799382E-1,-1.525634825E-1
4.982417096E2,-3.397935331E-1,-5.444332361E-1,-4.833467603E-1
4.987456903E2,-3.507890999E-1,6.287325621E-1,4.905244112E-1
4.992496711E2,8.078686893E-2,-6.351466775E-1,-7.770199776E-1
4.997536519E2,-2.895499170E-1,5.966621637E-1,8.168789148E-1
5.002576328E2,7.376192510E-2,-3.532325625E-1,-1.098487616E0
5.007616145E2,-1.408043355E-1,1.233946830E-1,1.305570722E0
5.012655948E2,2.270889878E-1,-2.199113183E-2,-9.769254923E-1
5.017695756E2,-1.601992846E-1,-2.050978541E-1,5.186241865E-1
5.022735563E2,2.596175298E-3,1.201876476E-1,-1.992946416E-1
5.027775369E2,-1.267544478E-1,-2.185368687E-1,-2.144135386E-1
5.032815172E2,-6.731730103E-1,5.717694163E-1,4.541779757E-1
5.037854976E2,2.324340492E-1,-5.566505194E-1,-8.003855944E-1
5.042894778E2,-3.524689674E-1,4.390590489E-1,1.194393396E0
5.047934581E2,-4.780016840E-2,-3.251327872E-1,-1.361159444E0
5.052974382E2,-3.978256881E-1,2.293797284E-1,1.754556417E0
5.058014182E2,-2.226602137E-1,-1.568395346E-1,-1.600465775E0
5.063053981E2,1.146898642E-1,-5.009090900E-1,1.486539483E0
5.068093778E2,5.192350596E-3,8.246674202E-3,-9.201150537E-1
5.073133575E2,-7.246383429E-1,-1.685986817E-1,6.534726024E-1
5.078173372E2,2.463312149E-1,5.186241865E-1,-5.274817348E-1
5.083213168E2,-4.184423685E-1,-1.947131455E-1,1.537852138E-1
5.088252963E2,-7.254019380E-2,5.789470673E-1,5.925388262E-2
5.093292757E2,-3.695731983E-2,-2.690859437E-1,-6.238456368E-1
5.098332549E2,-7.663298845E-1,1.093447953E-1,7.162389755E-1
5.103372339E2,-2.290742993E-1,-1.244636998E-1,-8.393282294E-1
5.108412128E2,4.604393244E-1,-3.486510813E-1,1.226769209E0
5.113451916E2,4.938841760E-1,-1.805105358E-1,-1.178663611E0
5.118491704E2,-6.073523164E-1,-1.568395346E-1,6.362156868E-1
5.123531493E2,-5.418370366E-1,5.383245945E-1,3.468184769E-1
5.128571281E2,-1.024725661E-1,-4.153880477E-1,-1.065806270E0
5.133611068E2,-4.343248606E-1,6.670643687E-1,1.145371437E0
5.138650854E2,1.110246703E-1,1.244636998E-1,-1.808770657E0
5.143690639E2,-8.842267841E-2,-2.231183648E-1,1.657276154E0
5.148730423E2,-4.011854529E-1,1.188132018E-1,-1.621235132E0
5.153770208E2,4.474584386E-2,5.115992576E-2,1.539073825E0
5.158809991E2,3.145953715E-1,-2.330449075E-1,-8.857539296E-1
5.163849775E2,-2.385426909E-1,-6.185005978E-2,6.195695996E-1
5.168889557E2,4.734202102E-2,1.557705253E-1,-5.345066637E-2
5.173929339E2,7.376192510E-2,-1.623373181E-1,-4.392117858E-1
5.178969121E2,-4.972439408E-1,4.728093445E-1,3.733910918E-1
5.184008903E2,-1.557705179E-2,1.073594838E-1,-7.548761368E-1
5.189048686E2,-1.363755614E-1,1.837175786E-1,1.025947452E0
5.194088472E2,-2.240346521E-1,-1.305723488E-1,-1.257007003E0
5.199128261E2,1.421787739E-1,-7.589995116E-2,1.289535522E0
5.204168055E2,2.290742937E-3,-1.976147592E-1,-9.914335608E-1
5.209207854E2,-2.267835438E-1,-1.360701323E-1,7.345649004E-1
5.214247657E2,2.805396616E-1,1.649334878E-1,-5.655080676E-1
5.219287461E2,-3.640754223E-1,-1.420260593E-2,4.489856213E-2
5.224327266E2,2.779434621E-1,2.562577724E-1,4.917461425E-2
5.229367074E2,-3.416261375E-1,-1.650862098E-1,-4.454731345E-1
5.234406882E2,-3.825540543E-1,3.367392123E-1,5.129737258E-1
5.239446690E2,-2.993237376E-1,-2.261726856E-1,-4.529562294E-1
5.244486498E2,3.836230934E-1,1.059850380E-1,8.133664727E-1
5.249526305E2,-2.874118686E-1,4.825831577E-2,-9.347758293E-1
5.254566111E2,3.037525117E-1,-2.868010104E-1,8.382592201E-1
5.259605916E2,1.829539984E-1,9.880737960E-2,-4.085158110E-1
5.264645722E2,-4.256200492E-1,-1.948658675E-1,-1.000291109E-1
5.269685525E2,1.937968582E-1,3.472766280E-1,1.934914142E-1
5.274725328E2,-3.081812859E-1,-3.167333901E-1,-7.391464114E-1
5.279765129E2,1.725693047E-2,2.617555559E-1,9.126319885E-1
5.284804929E2,-5.691732764E-1,2.550360374E-2,-1.010370374E0
5.289844729E2,3.269653618E-1,-1.420260668E-1,1.371696830E0
5.294884527E2,-1.684459597E-1,4.382954910E-2,-6.229293346E-1
5.299924325E2,-2.214384824E-2,-2.512181401E-1,-4.367683083E-2
5.304964121E2,-2.855792828E-2,4.402807951E-1,3.720166385E-1
5.310003915E2,-2.585485280E-1,-3.518581092E-1,-8.396336436E-1
5.315043709E2,-5.195404887E-1,3.947713673E-1,6.908880472E-1
5.320083502E2,-5.161807314E-2,-1.320995092E-1,-1.112690210E0
5.325123296E2,-2.444986254E-1,3.488037884E-1,1.484248757E0
5.330163089E2,-2.000582218E-2,3.817904973E-3,-1.448818564E0
5.335202882E2,-2.110537887E-1,-6.664534807E-1,1.061835647E0
5.340242674E2,2.739728391E-1,7.024944760E-3,-7.886264324E-1
5.345282466E2,-1.572976857E-1,-1.937968582E-1,2.222020626E-1
5.350322257E2,1.420260593E-2,4.587594569E-1,-1.247691289E-1
5.355362040E2,-1.748600453E-1,-5.597048402E-1,-5.285507441E-1
5.360401830E2,-1.730274558E-1,3.539961278E-1,7.878628373E-1
5.365441618E2,-3.370446563E-1,-1.511584878E0,-9.219476581E-1
5.370481404E2,-4.688387364E-2,1.214093715E-1,1.050687432E0
5.375521189E2,-8.888082504E-1,4.612029195E-1,-1.147204041E0
5.380560976E2,9.770781994E-1,-3.689623177E-1,5.210676789E-1
5.385600763E2,-8.362739086E-1,-1.099556610E-1,4.828886092E-1
5.390640552E2,6.609556675E-1,-3.112356067E-1,-5.859720111E-1
5.395680341E2,-3.787361458E-2,3.862192631E-1,4.037816226E-1
5.400720130E2,-4.521926641E-1,3.011563420E-1,-3.283398226E-2
5.405759920E2,2.819140851E-1,-4.550942779E-2,-9.007201195E-1
5.410799711E2,-3.112356067E-1,3.604102135E-2,9.509637356E-1
5.415839503E2,4.108065665E-1,5.054906011E-2,-2.353356630E-1
5.420879294E2,-3.008508980E-1,-2.831358314E-1,-3.665188551E-1
5.425919085E2,-4.051560760E-1,4.442514181E-1,1.360701323E-1
5.430958875E2,1.655443609E-1,-5.181660652E-1,-3.524689674E-1
5.435998665E2,-6.496546865E-1,4.763218164E-1,3.775144219E-1
5.441038455E2,-2.199113183E-2,-4.260781705E-1,-0.000000000E0
5.446078244E2,2.148716897E-1,3.717112243E-1,7.162389755E-1
5.451118034E2,-4.839576185E-1,-6.327031851E-1,-1.694844365E0
5.456157824E2,9.468404204E-2,2.703076601E-2,1.842368126E0
5.461197616E2,-1.779143661E-1,-2.348775119E-1,-1.561217666E0
5.466237408E2,5.299251899E-2,-1.065959036E-1,1.035874009E0
5.471277200E2,1.177441850E-1,1.505781710E-1,-1.185993910E0
5.476316992E2,-2.368628234E-1,-4.239401519E-1,1.104748964E0
5.481356783E2,2.536616027E-1,5.621483326E-1,-2.593120933E-1
5.486396573E2,-6.065887213E-1,-9.987638891E-2,-2.203694731E-1
5.491436362E2,-2.729038298E-1,3.672824502E-1,1.435532235E-2
5.496476150E2,1.125518382E-1,-5.209149122E-1,1.441640854E-1
5.501515938E2,-2.641990185E-1,7.857248187E-1,-4.103484154E-1
5.506555727E2,1.070540547E-1,-7.047852278E-1,-1.354592592E-1
5.511595516E2,-4.741837978E-1,4.410443604E-1,3.025307953E-1
5.516635305E2,1.278234571E-1,-6.772963405E-1,-1.392771751E-1
5.521675093E2,-2.565632015E-2,4.836521745E-1,3.207040131E-1
5.526714882E2,1.527161949E-4,-5.247328281E-1,-6.247619390E-1
5.531754671E2,-1.878409237E-1,5.665770769E-1,6.905826330E-1
5.536794460E2,1.832594397E-3,-5.630646348E-1,-6.530144215E-1
5.541834250E2,-2.892444730E-1,3.779725730E-1,4.170679152E-1
5.546874039E2,1.550069451E-1,-8.391754627E-1,-1.930332631E-1
5.551913827E2,-3.112356067E-1,4.647153914E-1,4.673115537E-2
5.556953613E2,-1.734855920E-1,-5.245801210E-1,2.602283955E-1
5.561993400E2,5.508472919E-1,3.061959743E-1,-5.209149122E-1
5.567033185E2,-6.301070452E-1,-3.126100600E-1,1.082757831E0
5.572072971E2,5.736020207E-1,-9.610430002E-1,-1.697287798E0
5.577112757E2,4.416552484E-1,-2.747364342E-1,9.454659820E-1
5.582152542E2,-2.748891478E-3,-2.921460867E-1,-4.158461988E-1
5.587192328E2,-6.200277433E-2,1.076649204E-1,2.005163580E-1
5.592232112E2,3.756818548E-2,1.965457499E-1,-1.580612659E-1
5.597271895E2,-9.896009415E-2,6.047561392E-2,1.298087686E-1
5.602311679E2,5.681042373E-2,-7.452550530E-2,-1.293506175E-1
5.607351463E2,-6.750056148E-2,-3.970621154E-3,1.404988952E-2
5.612391246E2,-2.550360374E-2,-1.175914705E-2,1.374445739E-3
5.617431029E2,5.207622424E-2,1.267544460E-2,-3.359756200E-3
5.622470810E2,-2.046396956E-2,4.428769648E-2,-2.260199748E-2
5.627510591E2,1.970038936E-2,2.061668597E-2,1.038470119E-2
5.632550370E2,1.084284950E-2,1.343902480E-2,-9.010255337E-3
5.637590148E2,-5.039634649E-3,-9.162971750E-3,-4.123337101E-3
5.642629926E2,3.207040019E-3,-3.207040019E-3,-9.773836471E-3
5.647669702E2,-5.345067009E-3,3.817904741E-2,-1.985310577E-2
5.652709478E2,-1.343902480E-2,7.116574794E-2,-6.108647678E-3
5.657749253E2,1.298087649E-2,-5.192350596E-3,9.315688163E-3
5.662789027E2,-1.771507785E-2,-6.414080039E-3,1.145371422E-2
5.667828800E2,9.010255337E-3,-1.572976820E-2,-4.886918236E-3
5.672868571E2,-1.878409274E-2,-6.429351866E-2,5.146535859E-2
5.677908343E2,-2.458730713E-2,-3.054323979E-2,3.848448023E-2
5.682948115E2,-1.252272818E-2,5.299251899E-2,-1.985310577E-2
5.687987887E2,-2.138026757E-3,4.581485689E-2,-7.635809947E-3
5.693027657E2,-1.374445739E-3,1.221729559E-3,-1.649334840E-2
5.698067428E2,-3.512472380E-3,-1.221729536E-2,5.497782957E-3
5.703107198E2,-4.581485875E-3,3.466657549E-2,3.054323839E-3
5.708146967E2,1.985310577E-3,2.061668597E-2,1.985310577E-3
5.713186735E2,7.941242307E-3,-3.359756200E-3,9.315688163E-3
5.718226503E2,1.359174121E-2,4.581485875E-3,5.497782957E-3
5.723266270E2,1.740964688E-2,-6.719512492E-2,2.474002354E-2
5.728306038E2,-1.298087649E-2,1.029307172E-1,1.404988952E-2
5.733345804E2,-3.161225319E-1,4.911352694E-1,4.208858311E-1
5.738385570E2,-4.886918236E-3,-1.264490038E-1,-4.932733178E-1
5.743425334E2,-8.735366166E-2,3.649916947E-1,2.138026655E-1
5.748465098E2,-8.491020650E-2,-6.847794056E-1,-7.863357067E-1
5.753504862E2,-7.360920310E-2,1.623373181E-1,1.146440506E0
5.758544626E2,-1.650862098E-1,-7.315105945E-2,-1.104748964E0
5.763584391E2,9.269873053E-2,-3.425424397E-1,1.143080711E0
5.768624157E2,1.550069451E-1,5.345067009E-3,-9.970840216E-1
5.773663924E2,-2.492328286E-1,-4.247037470E-1,5.206094980E-1
5.778703693E2,3.643808365E-1,4.644099474E-1,-1.449276656E-1
5.783743463E2,-4.696022868E-1,-3.720166385E-1,-3.130681813E-2
5.788783235E2,-4.508182108E-1,3.321577311E-1,-5.528326333E-2
5.793823008E2,1.386663020E-1,-9.605848789E-2,-9.498947114E-2
5.798862780E2,-4.401280880E-1,5.426006317E-1,6.942478418E-1
5.803902551E2,-1.418733448E-1,6.841685623E-2,-1.013424635E0
5.808942322E2,1.192713454E-1,-1.655443609E-1,1.034041405E0
5.813982097E2,9.162971750E-3,7.223475724E-2,-6.766854525E-1
5.819021874E2,1.679878100E-3,-2.247982323E-1,4.086685479E-1
5.824061653E2,2.612974048E-1,3.634645343E-1,-2.005163580E-1
5.829101434E2,-3.688096106E-1,-5.015199780E-1,-1.673769504E-1
5.834141217E2,-1.614210159E-1,3.379609287E-1,1.389717311E-1
5.839181000E2,-2.820668221E-1,1.655443609E-1,-2.695440948E-1
5.844220782E2,-1.965457499E-1,2.825249732E-1,8.141300082E-1
5.849260566E2,-1.632536054E-1,-3.978256881E-1,-8.573487401E-1
5.854300351E2,3.210094273E-1,-1.488982886E-1,6.562215090E-1
5.859340136E2,7.681624591E-2,1.119409725E-1,-3.937023580E-1
5.864379921E2,-3.251327872E-1,1.681405306E-1,3.005454838E-1
5.869419706E2,-2.787070572E-1,7.134900689E-1,-3.527744114E-2
5.874459489E2,-3.619373962E-2,-1.869246215E-1,-5.871937871E-1
5.879499270E2,-3.692677617E-1,3.141372204E-1,7.761036754E-1
5.884539052E2,-1.192713454E-1,8.002328873E-2,-8.234457374E-1
5.889578831E2,-3.329212964E-2,2.626718581E-1,6.530144215E-1
5.894618610E2,-3.463603258E-1,1.867718995E-1,-7.200568318E-1
5.899658387E2,3.356702030E-1,-2.609919906E-1,4.505127668E-1
5.904698163E2,-4.903717041E-1,5.740602016E-1,-3.649916872E-2
5.909737936E2,-1.191186346E-2,-4.079049528E-1,-5.195404887E-1
5.914777707E2,-2.568686306E-1,-1.246164143E-1,7.884737253E-1
5.919817478E2,-8.933897316E-2,-5.497783050E-2,-9.952514172E-1
5.924857246E2,2.005163580E-1,-2.504545450E-1,1.243415236E0
5.929897015E2,9.957095981E-2,-3.275762498E-1,-7.875574231E-1
5.934936781E2,-3.483456373E-1,2.652680278E-1,3.904953003E-1
5.939976547E2,1.527161989E-2,4.546361268E-1,-1.047633067E-1
5.945016311E2,-2.793179154E-1,-7.941242307E-2,-3.262017965E-1
5.950056073E2,1.340848207E-1,5.965094566E-1,2.199113220E-1
5.955095842E2,-3.914116025E-1,-3.026835024E-1,-4.813614488E-1
5.960135603E2,-4.054614902E-1,3.124573231E-1,2.667951882E-1
5.965175364E2,-1.814268380E-1,-8.857538924E-3,-6.414080411E-2
5.970215125E2,2.487746775E-1,-1.641699076E-1,1.710421443E-1
5.975254886E2,-6.551524997E-2,6.856957078E-2,-2.402225733E-1
5.980294646E2,1.206457913E-1,-3.265072107E-1,2.927569449E-1
5.985334406E2,-2.148716897E-1,1.220202371E-1,-4.703658819E-1
5.990374169E2,9.269873053E-2,-3.326158822E-1,5.175551772E-1
5.995413935E2,1.867718995E-1,1.524107605E-1,-2.651153207E-1
6.000453706E2,-2.835939825E-1,-3.216203153E-1,7.147117704E-2
6.005493482E2,-2.267835438E-1,5.073232055E-1,1.201876476E-1
6.010533262E2,-9.911280870E-2,-6.375901103E-1,-3.567450345E-1
6.015573045E2,-3.237583339E-1,2.609919906E-1,2.516762912E-1
6.020612830E2,3.176496923E-2,-3.802633286E-1,-3.654498458E-1
6.025652618E2,-1.504254490E-1,2.345720828E-1,3.753764033E-1
6.030692406E2,-4.019490182E-1,1.780670881E-1,-1.620318890E-1
6.035732196E2,4.149298966E-1,-7.345648855E-2,6.977602839E-1
6.040771990E2,-5.766563416E-1,4.321868345E-2,-5.470294356E-1
6.045811794E2,2.306014597E-1,-2.773326039E-1,6.543889046E-1
6.050851609E2,-7.834340632E-2,9.468403645E-3,-7.747292519E-1
6.055891435E2,-6.261363626E-2,-4.767799675E-1,4.743365049E-1
6.060931268E2,-9.834922850E-2,5.161807537E-1,-6.246092543E-2
6.065971105E2,-2.104429156E-1,-3.756818473E-1,-2.304487377E-1
6.071010941E2,-1.085812151E-1,4.621191919E-1,3.005454838E-1
6.076050777E2,-4.166097939E-1,-8.886555433E-1,-6.637045741E-1
6.081090613E2,-2.678641975E-1,6.472112536E-1,8.697187304E-1
6.086130447E2,-1.295033395E-1,-2.394589931E-1,-9.262236953E-1
6.091170280E2,-1.985310577E-3,-1.572976857E-1,1.227227330E0
6.096210112E2,-3.634645343E-1,-3.921751976E-1,-1.539837360E0
6.101249942E2,2.565632164E-1,2.031125426E-1,1.512653947E0
6.106289771E2,-3.028362095E-1,-7.528908551E-2,-1.211039424E0
6.111329599E2,3.283398226E-2,-1.511890348E-2,1.065195441E0
6.116369426E2,1.062904745E-1,5.177079141E-2,-8.355103135E-1
6.121409252E2,-2.868010104E-1,-2.397644222E-1,2.982547283E-1
6.126449078E2,3.726275265E-2,6.149880886E-1,1.330158114E-1
6.131488901E2,-8.185587823E-2,-5.627591610E-1,-6.452259421E-1
6.136528723E2,-1.508836001E-1,-9.880737960E-2,1.117118955E0
6.141568543E2,-2.388481349E-1,-1.832594397E-3,-1.551596522E0
6.146608359E2,1.357647032E-1,4.471530318E-1,1.478292793E-1
6.151648172E2,3.924806118E-1,-7.739656568E-1,5.870410800E-1
6.156687983E2,-4.143190384E-1,-5.589412898E-2,-1.379027218E-1
6.161727793E2,1.327103674E-1,4.305069447E-1,4.288270772E-1
6.166767599E2,-3.524689674E-1,-3.032943606E-1,3.594939113E-1
6.171807402E2,1.009454057E-1,2.196058929E-1,-3.000873327E-1
6.176847204E2,1.942549944E-1,-3.950767815E-1,6.826414168E-2
6.181887005E2,-4.192059636E-1,4.466948807E-1,2.360992432E-1
6.186926803E2,-2.357937992E-1,1.298087649E-2,-4.124864340E-1
6.191966601E2,9.575305134E-2,2.657261789E-1,6.598866582E-1
6.197006398E2,-4.883863926E-1,-3.016144931E-1,-3.912588954E-1
6.202046195E2,5.207622051E-1,-1.675296724E-1,2.023489624E-1
6.207085991E2,-1.175914705E-2,5.894844979E-2,-2.215912044E-1
6.212125785E2,-4.581485689E-2,-2.257145345E-1,3.562868834E-1
6.217165577E2,-6.352993846E-2,4.367683232E-1,-1.372918636E-1
6.222205367E2,-2.199113183E-2,-4.550942481E-1,-3.280344009E-1
6.227245154E2,-1.609628648E-1,2.506072819E-1,4.780016840E-2
6.232284939E2,-3.359756246E-2,-2.695440948E-1,-1.627954692E-1
6.237324721E2,-3.445277214E-1,2.415970266E-1,5.506945848E-1
6.242364502E2,-1.667660922E-1,4.749473557E-2,-7.689260244E-1
6.247404281E2,1.178968996E-1,-9.773836285E-2,8.692606091E-1
6.252444057E2,-5.749764442E-1,3.634645343E-1,-6.520981789E-1
6.257483831E2,3.430005610E-1,-7.328850031E-1,6.986765862E-1
6.262523602E2,-1.069013379E-3,3.527744114E-2,-5.192350745E-1
6.267563372E2,9.498947114E-2,-5.213730931E-1,2.046396956E-2
6.272603140E2,-2.716821134E-1,2.667951882E-1,7.024945319E-2
6.277642908E2,1.487455666E-1,-3.591884971E-1,-4.473057389E-1
6.282682676E2,-7.115047574E-1,3.813323379E-1,4.954113364E-1
6.287722446E2,2.660316229E-1,-2.284634262E-1,-5.845975876E-1
6.292762215E2,4.184423760E-2,-8.643736690E-2,1.291673541E0
6.297801986E2,6.750056148E-2,-2.408334464E-1,-8.535308242E-1
6.302841757E2,-1.065959036E-1,-6.589703560E-1,4.192059636E-1
6.307881529E2,-8.750637621E-2,-4.505127668E-2,-1.104443550E0
6.312921300E2,1.826485693E-1,-6.070469022E-1,-2.313650399E-1
6.317961070E2,2.809977904E-2,-4.146244824E-1,5.222893879E-2
6.323000838E2,-1.890626550E-1,4.795288667E-2,1.664606482E-2
6.328040605E2,-1.879936308E-1,1.590539217E0,7.835868001E-1
6.333080370E2,3.298669681E-2,-4.297433794E-1,2.047924101E-1
6.338120133E2,-1.962403059E-1,1.919642538E-1,5.543597937E-1
6.343159890E2,-1.976147592E-1,2.680169344E-1,-1.107956052E0
6.348199647E2,2.026543915E-1,-3.871355653E-1,1.192102671E0
6.353239406E2,-1.331685185E-1,-2.947422490E-2,-1.032972336E0
6.358279173E2,-2.840521187E-2,-6.362156868E-1,5.422952175E-1
6.363318947E2,4.126391709E-1,1.458439678E-1,-3.315468729E-1
6.368358725E2,-5.479456782E-1,1.267544460E-2,6.811141968E-2
6.373398509E2,-3.555232882E-1,2.672533318E-2,-7.641918659E-1
6.378438296E2,1.475238502E-1,-2.901607752E-1,9.239330143E-2
6.383478086E2,-5.653553605E-1,7.889318466E-1,8.677334189E-1
6.388517877E2,3.503309488E-1,-5.548179150E-1,-7.947350740E-1
6.393557668E2,-1.362228394E-1,1.388190240E-1,1.245400548E0
6.398597459E2,1.233946830E-1,-2.528980076E-1,-8.242093325E-1
6.403637249E2,-2.672533318E-2,-3.558287397E-2,7.170025110E-1
6.408677038E2,-3.358229101E-1,9.514218569E-2,-1.156672478E0
6.413716825E2,9.682206810E-2,-5.568032265E-1,7.759509683E-1
6.418756609E2,3.193295598E-1,1.233946830E-1,-5.968148708E-1
6.423796389E2,-5.911644101E-1,-7.544180006E-2,3.312414289E-1
6.428836166E2,-1.215620935E-1,7.904590368E-1,2.924515009E-1
6.433875938E2,1.847866029E-1,-6.879864335E-1,-6.346884966E-1
6.438915709E2,-1.782197952E-1,1.643226296E-1,1.055879712E0
6.443955475E2,1.869246215E-1,-1.034652233E0,-1.197447658E0
6.448995238E2,-2.269362658E-1,1.540601015E0,1.426369309E0
6.454034998E2,-1.612683088E-1,-5.983420610E-1,-1.320384264E0
6.459074753E2,1.913533956E-1,1.605047137E-1,7.771727443E-1
6.464114507E2,-7.854194045E-1,-1.731801629E-1,-9.463822842E-1
6.469154257E2,4.871646762E-1,-2.686277926E-1,1.010828495E0
6.474194004E2,-5.650499091E-2,-7.498364896E-2,-8.303179741E-1
6.479233750E2,-3.013090491E-1,-3.364337683E-1,1.266170025E0
6.484273494E2,2.380845547E-1,4.511236250E-1,-8.683443069E-1
6.489313235E2,-1.107192412E-1,-3.477347791E-1,3.613265157E-1
6.494352976E2,-1.180496216E-1,7.310523987E-1,-1.811214089E-1
6.499392715E2,-2.779434808E-2,-5.584831238E-1,1.114828233E-2
6.504432454E2,-3.900371492E-1,5.082395077E-1,1.583666950E-1
6.509472192E2,9.285144508E-2,-6.021599770E-1,-6.033816934E-1
6.514511930E2,-4.625773430E-1,6.133082509E-1,4.557051361E-1
6.519551666E2,-9.957095981E-2,-1.933387071E-1,-8.738420606E-1
6.524591401E2,-1.821904182E-1,1.282816008E-2,1.031445146E0
6.529631135E2,-1.711948514E-1,-2.843575478E-1,-1.046411395E0
6.534670866E2,1.007926930E-2,-1.159115955E-1,1.060461283E0
6.539710595E2,1.808159798E-1,-3.459021747E-1,-9.312633276E-1
6.544750322E2,-4.016435891E-2,-3.756818548E-2,7.893900275E-1
6.549790047E2,2.768744528E-1,2.350302190E-1,-5.705476999E-1
6.554829765E2,-4.570795596E-1,-6.032289565E-2,4.153880477E-1
6.559869488E2,2.047924101E-1,2.360992432E-1,-3.715584874E-1
6.564909208E2,-1.947131455E-1,-8.156571984E-1,2.049451321E-1
6.569948927E2,-7.192932814E-2,1.919642538E-1,-1.669187993E-1
6.574988643E2,-1.044578776E-1,-1.837175786E-1,-4.016435891E-2
6.580028358E2,-4.146244824E-1,7.408262491E-1,3.512472510E-1
6.585068073E2,8.949168772E-2,-7.005091906E-1,-8.860593438E-1
6.590107790E2,-3.339903057E-1,1.611155868E-1,9.019418359E-1
6.595147511E2,-8.750637621E-2,-1.572976857E-1,-6.461422443E-1
6.600187237E2,-2.718348205E-1,4.059196413E-1,1.084132314E0
6.605226968E2,-2.153298408E-1,-1.687513888E-1,-1.209359527E0
6.610266703E2,5.085449293E-2,-7.009673119E-2,1.182176113E0
6.615306440E2,-1.930332631E-1,-1.084285006E-1,-1.235779405E0
6.620346179E2,1.988364905E-1,-1.258381456E-1,1.260214090E0
6.625385984E2,-6.047561392E-2,2.901607659E-3,-9.379828572E-1
6.630425664E2,-1.166751757E-1,-2.270889878E-1,6.980656981E-1
6.635465409E2,2.402225733E-1,2.029598206E-1,-4.731147587E-1
6.640505153E2,-3.524689674E-1,-4.324922562E-1,2.009745091E-1
6.645544896E2,-1.261435747E-1,5.346593857E-1,-1.007926911E-1
6.650584637E2,1.087339297E-1,-3.877464235E-1,-4.042397738E-1
6.655624375E2,-5.790998340E-1,6.107120514E-1,4.503600597E-1
6.660664109E2,2.748891478E-3,-4.552469850E-1,-5.951350331E-1
6.665703843E2,-2.081521749E-1,3.929387629E-1,7.948877811E-1
6.670743575E2,-2.260199748E-2,-2.225074917E-1,-9.500474334E-1
6.675783305E2,-7.696896046E-2,1.229365394E-1,9.911280870E-1
6.680823033E2,-1.944077164E-1,6.704241037E-2,-1.123685718E0
6.685862758E2,1.128572673E-1,-1.798996776E-1,1.125976562E0
6.690902482E2,-3.054323839E-3,2.287688553E-1,-8.420770764E-1
6.695942204E2,-2.298378795E-1,-2.095266134E-1,6.395754218E-1
6.700981925E2,1.721111536E-1,-5.497782957E-3,-5.992583632E-1
6.706021645E2,-1.594357044E-1,-4.495964646E-1,3.642281294E-1
6.711061365E2,2.420551628E-1,8.765909821E-2,-2.696968019E-1
6.716101084E2,-4.054614902E-1,-1.858556122E-1,1.000291109E-1
6.721140802E2,1.510363221E-1,3.330740333E-1,1.006399691E-1
6.726180519E2,-1.421787739E-1,-4.546361268E-1,-3.391826749E-1
6.731220233E2,-2.513708472E-1,5.568032265E-1,2.950477004E-1
6.736259945E2,-4.184423760E-2,-3.776671588E-1,-4.039343297E-1
6.741299654E2,-3.411679864E-1,6.108647585E-1,3.387245238E-1
6.746339361E2,2.183841616E-1,-5.998691916E-1,-4.581485987E-1
6.751379065E2,-3.332267404E-1,2.768744528E-1,4.787652791E-1
6.756418767E2,1.747073233E-1,-4.983129501E-1,-4.888445437E-1
6.761458465E2,-1.899789423E-1,1.974620372E-1,6.699659228E-1
6.766498160E2,-2.015853822E-1,1.997527778E-1,-9.002619982E-1
6.771537852E2,-2.637408674E-1,2.921460867E-1,7.912226319E-1
6.776577541E2,2.880227566E-1,-2.186895907E-1,-8.600975871E-1
6.781617228E2,-1.791360974E-1,1.618791744E-2,9.315688014E-1
6.786656915E2,4.871646687E-2,-4.382954910E-2,-9.072869420E-1
6.791696601E2,-4.841103405E-2,-4.111120105E-1,7.980948091E-1
6.796736283E2,2.536616027E-1,-1.921169758E-1,-7.139481902E-1
6.801775963E2,-3.035998046E-1,-3.306305707E-1,5.700895786E-1
6.806815639E2,2.313650399E-1,3.437641561E-1,-2.973384261E-1
6.811855313E2,-4.039343297E-1,-6.062832847E-2,9.926552884E-3
6.816894988E2,2.718348242E-2,6.548470259E-1,5.314523727E-2
6.821934667E2,-7.651081681E-2,-3.396408260E-1,-3.011563420E-1
6.826974350E2,-4.327977002E-1,3.749182522E-1,-1.469129771E-1
6.832014036E2,-6.169734150E-2,6.979130208E-2,3.970620930E-1
6.837053719E2,-4.149298966E-1,4.338667095E-1,3.970621154E-3
6.842093402E2,1.041524485E-1,2.425133139E-1,-4.732674956E-1
6.847133080E2,-2.470948100E-1,2.344193608E-1,6.302597523E-1
6.852172756E2,-4.491383433E-1,4.987711012E-1,-4.169152081E-1
6.857212429E2,7.681624591E-2,6.261364091E-3,5.943714380E-1
6.862252101E2,-6.612611562E-2,1.838703007E-1,-5.856665969E-1
6.867291773E2,-4.169152305E-2,-2.295324355E-1,5.407680273E-1
6.872331444E2,2.773326039E-1,2.733619809E-1,-5.248855352E-1
6.877371113E2,-4.951058924E-1,-3.361283541E-1,3.848448098E-1
6.882410780E2,2.136499584E-1,1.840230078E-1,-3.671297431E-1
6.887450445E2,-2.298378795E-1,-3.970620930E-1,2.438877672E-1
6.892490108E2,-6.414080039E-3,4.989238083E-1,-2.299905866E-1
6.897529771E2,5.054906011E-2,-1.858556122E-1,1.276707351E-1
6.902569432E2,-5.975784659E-1,4.117228687E-1,3.054323979E-2
6.907609091E2,-1.797469556E-1,-2.437350452E-1,7.773254067E-2
6.912648749E2,2.472475171E-1,-1.748600453E-1,2.409861535E-1
6.917688405E2,-3.158170879E-1,-2.243400961E-1,-6.869174242E-1
6.922728059E2,3.159697950E-1,-1.122464016E-1,1.069318771E0
6.927767711E2,-3.069595397E-1,5.192350596E-3,-9.757037759E-1
6.932807361E2,2.138026757E-3,-1.342375278E-1,9.271399975E-1
6.937847011E2,-1.307250559E-1,2.591593862E-1,-8.058833480E-1
6.942886660E2,-6.383536756E-2,-2.528980076E-1,4.940368831E-1
6.947926308E2,1.220202371E-1,1.983783394E-1,-3.310887218E-1
6.952965955E2,-3.805687428E-1,-4.156934917E-1,3.573558852E-2
6.958005601E2,1.293506175E-1,7.422006875E-2,1.411097646E-1
6.963045247E2,-2.293797284E-1,-4.801397026E-1,-4.153880477E-1
6.968084892E2,1.589775532E-1,3.228420317E-1,5.642863512E-1
6.973124537E2,-5.064069033E-1,-5.395463109E-1,-7.235693336E-1
6.978164184E2,-1.574503928E-1,6.230821013E-1,6.528617144E-1
6.983203838E2,-3.695731983E-2,-7.150171995E-1,-7.327322960E-1
6.988243499E2,-1.094975099E-1,1.302669197E-1,5.525271893E-1
6.993283173E2,-1.597411335E-1,-2.587012351E-1,-6.954695582E-1
6.998322858E2,9.196569324E-1,1.104596257E0,-3.523162603E-1
7.003362555E2,8.500183225E-1,6.340776682E-1,-3.101665974E-1
7.008402261E2,7.929024696E-1,5.238165259E-1,1.695149690E-1
7.013441975E2,1.043051630E-1,9.208786488E-2,1.038470119E-1
7.018481697E2,7.302888632E-1,8.857538924E-3,-1.214093715E-1
7.023521425E2,3.558287397E-2,3.359756246E-2,-7.406735420E-2
7.028561157E2,-1.453858167E-1,1.429423541E-1,-5.222893879E-2
7.033600894E2,-1.832594350E-2,8.384118974E-2,-9.621120058E-3
7.038640636E2,1.455385387E-1,1.053741723E-1,7.941242307E-3
7.043680386E2,1.143844277E-1,3.817904973E-3,-9.132428467E-2
7.048720142E2,-6.017018110E-2,1.875354946E-1,1.647807807E-1
7.053759904E2,-5.146535859E-2,-7.849612087E-2,-1.580612659E-1
7.058799672E2,-2.458730713E-2,-6.291907281E-2,1.004872546E-1
7.063839444E2,-1.105665267E-1,-3.376555145E-1,-5.348120928E-1
