"Time (s)","Linear Acceleration x (m/s^2)","Linear Acceleration y (m/s^2)","Linear Acceleration z (m/s^2)"
5.950823100E-2,5.299615860E-1,2.402038097E0,7.241549492E0
2.611454180E-1,2.596588135E-1,1.859057903E0,3.159359455E0
7.611454180E-1,-4.726183414E-1,2.237620354E0,4.163080215E0
1.261145418E0,5.520098686E0,-5.087282181E0,1.932955027E0
1.761145418E0,-5.431101322E-1,-1.881693363E0,2.439949512E-1
2.261145418E0,8.696374893E-1,-8.557772636E-1,1.497021675E0
2.761145418E0,1.967733622E0,-4.311256409E0,1.830815554E0
3.261145418E0,-1.075269938E0,-3.107532501E0,7.347515225E-1
3.761145418E0,4.722204685E0,-4.067521572E0,-9.897861481E-1
4.261145418E0,-1.338608980E0,-5.285938263E0,7.600882053E-1
4.761145418E0,2.225127935E0,-2.285541534E0,1.816111088E0
5.261145418E0,3.201341629E-2,-2.889758587E0,-8.804931641E-1
5.761145418E0,-3.468655586E0,-9.334144592E-1,-8.824596405E-1
6.261145418E0,1.122457743E0,1.504153252E0,9.568004608E-1
6.761145418E0,-2.949219465E0,-2.893190861E0,2.091880560E0
7.261145418E0,3.415413857E0,2.144705296E0,-1.392943621E0
7.761145418E0,-1.813843012E0,-3.541640759E0,4.852232933E-1
8.261145418E0,1.890647888E0,-4.023208618E-1,8.848253489E-1
8.761145418E0,8.483853340E-1,-3.023300171E0,1.087345362E0
9.261145418E0,3.416507483E0,-3.534110069E0,1.311422348E0
9.761145418E0,-7.147173882E-1,3.757591248E-1,-8.034955263E-1
1.026114542E1,2.763782501E0,-1.309859753E0,1.776192427E0
1.076114542E1,1.074752092E0,3.805423260E0,-1.543306112E0
1.126114542E1,-1.430546761E0,4.882745743E-1,3.358928442E0
1.176114542E1,2.916643143E0,1.924066544E-1,2.196945667E0
1.226114542E1,1.274019480E0,2.117625713E0,-4.629685879E-1
1.276114542E1,-4.099311829E-1,2.229427814E0,-9.382737875E-1
1.326114542E1,1.445331097E0,2.033463955E0,6.248956919E-1
1.376114542E1,1.810690165E0,-3.854866028E-1,1.423770905E0
1.426114542E1,1.232017040E0,-3.524614334E0,-3.238676786E-1
1.476114542E1,1.920985222E0,-3.360666275E0,7.341731787E-1
1.526114542E1,6.117429733E-1,-7.333736420E-1,1.463949323E0
1.576114542E1,3.882610321E0,-2.445922852E0,1.008709431E0
1.626114542E1,7.146003246E-1,4.011674881E0,-1.809628606E0
1.676114542E1,-4.232163429E-1,3.158588409E-1,2.618123293E0
1.726114542E1,1.702141523E0,2.598300457E0,-2.110974789E-1
1.776114542E1,-1.018613338E0,8.759021759E-1,4.001557350E0
1.826114542E1,9.820914268E-1,-1.085091591E0,2.558881283E0
1.876114542E1,-2.873899221E0,-2.951555252E-1,1.344429493E0
1.926114542E1,3.697062969E0,-3.129419327E0,3.398633480E0
1.976114542E1,-1.145390272E0,-1.259377480E0,-4.937449396E-1
2.026114542E1,2.956276894E0,-3.613928795E0,2.200296402E0
2.076114542E1,-1.068196297E-1,-2.629245758E0,3.958200216E-1
2.126114542E1,3.206849098E-1,-1.278068066E0,2.371620178E0
2.176114542E1,2.270426035E0,-2.097591400E0,1.616742373E0
2.226114542E1,-4.199117184E0,-1.340497017E0,3.912047386E0
2.276114542E1,6.686830521E-2,1.465426445E0,-6.703693867E-1
2.326114542E1,-2.913575172E0,1.883354187E-1,2.152330875E0
2.376114542E1,1.880370617E0,4.019281864E0,-5.753819942E-1
2.426114542E1,-2.506128073E0,-1.876773834E0,-4.642971754E-1
2.476114542E1,5.060775280E-1,1.829497337E0,9.132403135E-1
2.526114542E1,-4.147035599E0,-9.106101990E-1,1.774794340E0
2.576114542E1,1.017500401E0,-8.710861206E-1,1.518413067E0
2.626114542E1,-4.711664200E0,-5.723342896E-1,1.919569492E0
2.676114542E1,1.837316513E0,-2.326858521E0,2.295920849E0
2.726114542E1,-2.430958748E0,-9.564895630E-1,-2.557793856E-1
2.776114542E1,2.544277191E0,-3.361266613E0,2.157388210E0
2.826114542E1,-2.246977568E0,-2.728157043E0,-8.828103542E-1
2.876114542E1,6.087331772E-1,-1.102406502E0,2.457910299E0
2.926114542E1,-6.596641541E-1,-2.342458725E0,1.610165834E-1
2.976114542E1,-4.238957405E0,-2.253664017E0,2.271437645E0
3.026114542E1,2.585291862E0,-1.414546967E-1,3.162791729E-1
3.076114542E1,-4.940896988E0,-3.432713032E0,2.554221869E0
3.126114542E1,4.756941795E0,3.639360428E0,-5.820038319E-1
3.176114542E1,-3.642842531E0,-1.795196533E0,3.256335855E-1
3.226114542E1,3.789881706E0,2.787850857E0,-1.153556228E0
3.276114542E1,-1.364344120E0,-1.533137321E0,-1.764904022E0
3.326114542E1,2.170584679E0,-9.624004364E-2,1.069193840E0
3.376114542E1,-9.314272404E-1,-2.371758461E0,-1.043527126E0
3.426114542E1,8.224911690E-1,-3.562734604E0,3.007757664E0
3.476114542E1,7.327795029E-3,-1.830360413E0,1.955016613E0
3.526114542E1,1.896226883E0,-3.855833530E0,2.439648628E0
3.576114542E1,4.904444218E0,-6.578674316E-1,1.129489541E0
3.626114542E1,1.153879166E-1,-5.525639534E0,2.429345846E0
3.676114542E1,8.623326302E0,1.460555077E0,-1.077268839E0
3.726114542E1,-3.290277958E0,-7.587458611E0,1.140458941E0
3.776114542E1,3.856773376E0,-2.066517830E0,1.339181900E0
3.826114542E1,-5.293453217E0,-5.043983936E0,2.564612389E0
3.876114542E1,5.372423172E0,1.172451019E0,-2.920491695E-1
3.926114542E1,-4.054433823E0,-2.097842693E0,9.952839017E-1
3.976114542E1,5.137891293E0,3.790094852E0,-1.274381638E0
4.026114542E1,-2.586317778E0,-1.056652069E0,-6.267092228E-1
4.076114542E1,3.261108398E0,2.076307297E0,5.214117765E-1
4.126114542E1,-1.049986124E0,-1.573945045E0,-5.491316319E-1
4.176114542E1,3.023781300E0,-1.428539276E0,2.987857103E0
4.226114542E1,-5.612003803E-1,-4.718484879E-1,1.482632637E0
4.276114542E1,2.297340393E0,-3.274332047E0,1.567082882E0
4.326114542E1,2.966061592E0,2.638592243E0,-5.241403580E-1
4.376114542E1,1.109094620E-1,-2.429180145E0,9.214622378E-1
4.426114542E1,3.400741577E0,3.872725487E0,2.642477751E-1
4.476114542E1,-3.314896107E0,-1.836028099E0,2.989513874E0
4.526114542E1,2.177139759E0,1.108228683E0,2.624832630E0
4.576114542E1,-3.196755171E0,-7.728328705E-1,2.253234863E0
4.626114542E1,1.850247860E0,-2.243217468E0,2.358755589E0
4.676114542E1,-2.566883326E0,-1.417839050E0,-5.056490898E-1
4.726114542E1,1.465599060E0,-2.926309109E0,2.475470781E0
4.776114542E1,-4.791002274E-1,-2.285458565E0,-1.282453537E-1
4.826114542E1,-9.059743881E-1,-1.471547127E0,2.099504232E0
4.876114542E1,7.446827888E-1,-1.241709709E0,1.195117116E0
4.926114542E1,-3.954010010E0,-7.196621895E-1,2.689754963E0
4.976114542E1,2.383036852E0,2.616569519E0,2.588527203E-1
5.026114542E1,-5.998835564E-1,-9.279155731E-1,3.256556034E0
5.076114542E1,3.538293839E0,3.332188606E0,-3.285436630E-1
5.126114542E1,-3.155206680E0,-1.639854431E0,3.637923241E0
5.176114542E1,3.947462559E0,-1.095771790E-3,2.314712524E0
5.226114542E1,-2.728730679E0,-1.612307549E0,2.671108246E0
5.276114542E1,2.429237843E0,-3.832649708E0,3.337061882E0
5.326114542E1,-1.328036189E0,-1.223464966E0,-5.600969791E-1
5.376114542E1,1.033215523E0,-2.865770817E0,2.571534157E0
5.426114542E1,3.170418739E-1,-1.912627220E0,5.586558580E-1
5.476114542E1,-2.109782696E0,-1.832043648E0,3.371855021E0
5.526114542E1,2.041356087E0,-1.096738815E0,1.786037207E0
5.576114542E1,-3.095321655E0,-1.629047871E0,3.919181347E0
5.626114542E1,1.684329510E0,2.220428944E0,-2.562620640E-1
5.676114542E1,-2.493527651E0,1.174497604E0,2.299757242E0
5.726114542E1,2.525274992E0,4.763006210E0,-8.399748802E-1
5.776114542E1,-1.674195051E0,-1.152960777E0,1.852326393E-1
5.826114542E1,4.130890846E0,2.029185295E0,-1.668179035E-2
5.876114542E1,-6.137757301E-1,-3.092951775E0,9.064325690E-1
5.926114542E1,2.826360226E0,-2.747859955E0,4.106554031E0
5.976114542E1,1.258517027E0,-1.580780029E0,1.089320183E0
6.026114542E1,2.899085522E0,-2.903618813E0,2.848901987E0
6.076114542E1,2.278547287E0,1.060633659E0,7.897710800E-2
6.126114542E1,1.268703461E0,-2.826342583E0,2.003066063E0
6.176114542E1,3.931958437E0,2.199071407E0,8.869910240E-2
6.226114542E1,-5.309658051E-1,-4.409279823E0,3.809473753E0
6.276114542E1,8.601517677E-1,-1.992260933E0,1.916777492E0
6.326114542E1,6.797790527E-1,1.151453018E0,3.033138275E0
6.376114542E1,-1.233234406E-1,-1.186008453E0,8.447718620E-1
6.426114542E1,-3.142628670E0,-1.405642986E0,3.322962761E0
6.476114542E1,3.866030693E0,3.804197311E-1,1.531813741E0
6.526114542E1,-3.399666786E0,-1.032457352E0,3.353466272E0
6.576114542E1,3.188201189E0,2.669610977E0,-9.518408775E-1
6.626114542E1,-2.688792706E0,-1.245519638E0,1.996332169E0
6.676114542E1,3.353146076E0,2.832359791E0,-8.364279270E-1
6.726114542E1,-1.154366493E0,-2.816773415E0,3.502049446E-1
6.776114542E1,2.261859179E0,-4.074125290E-1,1.472763538E0
6.826114542E1,-7.759933472E-1,-2.385686874E0,1.009692907E0
6.876114542E1,2.001588821E0,-2.904433250E0,2.420938492E0
6.926114542E1,-4.555046558E-1,-6.934785843E-1,-3.291201591E-1
6.976114542E1,2.627099991E0,-2.176599503E0,2.241296053E0
7.026114542E1,2.130241394E-1,1.520558834E0,-2.341809273E-1
7.076114542E1,2.078172207E0,-1.200957298E0,1.582999110E0
7.126114542E1,1.191685200E0,3.678763866E0,-1.872956991E0
7.176114542E1,-1.247036934E0,-7.112531662E-1,1.907840729E0
7.226114542E1,1.602677345E0,1.705989361E0,1.245164871E-1
7.276114542E1,-2.967237949E0,-2.517223358E-2,2.601031780E0
7.326114542E1,2.095158100E0,-3.162078857E-1,3.773482561E0
7.376114542E1,-2.606929064E0,-2.811293602E-1,2.405570269E0
7.426114542E1,3.495282173E0,-2.746031761E0,4.117537022E0
7.476114542E1,-9.238619804E-1,-1.133623123E0,3.846105337E-1
7.526114542E1,1.960334539E0,1.622079849E0,1.608894229E0
7.576114542E1,-1.868772507E-2,-2.157156944E0,9.982744455E-1
7.626114542E1,2.231556892E0,-1.578602791E0,2.625655651E0
7.676114542E1,-6.037094593E-1,-1.170436859E0,1.884775639E0
7.726114542E1,2.984458923E0,-2.509156227E0,2.046888351E0
7.776114542E1,3.233166695E0,2.520441532E0,2.505617142E-1
7.826114542E1,6.701140404E-1,-6.261882782E-1,1.965092659E0
7.876114542E1,2.578031540E0,1.716643810E0,2.361889124E0
7.926114542E1,-3.850678682E0,-1.087851524E0,2.310009718E0
7.976114542E1,1.639345646E0,-1.637340546E0,2.919419527E0
8.026114542E1,-3.280955553E0,-1.428111553E0,1.746050358E0
8.076114542E1,3.137973785E0,-3.145076752E0,4.185623646E0
8.126114542E1,-1.028016329E0,-3.245940208E0,3.326840162E0
8.176114542E1,1.904127598E0,-9.940032959E-1,6.571305990E-1
8.226114542E1,6.039531231E-1,-2.537793159E0,1.593456030E0
8.276114542E1,-2.203018904E0,1.813497543E-1,2.884844780E0
8.326114542E1,2.349457264E0,5.023565292E-1,-9.688435793E-1
8.376114542E1,-3.726604700E0,9.146842957E-1,1.576578140E0
8.426114542E1,2.431778669E0,3.766300201E0,1.768631935E-1
8.476114542E1,-4.158325195E-1,-1.522670746E0,-3.174256682E-1
8.526114542E1,1.373141527E0,8.953552246E-1,1.213053703E0
8.576114542E1,-4.053497314E-1,-2.241121292E0,1.561695337E0
8.626114542E1,2.238575935E0,-2.659648895E0,1.422042966E0
8.676114542E1,-2.153866529E0,-3.168098450E0,-1.956498623E-1
8.726114542E1,1.259485245E0,-1.315965652E0,1.567043424E0
8.776114542E1,8.114662170E-1,-1.557599068E0,2.980188131E-1
8.826114542E1,-2.042406559E0,-7.272243500E-2,2.699257135E0
8.876114542E1,1.484484673E0,6.005077362E-1,1.165928960E0
8.926114542E1,-3.609950304E0,-5.796785355E-1,7.829108238E-1
8.976114542E1,2.216485739E0,4.080668449E0,-5.049560070E-1
9.026114542E1,-2.277597666E0,-1.038448334E0,4.701101780E-2
9.076114542E1,1.387727261E0,6.872944832E-1,1.612245798E0
9.126114542E1,-2.986128330E-1,-2.184348106E0,2.124959230E-2
9.176114542E1,8.179397583E-1,-2.008540154E0,2.986537457E0
9.226114542E1,9.589033127E-1,-1.048032761E0,1.606235743E0
9.276114542E1,2.838254929E0,-2.891766548E0,1.778049707E0
9.326114542E1,4.109043598E0,2.089075089E0,7.316803932E-2
9.376114542E1,-4.074368477E-1,-1.708402157E0,1.897876501E0
9.426114542E1,2.401401043E0,2.126807690E0,1.224743128E0
9.476114542E1,-4.192186356E0,-1.313589096E0,1.805514932E0
9.526114542E1,2.336783409E0,-2.293378830E0,3.424186230E0
9.576114542E1,-2.904742002E0,-1.307377815E0,9.396867156E-1
9.626114542E1,2.829500198E0,-3.033353806E0,2.160022736E0
9.676114542E1,-1.221473932E0,-2.391695976E0,-1.117579818E0
9.726114542E1,2.914613247E0,-2.256722450E0,2.458256483E0
9.776114542E1,-7.004058361E-1,-3.291441917E0,-2.736036777E-1
9.826114542E1,-1.890081882E0,-5.931210518E-1,1.557478309E0
9.876114542E1,-1.388614178E-1,-1.000347137E-1,1.333968997E0
9.926114542E1,2.546829700E0,-2.092333794E0,2.397557735E0
9.976114542E1,3.173227787E0,3.720015049E0,-1.409382820E-1
1.002611454E2,-6.572923660E-1,-2.465519905E-1,2.195932865E0
1.007611454E2,1.496721268E0,2.735013485E0,8.657906055E-1
1.012611454E2,-3.116152525E0,5.778570175E-1,1.015857816E0
1.017611454E2,1.434605837E0,-8.357362747E-1,3.111042500E0
1.022611454E2,-2.804050684E0,-1.715326309E-1,1.941708088E0
1.027611454E2,3.538808823E-1,-1.736956596E0,2.912507534E0
1.032611454E2,-2.758805513E0,-1.743499756E0,1.785442352E0
1.037611454E2,1.475621700E0,-3.297435284E0,1.652818084E0
1.042611454E2,-2.107103109E0,-1.717758179E0,-2.316405773E-1
1.047611454E2,2.264936924E0,-2.760574818E0,2.172081947E0
1.052611454E2,-1.393425226E0,-2.361879349E0,-6.131422520E-1
1.057611454E2,-4.514932632E-2,-2.337640762E0,9.046903849E-1
1.062611454E2,1.505289078E-1,-1.991609573E0,-6.807125211E-1
1.067611454E2,-8.528199196E-1,-1.351422310E0,1.270365834E0
1.072611454E2,1.924262047E-1,-1.510456085E0,1.529197931E0
1.077611454E2,-3.555561066E0,-1.971925735E0,3.074778080E0
1.082611454E2,3.014614582E0,1.094341278E0,-5.749207735E-1
1.087611454E2,-4.360822678E0,-1.489020824E0,2.896658421E0
1.092611454E2,3.406413078E0,3.596928120E0,-2.034971714E0
1.097611454E2,-2.247612000E0,-1.109414101E0,-3.810888529E-1
1.102611454E2,2.609286785E0,2.580700874E0,-2.305626869E-2
1.107611454E2,-1.478279114E0,-1.122873306E0,-5.610526204E-1
1.112611454E2,2.512681961E0,1.336126328E-1,1.560212731E0
1.117611454E2,-4.849788666E0,-1.984696865E0,1.629250050E0
1.122611454E2,2.672820568E0,-1.609629631E0,2.674711704E0
1.127611454E2,-3.919445276E0,-1.186476707E0,1.264533281E0
1.132611454E2,2.333008289E0,-2.180676460E0,2.983528852E0
1.137611454E2,-3.972931147E0,-2.201874256E0,-7.486852407E-1
1.142611454E2,3.968900204E0,-1.922300339E0,2.328588724E0
1.147611454E2,-2.531560421E0,-1.578363419E0,-1.261113882E0
1.152611454E2,1.479275703E0,-2.914990425E0,1.051909685E0
1.157611454E2,-1.339727879E0,-2.429568291E0,-5.363200307E-1
1.162611454E2,-6.333031654E-1,-9.314818382E-1,1.217005730E0
1.167611454E2,-3.671691418E-1,-1.220261574E0,2.536783218E-1
1.172611454E2,-4.909063339E0,-2.959006786E0,2.576397896E0
1.177611454E2,1.457068443E0,1.035627365E0,-7.755434513E-2
1.182611454E2,-4.253953934E0,-9.054737091E-1,1.315870285E0
1.187611454E2,1.980154991E0,3.745416164E0,-1.219530582E0
1.192611454E2,-2.353624582E0,-2.985782623E-1,-4.787368178E-1
1.197611454E2,1.403130651E0,2.635112286E0,9.001095295E-1
1.202611454E2,-2.405328512E0,-1.957433701E0,-1.234099030E0
1.207611454E2,1.309180021E0,-1.726551056E-1,1.650055647E0
1.212611454E2,-1.263078690E0,-2.886541367E0,-2.664589882E-1
1.217611454E2,1.983586788E0,-2.293279648E0,2.709798336E0
1.222611454E2,-8.066370487E-1,-1.896302223E0,-3.044508100E-1
1.227611454E2,2.380811691E0,-3.161716461E0,2.632059574E0
1.232611454E2,-3.894379139E-1,1.789093018E-2,4.930945635E-1
1.237611454E2,1.516738415E0,-2.386410713E0,1.534916043E0
1.242611454E2,-1.746844053E0,-2.847017288E0,-5.180831552E-1
1.247611454E2,-5.249524117E-1,-1.130219460E0,1.730318785E0
1.252611454E2,-1.203064203E0,-1.691090584E0,4.102436900E-1
1.257611454E2,-1.245218992E0,1.549583912E0,1.665168405E0
1.262611454E2,8.835346699E-1,1.611966133E0,-1.093182802E0
1.267611454E2,-3.556642532E0,1.388833046E0,9.353915453E-1
1.272611454E2,1.776275635E-1,3.081893444E0,-5.413230658E-1
1.277611454E2,-2.427366018E0,-5.735549927E-1,-1.870899796E-1
1.282611454E2,1.599788427E0,2.422898769E0,3.266328573E-1
1.287611454E2,-1.122520208E0,-2.422894478E0,1.297861934E0
1.292611454E2,2.000050545E0,1.862192154E-1,9.909065962E-1
1.297611454E2,-9.452295303E-1,-3.098053932E0,2.861828208E-1
1.302611454E2,1.396020412E0,-2.712871552E0,1.511286020E0
1.307611454E2,1.997709274E-2,9.029388428E-3,9.169183969E-1
1.312611454E2,1.993223667E0,-2.726983070E0,1.526726007E0
1.317611454E2,1.592918873E0,3.548840046E0,-6.215472221E-1
1.322611454E2,1.036963463E-1,-3.305549622E-1,1.464030027E0
1.327611454E2,1.626623631E0,2.587087154E0,3.793462515E-1
1.332611454E2,-2.546816826E0,7.264657021E-1,3.056414604E0
1.337611454E2,7.442164421E-1,1.275351524E0,4.378736019E-1
1.342611454E2,-2.108096600E0,1.614533424E0,3.846974134E0
1.347611454E2,2.147279978E0,-2.497752190E0,2.132368326E0
1.352611454E2,3.659989834E-1,-4.955501556E-1,-6.461213827E-1
1.357611454E2,3.050672054E0,-3.120884895E0,1.217269897E0
1.362611454E2,1.299130201E0,-2.018342972E0,1.079333186E0
1.367611454E2,1.590838909E0,-4.747858047E-1,1.937386036E0
1.372611454E2,1.151086807E0,-1.857017517E0,8.019201756E-1
1.377611454E2,2.403521538E0,-2.910910606E0,2.144406319E0
1.382611454E2,1.295447469E0,4.378414154E-1,7.841370106E-1
1.387611454E2,3.691111088E0,-4.921493530E-1,1.898429155E0
1.392611454E2,7.778984308E-1,3.758568764E0,-6.623851061E-1
1.397611454E2,-1.983444452E0,-1.804189682E-1,2.729938030E0
1.402611454E2,1.523322582E0,1.320352554E0,2.312462330E-1
1.407611454E2,-4.269547462E0,-1.234217167E0,2.602358580E0
1.412611454E2,3.356346130E0,-1.061534882E0,1.336425185E0
1.417611454E2,-3.914060354E0,-1.998970985E0,1.081775546E0
1.422611454E2,3.239813328E0,-1.850286484E0,1.193776131E0
1.427611454E2,-2.179075003E0,-9.174184799E-1,-1.040062904E0
1.432611454E2,2.653626442E0,-2.508489609E0,8.709425926E-1
1.437611454E2,-3.482980728E-1,-2.377381325E0,-8.884739876E-1
1.442611454E2,1.623792648E0,-2.552913189E0,5.891191959E-1
1.447611454E2,-2.923603058E-1,-2.630216599E0,5.388194323E-1
1.452611454E2,-3.472139359E0,9.679045677E-1,1.003050566E0
1.457611454E2,1.026933193E-1,3.878562450E0,-1.005721927E0
1.462611454E2,-2.087250710E0,-1.279232025E0,-1.313781738E-1
1.467611454E2,2.161854744E0,2.433299541E0,-4.779064655E-1
1.472611454E2,-8.491864204E-1,-2.715231895E0,3.705894351E-1
1.477611454E2,1.748872995E0,-3.043147087E0,2.012203932E0
1.482611454E2,-3.335428238E-1,-8.267173767E-1,6.301569939E-1
1.487611454E2,1.591123581E0,-2.945555210E0,1.786639214E0
1.492611454E2,-3.071806431E-1,-2.247370720E0,1.050487995E0
1.497611454E2,-3.128614426E-1,9.253010750E-1,3.582619667E0
1.502611454E2,-3.431236744E-1,4.133052826E-1,-6.399536133E-1
1.507611454E2,-2.432217121E0,6.691212654E-1,2.355430126E0
1.512611454E2,2.078143597E0,3.663087368E0,-6.240701675E-1
1.517611454E2,-1.906250238E0,-8.608245850E-1,3.677177429E-2
1.522611454E2,2.485696554E0,2.252193928E0,-3.411116600E-1
1.527611454E2,-8.867168427E-1,-2.375617027E0,-9.702152014E-1
1.532611454E2,1.639439344E0,-1.450495720E0,2.880633593E0
1.537611454E2,-9.680116177E-1,-2.300150871E0,9.128365517E-1
1.542611454E2,1.523066998E0,-3.069835663E0,2.078866959E0
1.547611454E2,1.152992964E0,-3.697299957E-2,4.229329824E-1
1.552611454E2,2.037562847E0,-2.299303055E0,1.345464706E0
1.557611454E2,3.708947897E0,2.994604588E0,-1.228664279E0
1.562611454E2,-3.333363533E-1,-1.459318161E0,2.595272779E0
1.567611454E2,2.390460491E0,3.067497253E0,-1.483194470E0
1.572611454E2,-3.679824352E0,-3.545312881E-1,2.747554779E0
1.577611454E2,-6.628894806E-2,1.301005363E0,1.251407027E0
1.582611454E2,-3.287136316E0,5.993037224E-1,2.643761635E-1
1.587611454E2,1.106494904E0,-3.099772453E0,1.992491126E0
1.592611454E2,-2.393475533E0,-1.723004341E0,-1.091198206E0
1.597611454E2,1.424360752E0,-2.846049786E0,1.405202031E0
1.602611454E2,-1.705854893E0,-2.967429161E0,-5.394638777E-1
1.607611454E2,-1.636553288E0,-1.933736801E0,1.494385719E0
1.612611454E2,3.844654560E-1,-1.166769028E0,1.663595796E0
1.617611454E2,5.564727783E-1,-3.504715919E0,2.198087931E0
1.622611454E2,8.548731804E-1,9.674305916E-1,-3.651899099E-1
1.627611454E2,3.821072578E-1,-9.237365723E-1,4.040405273E0
1.632611454E2,-2.943654060E-1,2.481457233E0,-5.610599518E-1
1.637611454E2,-4.074394226E0,4.374418259E-1,1.034140348E0
1.642611454E2,1.127967358E0,-1.554449081E0,5.423297882E-1
1.647611454E2,-1.093338013E0,6.233263016E-1,2.141172886E-1
1.652611454E2,1.627066135E0,-3.559415817E0,8.953585625E-1
1.657611454E2,8.551235199E-1,-2.220106125E0,1.414864898E0
1.662611454E2,-1.479148865E-2,-1.099672794E0,2.009729385E0
1.667611454E2,6.901273727E-1,-2.123557091E0,5.284500718E-1
1.672611454E2,-3.664601564E0,-2.522587776E-1,1.730015755E0
1.677611454E2,2.236677170E0,1.939078331E0,-8.653675318E-1
1.682611454E2,-4.443851948E0,-1.116148472E0,3.639652491E0
1.687611454E2,1.524275064E0,3.769293785E0,-2.448730230E0
1.692611454E2,-2.733395100E0,-1.800058365E0,-7.424874902E-1
1.697611454E2,8.514440060E-1,7.435245514E-1,1.171948433E0
1.702611454E2,-1.726805449E0,-2.891544342E0,2.540259361E0
1.707611454E2,6.543812752E-1,-1.875598907E0,8.902369142E-1
1.712611454E2,-2.268352509E-1,-5.298423767E-1,-4.051051140E-1
1.717611454E2,2.574549198E0,-1.788933754E0,1.017644167E0
1.722611454E2,1.631995916E0,2.527840137E0,-1.551873565E0
1.727611454E2,6.272063255E-1,-3.319997787E-1,2.899374962E0
1.732611454E2,1.098831773E0,3.281702518E0,-1.255989671E0
1.737611454E2,-1.922574759E0,1.748426914E0,2.373341560E0
1.742611454E2,6.153249741E-1,2.494033813E0,-1.761266351E0
1.747611454E2,-2.717970133E0,-1.396865845E-1,1.112523675E0
1.752611454E2,8.360273838E-1,2.653765202E0,-5.562204123E-1
1.757611454E2,-1.190726757E0,-2.383234978E0,1.493322372E0
1.762611454E2,1.296608448E-1,-5.846242905E-1,1.715093970E0
1.767611454E2,-1.395514846E0,-2.945239067E0,8.543230891E-1
1.772611454E2,1.492737293E0,-2.539336205E0,2.004228115E0
1.777611454E2,8.463103771E-1,-8.977270126E-1,-3.897221088E-1
1.782611454E2,2.790278435E0,-2.045536041E0,4.486148953E-1
1.787611454E2,1.901741028E0,2.077926636E0,-2.823305130E-2
1.792611454E2,3.494820595E-1,-9.233093262E-1,1.071717739E0
1.797611454E2,3.006314754E0,2.852059364E0,-1.041770220E0
1.802611454E2,-3.788411617E0,-7.798991203E-1,2.730994940E0
1.807611454E2,8.645660877E-1,-8.880290985E-1,2.196630478E0
1.812611454E2,-3.227400064E0,-6.812219620E-1,1.722303629E-1
1.817611454E2,2.506637573E0,-2.615422249E0,1.154920578E0
1.822611454E2,-1.318818808E0,-2.011176109E0,-6.039891243E-1
1.827611454E2,2.080529213E0,-1.273464203E0,1.138106942E0
1.832611454E2,-1.135931730E0,-2.337340355E0,5.710645914E-1
1.837611454E2,-6.150774956E-1,4.357461929E-1,2.778513670E0
1.842611454E2,-6.073741913E-1,-5.856599808E-1,-7.050824165E-2
1.847611454E2,-3.190183163E0,3.542575836E-1,2.579807281E0
1.852611454E2,1.483869076E0,2.651556969E0,-1.677815914E-1
1.857611454E2,-2.296495199E0,-4.835071564E-1,1.511067152E-1
1.862611454E2,1.823928475E0,2.328824520E0,-7.433295250E-2
1.867611454E2,-2.642681122E0,3.071856499E-1,2.324433088E0
1.872611454E2,1.663460016E0,-4.958934784E-1,2.127889633E0
1.877611454E2,-2.190047503E0,4.025573730E-1,2.308229923E0
1.882611454E2,2.173081636E0,-2.669034958E0,1.064946175E0
1.887611454E2,-2.665970564E0,-1.460142136E0,-4.446119070E-2
1.892611454E2,2.710159779E0,-1.481873512E0,1.327939510E0
1.897611454E2,-1.395876408E-1,-3.433170319E0,1.029931530E-1
1.902611454E2,-7.300333977E-1,-2.049045563E-1,2.452162266E0
1.907611454E2,1.297953606E0,-1.045180321E0,9.723705053E-1
1.912611454E2,-3.471419573E0,-8.397769928E-2,1.572739840E0
1.917611454E2,1.864556909E0,2.596254826E0,-1.898488998E-1
1.922611454E2,-2.835711241E0,7.925701141E-2,4.990952015E-1
1.927611454E2,1.116823435E0,4.016250134E0,-5.336713791E-2
1.932611454E2,-1.162274122E0,-1.727731705E0,-2.040281296E-1
1.937611454E2,7.037758827E-1,3.095149994E-1,1.421517611E0
1.942611454E2,-4.502911568E-1,-2.683860779E0,5.880897045E-1
1.947611454E2,7.633996010E-1,-2.685939789E0,2.532649517E0
1.952611454E2,4.281685352E-1,-1.130892754E0,1.334170580E0
1.957611454E2,2.378739357E0,-2.460044861E0,1.600701213E0
1.962611454E2,1.028323174E0,2.873102665E0,-1.282685757E0
1.967611454E2,4.150970936E0,6.133337021E-1,2.240715742E0
1.972611454E2,2.980046272E-1,2.340176105E0,4.274160862E-1
1.977611454E2,-3.298744917E0,5.199456215E-1,1.279343605E0
1.982611454E2,1.394486427E0,-1.393220901E0,2.319740295E0
1.987611454E2,-2.267643690E0,1.292762756E-1,8.140069246E-2
1.992611454E2,2.166528463E0,2.992583275E0,-1.132304430E0
1.997611454E2,-8.229315281E-1,-2.746749878E0,-1.391080022E-1
2.002611454E2,8.901562691E-1,-1.880787849E0,2.634155273E0
2.007611454E2,-9.783809185E-1,-2.173399925E0,1.701393962E0
2.012611454E2,2.077085495E0,-2.673447609E0,1.906075954E0
2.017611454E2,1.481354952E0,2.565816402E0,1.102833748E-1
2.022611454E2,1.225073814E0,-7.832126617E-1,2.409168243E0
2.027611454E2,1.678624392E0,3.511586189E0,-4.999526739E-1
2.032611454E2,-3.272842169E0,-3.819022179E-1,2.081274748E0
2.037611454E2,1.875513315E0,-1.586208344E-1,2.037790298E0
2.042611454E2,-3.851385355E0,-1.055822849E0,2.132803679E0
2.047611454E2,2.019011497E0,-2.625161171E0,2.882922173E0
2.052611454E2,-2.499378681E0,-1.233183861E0,7.298150063E-1
2.057611454E2,1.390978336E0,-2.347903252E0,1.361909986E0
2.062611454E2,-2.014414549E0,-2.664474487E0,-4.822012186E-1
2.067611454E2,-1.574298859E0,-8.804502487E-1,1.952834964E0
2.072611454E2,2.501311302E-1,2.475461960E-1,-2.139975071E0
2.077611454E2,-1.286398411E0,1.524099350E0,3.397269726E0
2.082611454E2,-5.563926697E-2,2.853263378E0,-4.997649193E-1
2.087611454E2,-2.497350454E0,-5.852451324E-1,2.540935278E-1
2.092611454E2,3.114913702E0,2.585272312E0,-9.152574539E-1
2.097611454E2,-1.256142378E0,-2.383170128E0,1.195560694E-1
2.102611454E2,1.342929363E0,-1.908427238E0,1.880542278E0
2.107611454E2,-5.259120464E-1,-2.344442368E0,1.406109095E0
2.112611454E2,2.071894646E0,-2.329017639E0,1.434695005E0
2.117611454E2,-1.258589745E0,-2.741565704E-1,-1.399790049E-1
2.122611454E2,2.617538452E0,-9.691581726E-1,8.659579754E-1
2.127611454E2,-7.055656910E-1,-3.309321404E0,1.284457326E0
2.132611454E2,7.397470474E-1,4.738597870E-1,1.521625519E0
2.137611454E2,1.628204584E0,-1.666690826E0,-3.376289606E-1
2.142611454E2,-2.414471626E0,1.514575481E0,2.379008770E0
2.147611454E2,1.977828503E0,2.505564213E0,-6.807270050E-1
2.152611454E2,-1.811772823E0,3.633728027E-1,1.465402842E0
2.157611454E2,3.054098129E0,3.898748875E0,-1.397060633E0
2.162611454E2,-1.426971674E0,-1.081523895E0,-6.624060869E-1
2.167611454E2,1.631317854E0,1.260258675E0,4.908885956E-1
2.172611454E2,-9.245676994E-1,-2.160623550E0,-1.849925518E-1
2.177611454E2,8.632171154E-1,-1.306269646E0,1.685014963E0
2.182611454E2,-1.349699497E0,-2.389005661E0,7.123768330E-3
2.187611454E2,2.404377937E0,-2.791265488E0,2.080615759E0
2.192611454E2,1.037255287E0,6.650581360E-1,7.866724730E-1
2.197611454E2,2.050043583E0,-1.866450310E0,1.598947883E0
2.202611454E2,2.905423641E0,2.863646030E0,-1.030116558E0
2.207611454E2,-1.610435009E0,-7.606534958E-1,2.422527552E0
2.212611454E2,1.692008138E0,1.383324623E0,1.221336603E0
2.217611454E2,-4.357269287E0,-1.515187740E0,2.026435137E0
2.222611454E2,9.697484970E-1,-1.526717186E0,2.558299065E0
2.227611454E2,-3.120446444E0,-9.088115692E-1,5.286152363E-1
2.232611454E2,1.241308212E0,-2.963287354E0,1.510114551E0
2.237611454E2,-1.376058102E0,-1.801738739E0,-8.145275712E-1
2.242611454E2,1.293610573E0,-6.665191650E-1,1.759226680E0
2.247611454E2,-1.082682848E0,-3.078187943E0,6.863439679E-1
2.252611454E2,1.717608929E0,-1.843524933E0,2.318348885E0
2.257611454E2,6.857790947E-1,-1.024740219E0,1.177240014E0
2.262611454E2,3.346126080E0,-2.258911133E0,1.115216970E0
2.267611454E2,7.826910019E-1,1.747666359E0,-2.667438984E-1
2.272611454E2,2.997575283E0,-7.584848404E-1,1.932929754E0
2.277611454E2,2.721106052E0,3.205497265E0,-1.134327412E0
2.282611454E2,-6.403913498E-1,-1.822495461E-1,1.846658349E0
2.287611454E2,2.675963879E0,3.092456341E0,-1.475278378E0
2.292611454E2,-2.992904902E0,-1.252800941E0,2.665883303E0
2.297611454E2,1.165375233E0,-5.285377502E-1,1.504535675E0
2.302611454E2,-3.260181665E0,-1.404199600E-1,2.434933901E0
2.307611454E2,1.100176811E0,-3.398384094E0,2.817701340E0
2.312611454E2,-2.051103354E0,-1.365420341E0,2.656352520E-1
2.317611454E2,7.512483597E-1,-4.239476204E0,1.443737864E0
2.322611454E2,-1.031886816E0,-1.286990166E0,-2.084989548E0
2.327611454E2,-2.181339264E-1,-2.932034492E0,1.641665578E0
2.332611454E2,-5.980563164E-2,-2.071041107E0,-8.709704876E-2
2.337611454E2,-1.492513657E0,-7.928462029E-1,3.219084501E0
2.342611454E2,-4.269363880E-1,-8.803081512E-1,9.914383888E-1
2.347611454E2,-4.312841415E0,-8.877682686E-1,3.330047607E0
2.352611454E2,6.645824909E-1,1.595432281E0,-2.939791679E-1
2.357611454E2,-3.377712965E0,-2.871847153E-1,9.516389966E-1
2.362611454E2,1.988155723E0,3.228162289E0,-9.974579811E-1
2.367611454E2,-2.437908173E0,6.858205795E-2,3.760856390E0
2.372611454E2,8.138427734E-1,8.666610718E-2,1.536323309E0
2.377611454E2,-4.141745567E0,-4.052386284E-1,3.100231409E0
2.382611454E2,1.835714817E0,-2.811810493E0,2.230839252E0
2.387611454E2,-2.288638830E0,-8.143968582E-1,6.670669913E-1
2.392611454E2,2.934998035E0,-2.645102501E0,1.133600593E0
2.397611454E2,-1.875533581E0,-3.032801628E0,-7.541924715E-1
2.402611454E2,2.045397758E0,-1.042626858E0,1.768034935E0
2.407611454E2,1.416153908E-1,-2.740999222E0,8.600067496E-1
2.412611454E2,-1.787862301E0,-4.754433632E-1,1.875186324E0
2.417611454E2,5.507726669E-1,-1.063144684E0,3.301491737E-1
2.422611454E2,-2.973320723E0,3.540420532E-2,3.384314537E0
2.427611454E2,-3.289241791E-1,1.637418270E0,-2.769181728E-1
2.432611454E2,-2.592639685E0,-6.501531601E-2,7.756030560E-1
2.437611454E2,3.864490986E-1,3.407857895E0,-9.427773952E-1
2.442611454E2,-1.594138145E0,-1.304578781E0,-2.091896534E-2
2.447611454E2,8.738615513E-1,1.543050289E0,-5.495349169E-1
2.452611454E2,-7.631502151E-1,-3.631176949E0,-2.256591469E-1
2.457611454E2,1.402024269E0,-2.631439209E0,2.439012527E0
2.462611454E2,-6.527304649E-1,-2.176941872E0,7.693994045E-1
2.467611454E2,2.374885082E0,-2.536030769E0,1.787531376E0
2.472611454E2,1.016056538E0,1.350240231E0,-3.447450399E-1
2.477611454E2,1.737977028E0,-2.091268539E0,1.468713522E0
2.482611454E2,4.336123466E0,3.033741474E0,-1.072209954E0
2.487611454E2,-2.304857731E0,-3.106810570E0,9.454948306E-1
2.492611454E2,6.676225662E-1,-1.153935432E0,1.219093084E0
2.497611454E2,-5.412587643E0,-2.750850677E0,1.907109737E0
2.502611454E2,2.381582975E0,3.247264862E0,-1.182218790E0
2.507611454E2,-3.858182907E0,-7.518339157E-1,2.223147154E-1
2.512611454E2,1.341211677E0,2.957588673E0,-7.000039816E-1
2.517611454E2,-1.674193859E0,-2.860381126E0,-1.231268644E0
2.522611454E2,6.272490025E-1,-1.762365341E0,2.552118540E0
2.527611454E2,-8.603155613E-1,-2.653589249E0,2.734690607E-1
2.532611454E2,1.115305424E0,-3.464724541E0,2.505198717E0
2.537611454E2,8.166646957E-1,1.143751144E-1,3.757395744E-1
2.542611454E2,1.320748329E0,-2.563377380E0,1.456223369E0
2.547611454E2,1.975862861E0,3.773996830E0,-6.054944992E-1
2.552611454E2,-1.153374195E0,-4.326572418E-1,2.331594706E0
2.557611454E2,2.407306433E0,3.083642483E0,4.124375582E-1
2.562611454E2,-1.938647509E0,1.291941166E0,3.072553158E0
2.567611454E2,6.087188721E-1,-9.600610733E-1,1.665098310E0
2.572611454E2,-2.689721584E0,2.803764343E-1,1.731281400E0
2.577611454E2,1.857021332E0,-2.519775391E0,2.487335682E0
2.582611454E2,-2.453837395E0,-1.911290169E0,-1.820090413E-2
2.587611454E2,1.962111950E0,-1.820769310E0,2.323738486E-1
2.592611454E2,-1.175639868E0,-3.038516045E0,2.125264645E0
2.597611454E2,-1.905678749E0,-6.094269753E-1,1.445992589E0
2.602611454E2,6.446516514E-1,-1.226699829E0,7.395521402E-1
2.607611454E2,-4.073987961E0,-4.523081779E-1,2.417443275E0
2.612611454E2,1.604850531E0,1.903906345E0,-3.451285362E-1
2.617611454E2,-3.217961550E0,-8.943071365E-1,9.099129438E-1
2.622611454E2,3.219775677E0,3.508566380E0,-8.285392523E-1
2.627611454E2,-2.360539436E0,-3.607316017E-1,2.601580858E0
2.632611454E2,1.311226130E0,1.147438049E0,7.818238139E-1
2.637611454E2,-4.563312531E0,-9.882564545E-1,2.437266588E0
2.642611454E2,2.744974136E0,-6.130800247E-1,2.457901239E0
2.647611454E2,-2.269003391E0,-4.670972824E-1,1.036633492E0
2.652611454E2,2.057221413E0,-2.901029587E0,1.613048077E0
2.657611454E2,-1.125169516E0,-1.121216774E0,-9.619417191E-1
2.662611454E2,1.419668198E0,-1.861291885E0,1.603521347E0
2.667611454E2,-9.182829857E-1,-2.399625778E0,3.427362740E-1
2.672611454E2,-8.627643585E-1,2.256774902E-2,2.542915821E0
2.677611454E2,-9.743509293E-1,-2.848684311E0,1.441101551E0
2.682611454E2,-2.622616053E0,1.685709953E-1,3.062898874E0
2.687611454E2,2.066308975E0,1.352795601E0,-1.193648934E0
2.692611454E2,-2.298823595E-1,1.086540222E0,1.353178263E0
2.697611454E2,1.290581465E0,2.654811859E0,-2.671704292E-1
2.702611454E2,-2.353529692E0,-5.782852173E-1,1.441572428E0
2.707611454E2,7.848495245E-1,2.406969070E-1,5.957491398E-1
2.712611454E2,-2.127769470E0,-3.424836159E0,8.254740238E-1
2.717611454E2,2.034631252E0,-2.588413239E0,2.419309616E0
2.722611454E2,-5.818634033E-1,2.741527557E-1,-2.825117111E-2
2.727611454E2,3.854855061E0,-1.405400276E0,1.791545391E0
2.732611454E2,6.278457642E-1,2.526150227E0,-1.727581739E0
2.737611454E2,-1.016159058E-1,-1.347986698E0,7.388085127E-1
2.742611454E2,-9.678075314E-1,3.897520065E0,4.855875969E-1
2.747611454E2,1.145795345E0,2.047961712E0,3.399419785E0
2.752611454E2,-8.410835266E-2,7.355108261E-1,1.171610832E0
2.757611454E2,-3.436742306E0,-1.480540276E0,4.790847301E-1
2.762611454E2,2.523352146E0,2.717107773E0,-4.447983503E-1
2.767611454E2,-9.192852974E-1,-2.783542633E0,5.349559784E-1
2.772611454E2,1.201455116E0,-1.688703537E0,1.553331375E0
2.777611454E2,1.818941116E0,-1.772583008E0,2.419840693E-1
2.782611454E2,1.765145779E0,-2.547937393E0,1.120828152E0
2.787611454E2,1.643364906E0,1.780889511E0,-1.342508197E0
2.792611454E2,8.103508949E-1,-1.027606964E0,1.395007372E0
2.797611454E2,8.192679882E-1,3.444009781E0,-1.156864643E0
2.802611454E2,-5.588812828E-1,2.372964859E0,6.046206355E-1
2.807611454E2,1.671126842E0,3.248596191E-2,1.845998764E0
2.812611454E2,-1.455365419E0,1.375747681E0,9.344379306E-1
2.817611454E2,1.436966896E0,-2.532393456E0,1.706440926E0
2.822611454E2,-1.968752384E0,-1.862830162E0,-1.132586241E0
2.827611454E2,1.232589245E0,-2.528477192E0,1.014182091E0
2.832611454E2,-1.513361931E-1,-2.552105904E0,-9.618540406E-1
2.837611454E2,-8.104777336E-1,-1.392657757E0,1.781774521E0
2.842611454E2,-1.446479559E0,-2.276568413E0,9.915978909E-1
2.847611454E2,-2.880380154E0,-3.795366287E-1,2.493206501E0
2.852611454E2,1.541309357E-1,1.236722469E0,-6.372835636E-1
2.857611454E2,-3.759219408E0,-6.777219772E-1,1.637580395E0
2.862611454E2,1.241351366E0,3.110165119E0,-2.830260038E0
2.867611454E2,-3.022816181E0,-1.278202057E0,-5.270090103E-1
2.872611454E2,1.449686766E0,2.588540554E0,-6.925827265E-1
2.877611454E2,-4.443870544E0,-1.238228321E0,2.197191715E-1
2.882611454E2,7.634096146E-1,-5.461359024E-1,1.878246069E0
2.887611454E2,-4.667905807E0,-1.679820061E0,-5.355186462E-1
2.892611454E2,2.035622597E-1,-3.616570473E0,2.957334518E0
2.897611454E2,-3.748365402E0,-1.917958260E0,-5.242618322E-1
2.902611454E2,3.405904770E-1,-4.198214531E0,2.575266361E0
2.907611454E2,-2.382069588E0,-2.034596443E0,-2.504056454E0
2.912611454E2,1.040358543E0,-3.801301003E0,1.096865773E0
2.917611454E2,-2.340714931E0,-1.887313843E0,-1.385162354E0
2.922611454E2,-1.695869923E0,-6.150898457E0,-3.380777240E-1
2.927611454E2,-1.503568888E0,-1.395818710E0,7.580503821E-1
2.932611454E2,-3.625401497E0,-6.281278133E0,1.329635024E0
2.937611454E2,-1.105886936E0,-8.637857437E-1,1.411667466E-1
2.942611454E2,-2.761958122E0,-1.167073727E0,-4.100185037E-1
2.947611454E2,2.485613823E0,1.516237259E-1,2.460435867E0
2.952611454E2,-5.485363007E0,-3.399959087E0,-6.460904479E-1
2.957611454E2,4.673056126E0,2.279631615E0,2.405697584E0
2.962611454E2,-3.699560165E0,-1.463492393E0,-1.068011045E0
2.967611454E2,4.556367874E0,2.562605381E0,8.597775102E-1
2.972611454E2,-2.663369894E0,-2.170766830E0,-2.385154724E0
2.977611454E2,4.229990005E0,9.942102432E-1,3.384620190E0
2.982611454E2,-3.047452450E0,-1.146815300E0,-9.629495144E-1
2.987611454E2,4.349677086E0,-3.624820709E-2,2.786053181E0
2.992611454E2,-4.199833870E0,-4.224491596E0,1.089470863E0
2.997611454E2,5.390163898E0,1.144989014E0,1.184998751E-1
3.002611454E2,-2.773352146E0,-5.038442612E0,-6.493207216E-1
3.007611454E2,5.027482986E0,2.105930328E0,-4.028043747E-1
3.012611454E2,-5.088000298E-1,-2.001539230E0,7.051008940E-1
3.017611454E2,1.558463573E0,-1.141611099E0,6.662424803E-1
3.022611454E2,1.221007347E0,8.427257538E-1,-6.495032907E-1
3.027611454E2,-2.920047998E0,-4.598026276E-1,5.965220928E-1
3.032611454E2,2.182120323E0,-4.679870605E-1,-2.072688341E0
3.037611454E2,2.021398306E0,3.824386597E-1,-1.685889125E0
3.042611454E2,-2.752824783E0,-5.504674911E-1,1.525030136E0
3.047611454E2,6.342034340E-1,4.926204681E-1,-5.345236063E-1
3.052611454E2,-5.275917053E-2,4.252443314E-1,-2.121208012E-1
3.057611454E2,-5.272490978E-1,1.462497711E-1,-8.093160391E-2
3.062611454E2,3.379931450E-1,4.146184921E-1,-1.770344079E-1
3.067611454E2,3.118958473E-1,1.638183594E-1,1.736602187E-1
3.072611454E2,3.646183014E-2,-4.426727295E-1,-8.409236073E-1
3.077611454E2,1.947822094E0,-1.027125359E0,1.785461903E0
3.082611454E2,-1.576440811E0,6.022291183E-1,3.630153537E-1
3.087611454E2,-4.918766022E-2,-2.372936726E0,1.095337629E0
3.092611454E2,-9.845623970E-1,-1.273088455E0,-2.679210663E0
3.097611454E2,1.457681656E0,-1.795958996E0,1.085604072E0
3.102611454E2,-8.965556622E-1,-1.879863739E0,-7.200993896E-1
3.107611454E2,-4.959588051E-1,-1.138498306E0,1.448644876E0
3.112611454E2,-1.272313356E0,-1.373537064E0,-8.145401627E-2
3.117611454E2,-3.293999672E0,-1.352037907E0,2.246926785E0
3.122611454E2,-2.494196892E-1,6.534395218E-1,-1.250994325E0
3.127611454E2,2.139922619E0,-1.839234352E0,2.043714285E0
3.132611454E2,1.163436413E0,1.032854080E0,7.115750313E-1
3.137611454E2,1.662120342E0,-1.491269588E0,8.872121572E-3
3.142611454E2,2.745085716E0,2.112242222E0,1.917068005E0
3.147611454E2,-9.389891624E-1,-2.372881413E0,1.179396808E-1
3.152611454E2,3.421886921E0,2.671010017E0,-5.036565065E-1
3.157611454E2,-4.052127361E0,-2.799921513E0,2.054280043E0
3.162611454E2,1.952141285E0,-1.080760956E-1,1.873505592E0
3.167611454E2,-3.960448027E0,-1.758475304E0,2.270452738E0
3.172611454E2,1.240737200E0,-2.391636848E0,4.007921696E0
3.177611454E2,-2.790101767E0,-1.426151276E0,1.663100839E0
3.182611454E2,1.451632500E0,-3.472350121E0,4.106168747E0
3.187611454E2,-2.477037907E0,-1.471474648E0,5.628979206E-2
3.192611454E2,2.194187164E0,-4.613740921E0,3.175941706E0
3.197611454E2,-2.221304178E0,-1.907072067E0,3.345574737E-1
3.202611454E2,2.551979542E0,-3.273582458E0,3.927357674E0
3.207611454E2,-2.053142548E0,-2.819613457E0,1.050221443E0
3.212611454E2,1.528512955E0,3.977336884E-1,1.295289636E0
3.217611454E2,-5.933740139E-1,-2.591416359E0,3.267157078E0
3.222611454E2,1.304723144E0,1.512828827E0,1.579794168E0
3.227611454E2,-2.175486565E0,-2.484553337E0,1.023775101E0
3.232611454E2,-3.688160181E0,-4.049658775E-1,1.801127195E0
3.237611454E2,2.976183653E0,5.638418198E-1,1.154124379E0
3.242611454E2,-5.013552666E0,-2.399994373E0,1.882896185E0
3.247611454E2,4.540386200E0,8.384857178E-1,6.904125214E-3
3.252611454E2,3.818845749E-2,-3.434752464E0,2.491601229E0
3.257611454E2,1.831622362E0,-2.182911873E0,1.142686605E0
3.262611454E2,-5.421223640E-1,4.823207855E-2,5.905989408E-1
3.267611454E2,-3.049843788E0,-9.962315559E-1,1.813338041E0
3.272611454E2,3.805492640E0,8.812904358E-3,9.924306273E-1
3.277611454E2,-2.160277843E0,-5.659732819E-1,1.403959394E0
3.282611454E2,1.887491703E0,5.470199585E-1,5.446832180E-1
3.287611454E2,-8.738143444E-1,9.983539581E-2,3.892517090E-1
3.292611454E2,5.857577324E-1,3.830318451E-1,5.608187318E-1
3.297611454E2,9.424924850E-2,-2.691459656E-2,6.135249138E-1
3.302611454E2,1.858162880E-1,-2.947740555E-1,3.488379717E-1
3.307611454E2,1.233291626E0,3.763532639E-1,7.977067232E-1
3.312611454E2,6.346082687E-1,8.453159332E-1,1.865627050E0
3.317611454E2,3.866710663E-1,1.930328369E0,2.971798182E-2
3.322611454E2,7.473516464E-1,-1.846724510E0,7.559649348E-1
3.327611454E2,2.328519821E0,2.890281677E0,-1.250961661E0
3.332611454E2,-3.600476742E0,-1.790241241E0,1.196408033E0
3.337611454E2,1.889138222E-1,-1.381842613E0,1.156987429E0
3.342611454E2,-2.908070803E0,-9.704041481E-1,-6.648535728E-1
3.347611454E2,9.944038391E-1,-3.244301796E0,2.997858763E0
3.352611454E2,-2.320660591E0,-2.034487724E0,-7.874094248E-1
3.357611454E2,9.822092056E-1,-1.726294041E0,1.568524480E0
3.362611454E2,-2.707279205E0,-2.257040024E0,6.844450235E-1
3.367611454E2,-2.933237553E0,-2.168033600E0,7.235153913E-1
3.372611454E2,4.241180420E0,3.472581863E0,1.045816183E0
3.377611454E2,-2.909980536E0,2.473831177E-3,3.705382347E-1
3.382611454E2,1.884920120E0,-2.473338127E0,2.476772070E0
3.387611454E2,3.387308121E-2,-2.824157715E0,1.061326563E-1
3.392611454E2,-4.160758018E0,2.189989090E-1,-3.746597171E-1
3.397611454E2,4.532905102E0,3.748345852E0,-1.081940293E0
3.402611454E2,-2.390777111E0,-1.599373817E0,-1.639568925E0
3.407611454E2,4.390599251E0,2.416329861E0,1.622054696E0
3.412611454E2,-3.170484304E0,-3.181797028E0,2.057616234E0
3.417611454E2,6.967338562E0,-2.927561760E0,-1.781594038E0
3.422611454E2,-2.518485546E0,1.573497295E0,-2.792527676E0
3.427611454E2,1.423886299E0,-5.055418015E-1,-1.919501424E-1
3.432611454E2,1.821446180E0,3.364327908E0,-1.845483184E0
3.437611454E2,-2.940885782E0,6.420860291E-1,5.154257417E-1
3.442611454E2,7.090125084E-1,-2.193602562E0,2.165633440E0
3.447611454E2,-2.638039351E0,-9.636020660E-1,-1.561142445E0
3.452611454E2,2.039949894E0,-3.151763916E0,1.151932478E0
3.457611454E2,-1.334081888E0,-3.396232605E0,-1.479600191E0
3.462611454E2,-3.984117508E-2,-2.677209854E0,1.999965906E0
3.467611454E2,9.795665741E-3,-2.780302048E0,1.415894270E0
3.472611454E2,-3.171269417E0,-2.074707508E0,1.132645845E0
3.477611454E2,2.425750256E0,-8.009586334E-1,1.914557934E0
3.482611454E2,-4.757731438E0,-1.276953220E0,1.346788645E0
3.487611454E2,4.367451668E0,3.868121624E0,-1.441320181E0
3.492611454E2,-3.159786224E0,3.491306305E-2,-1.210340858E-1
3.497611454E2,2.280295372E0,4.278113365E0,1.313449621E0
3.502611454E2,-4.843630791E0,-3.834761143E0,-4.255820513E-1
3.507611454E2,1.596125603E0,-2.597226143E0,3.421020031E0
3.512611454E2,-2.697113037E0,-2.469820023E0,-3.907266855E-1
3.517611454E2,9.488210678E-1,-1.079334259E0,2.561547995E0
3.522611454E2,-2.390732765E0,-3.080847740E0,1.550634265E0
3.527611454E2,-2.859325886E0,-1.504527569E0,2.650314331E0
3.532611454E2,5.854644775E-1,-1.256733894E0,1.960172772E0
3.537611454E2,-4.113871574E0,-1.105630875E0,2.389024496E0
3.542611454E2,2.820958853E0,3.794396400E0,-1.505143642E-1
3.547611454E2,-3.197642088E0,-3.625453949E0,-8.225305080E-1
3.552611454E2,2.520337582E0,-2.287426949E0,3.190499783E0
3.557611454E2,-3.438518524E0,-1.111474991E0,1.757413387E0
3.562611454E2,-8.496603966E-1,-1.218144417E0,1.712052464E0
3.567611454E2,3.006040335E0,2.167732239E0,1.608222723E-1
3.572611454E2,-4.606247902E0,-2.237361908E0,2.075566292E0
3.577611454E2,8.858332634E-1,-2.348574638E0,2.738828421E0
3.582611454E2,-2.869051695E0,-3.945779800E-1,1.111624837E0
3.587611454E2,8.733510971E-1,-3.946687698E0,1.506175876E0
3.592611454E2,-1.055039167E0,-2.671079636E0,-1.520805240E0
3.597611454E2,3.685684204E-1,-5.134725571E-1,8.364562392E-1
3.602611454E2,-1.951415420E0,-1.418392181E0,-9.768941402E-1
3.607611454E2,-3.502051592E0,-7.915806770E-1,2.080140829E0
3.612611454E2,2.617880821E0,3.081617832E0,-1.967370749E0
3.617611454E2,-3.150608778E0,1.245658875E0,1.631909728E0
3.622611454E2,-1.275252581E0,1.961642265E0,6.909577250E-1
3.627611454E2,-1.638780355E0,1.366369724E0,2.027686119E0
3.632611454E2,1.120404959E0,6.562385559E-1,3.006350994E-1
3.637611454E2,-3.906318426E0,-2.273082733E-1,2.348263741E0
3.642611454E2,1.042245865E0,-3.254405975E0,2.456877947E0
3.647611454E2,-2.431901455E0,-7.527103424E-1,7.848489285E-2
3.652611454E2,3.098203182E0,-2.277945518E0,1.643577099E0
3.657611454E2,-8.715012074E-1,-2.429784775E0,-1.213983744E-1
3.662611454E2,-1.903986931E-1,-1.121055126E0,5.937199593E-1
3.667611454E2,-2.203467369E0,-2.490328789E0,8.341995478E-1
3.672611454E2,-2.413598061E0,1.101875305E-2,1.537337065E0
3.677611454E2,-4.082839489E-1,1.037339211E0,1.199037671E0
3.682611454E2,-2.999932766E0,4.220113754E-1,1.885935664E0
3.687611454E2,1.660358429E0,3.475078106E0,-1.219314218E0
3.692611454E2,-2.280282497E0,-1.323810577E0,-7.420665026E-1
3.697611454E2,-5.445957184E-3,6.427526474E-1,1.327061772E0
3.702611454E2,-1.234614491E0,-3.097016335E0,-1.308032870E0
3.707611454E2,5.284485817E-1,-3.864736557E0,2.563003063E0
3.712611454E2,3.854644299E-1,-2.463868141E0,8.024457097E-1
3.717611454E2,-1.451725960E-1,-4.907960415E0,1.975735426E0
3.722611454E2,2.976574183E0,5.436487198E-1,1.245628595E0
3.727611454E2,-1.728418827E0,-5.983736038E0,-3.827622235E-1
3.732611454E2,2.515116930E0,3.847544193E0,3.034563065E-1
3.737611454E2,-3.239674091E0,-1.242180824E0,1.096688867E0
3.742611454E2,3.734052181E-1,7.618942261E-1,2.031961679E0
3.747611454E2,-3.796995401E0,-6.686210632E-3,1.801780462E0
3.752611454E2,-9.090847969E-1,-3.917646408E0,2.952775955E0
3.757611454E2,-2.512094498E0,-7.929382324E-1,-1.652470827E-1
3.762611454E2,-3.079919815E-1,2.332308292E0,-3.106796741E-2
3.767611454E2,-4.871895313E-1,-2.452239037E0,-4.605647922E-1
3.772611454E2,-1.071469307E0,-1.029430389E0,2.391211748E0
3.777611454E2,-6.545269489E-1,-3.436255455E0,1.547935963E0
3.782611454E2,1.343868732E0,-4.148329735E0,2.144475698E0
3.787611454E2,1.308524609E0,1.600468636E0,-1.222694159E0
3.792611454E2,7.760190964E-1,-2.154973984E0,1.774838448E0
3.797611454E2,2.609238863E0,3.359768391E0,-1.660780072E0
3.802611454E2,-3.256269693E0,-6.721014977E-1,2.066740036E0
3.807611454E2,1.787415266E0,1.657530785E0,4.850157499E-1
3.812611454E2,-2.457068920E0,1.433367252E0,7.857719660E-1
3.817611454E2,-7.076263428E-2,-3.174473763E0,2.401219845E0
3.822611454E2,-2.837421417E0,-1.503241539E0,2.816770971E-1
3.827611454E2,2.107738972E0,-1.432565689E0,1.718533039E0
3.832611454E2,-1.453916073E0,-2.834621429E0,2.942736387E0
3.837611454E2,-1.139502525E-1,-6.553745270E-1,8.078359962E-1
3.842611454E2,1.120163918E0,-1.087370872E0,2.008125782E0
3.847611454E2,-1.749653816E0,4.515390396E-1,2.174341440E0
3.852611454E2,1.806598425E0,2.218370438E0,-4.818341732E-1
3.857611454E2,-2.969893932E0,-8.354377747E-2,2.045781612E0
3.862611454E2,1.758944988E-1,3.368557930E0,-2.469084263E0
3.867611454E2,-3.400781155E0,-1.709862709E0,2.294829369E0
3.872611454E2,6.833300591E-1,7.438697815E-1,2.784705758E-1
3.877611454E2,-7.030978203E-1,-2.968596458E0,2.283246994E0
3.882611454E2,3.357311487E0,-1.225219727E0,9.439063072E-1
3.887611454E2,-2.340203285E0,-4.438257217E-1,2.556923866E0
3.892611454E2,2.602306843E0,-2.627912521E0,1.367466599E-1
3.897611454E2,-1.732872486E0,-2.209136009E0,-6.432452202E-1
3.902611454E2,3.382720947E0,-1.021745682E0,8.808095455E-1
3.907611454E2,-7.766401768E-1,-2.638977051E0,9.095491171E-1
3.912611454E2,-4.382896423E-1,-5.437564850E-2,1.926106334E0
3.917611454E2,-9.591126442E-2,-7.073860168E-1,-1.873826981E-2
3.922611454E2,-2.538404942E0,4.232182503E-1,2.122659206E0
3.927611454E2,9.896388054E-1,2.104731083E0,-7.942336798E-1
3.932611454E2,-3.071091175E0,-5.806369781E-1,1.272841692E0
3.937611454E2,3.163125515E0,3.447510242E0,-2.116848707E0
3.942611454E2,-1.788739920E0,-1.386165619E0,-1.438718438E-1
3.947611454E2,2.653924465E0,1.208224297E0,1.303032279E0
3.952611454E2,-1.328683615E0,-2.302419662E0,-4.750124216E-1
3.957611454E2,1.751833916E0,-7.140197754E-1,1.960332155E0
3.962611454E2,-1.218288660E0,-2.228883743E0,1.330556154E0
3.967611454E2,2.642500877E0,-2.574127197E0,1.312875271E0
3.972611454E2,1.192053318E0,1.588438511E0,8.926554918E-1
3.977611454E2,2.029637337E0,-1.645607471E0,2.179361820E0
3.982611454E2,1.872864246E0,3.838316441E0,-2.162159681E0
3.987611454E2,-1.075493336E0,3.881039619E-1,4.112895966E0
3.992611454E2,1.351577997E0,3.526115417E-1,2.683626652E0
3.997611454E2,-2.428772926E0,2.276549339E-1,2.373061657E0
4.002611454E2,1.749728441E0,-2.783213615E0,1.917073011E0
4.007611454E2,-1.733295918E0,-1.045785904E0,-1.895095229E0
4.012611454E2,1.183065176E0,1.444972992E0,1.504804373E0
4.017611454E2,-1.816192865E0,-3.511980057E0,1.229836464E0
4.022611454E2,1.418749809E0,-1.773808479E0,4.170408726E0
4.027611454E2,3.312311172E-1,-1.468502998E0,2.482212305E0
4.032611454E2,2.084933758E0,-2.992352962E0,2.366462708E0
4.037611454E2,1.013178825E-1,2.097787380E0,-1.090994954E0
4.042611454E2,1.902452946E0,-3.169922829E-1,4.036851883E0
4.047611454E2,2.289186954E0,3.791209698E0,4.478073120E-2
4.052611454E2,-1.350098610E0,1.567534447E0,3.115273714E0
4.057611454E2,2.003924847E-1,-3.615570068E-1,1.519107103E0
4.062611454E2,-3.160531044E0,5.988726616E-1,1.639913082E0
4.067611454E2,2.177889347E0,-3.914390564E0,3.061147690E0
4.072611454E2,-2.229211807E0,-3.441997528E0,1.802185059E0
4.077611454E2,8.148469925E-1,-1.544755459E0,2.634833097E0
4.082611454E2,-2.285081387E0,-3.426489830E0,5.339368582E-1
4.087611454E2,-2.536900043E0,-1.161017895E0,2.047348022E0
4.092611454E2,1.138496161E0,1.162986755E-1,1.745687604E0
4.097611454E2,-3.315517426E0,-1.707578182E0,3.769950867E0
4.102611454E2,1.413740873E0,3.120682240E0,-1.366139174E0
4.107611454E2,-3.442923069E0,-2.499300957E0,-2.146829367E-1
4.112611454E2,1.876407385E0,1.465126514E0,1.308660507E0
4.117611454E2,-3.682964325E0,-4.128935337E0,1.238491684E-1
4.122611454E2,2.093109131E0,-1.382662773E0,4.284782410E0
4.127611454E2,-5.869493484E-1,-1.854832649E0,2.093545675E0
4.132611454E2,2.771896839E0,-3.274785995E0,1.937132359E0
4.137611454E2,-6.142287254E-1,-2.460361481E0,1.034997404E-1
4.142611454E2,1.521433353E0,-2.087450981E0,2.526690960E-1
4.147611454E2,-1.303581834E0,-2.581126213E0,2.174314857E-1
4.152611454E2,-1.999657154E0,-2.623008251E0,1.408477545E0
4.157611454E2,2.961043835E0,-8.866119385E-1,1.536318898E0
4.162611454E2,-4.900810242E0,-1.456696033E0,1.366972923E0
4.167611454E2,2.580022812E0,1.548342705E0,1.443604231E-1
4.172611454E2,-4.646203995E0,-1.218627453E0,1.813256741E0
4.177611454E2,3.927834034E0,3.694192410E0,-1.161471963E0
4.182611454E2,-2.168747663E0,-1.660000801E0,-1.826291084E-1
4.187611454E2,2.388016701E0,1.371591568E0,1.141860843E0
4.192611454E2,-1.480952978E0,-2.791275978E0,1.868041754E-1
4.197611454E2,1.570098877E0,-3.884659767E0,3.337161303E0
4.202611454E2,-1.385326385E-1,-1.522912979E-1,-1.506575704E0
4.207611454E2,2.797503471E-1,-2.954874992E0,3.598628521E0
4.212611454E2,1.651477098E0,3.289441109E0,-9.615550041E-1
4.217611454E2,-2.776117325E0,-2.375464439E-1,1.618748069E0
4.222611454E2,7.172250748E-1,-9.781837463E-2,1.790352583E0
4.227611454E2,-4.794633389E0,-1.832653999E0,1.153379083E0
4.232611454E2,1.180122852E0,-3.530888557E0,3.176383495E0
4.237611454E2,-3.473134995E0,-2.445536613E0,-1.483785152E0
4.242611454E2,1.474161148E-1,-2.557073593E0,9.042837620E-1
4.247611454E2,-3.126631737E0,-2.720736504E0,5.787151456E-1
4.252611454E2,-2.484759808E0,1.764307022E-1,2.721317053E0
4.257611454E2,4.591802359E-1,2.261713028E0,-9.462933540E-1
4.262611454E2,-1.006642342E0,4.690742493E-1,8.659938574E-1
4.267611454E2,9.463999271E-1,2.060596466E0,2.789435387E-1
4.272611454E2,-5.009374142E0,-7.524261475E-1,2.964339256E-1
4.277611454E2,5.602889061E-1,-3.091466904E0,1.965723753E0
4.282611454E2,-2.533226013E0,-2.267991066E0,-2.835651398E0
4.287611454E2,-2.551507950E-2,-2.458936691E0,9.447145462E-1
4.292611454E2,-1.383705139E-1,-2.797034264E0,-1.190164804E0
4.297611454E2,-4.503495216E0,-2.843435287E0,8.585711718E-1
4.302611454E2,1.972778916E0,-8.587837219E-2,5.970734358E-1
4.307611454E2,-5.011786461E0,-4.811437130E0,1.770396709E0
4.312611454E2,3.178183794E0,3.702429295E0,-1.327958345E0
4.317611454E2,-2.812351704E0,-4.831970215E0,-1.043231606E0
4.322611454E2,1.064539433E0,-8.921680450E-1,1.236120224E0
4.327611454E2,-1.426205635E0,-2.159726143E0,1.598139644E0
4.332611454E2,1.507061958E0,-3.577246666E0,1.546325564E0
4.337611454E2,-3.897640705E-1,3.066887379E0,-2.440827370E0
4.342611454E2,-1.412106991E0,-6.525225639E-1,1.699394345E0
4.347611454E2,3.105874062E-1,1.902999401E0,-1.343002319E-1
4.352611454E2,-3.506650686E0,-2.559533119E-1,1.998003125E0
4.357611454E2,2.547145367E0,-1.186963081E0,1.252818108E0
4.362611454E2,-2.252315283E0,-1.934830666E0,3.705943108E0
4.367611454E2,1.798603058E0,-1.857293129E0,1.290101051E0
4.372611454E2,-5.904459953E-1,-3.405426979E0,1.960338235E0
4.377611454E2,-3.778243065E-1,4.274153709E-1,3.104985952E0
4.382611454E2,-1.592659950E-2,9.075164795E-2,4.276342392E-1
4.387611454E2,2.684971333E0,-1.710964203E0,1.876834273E0
4.392611454E2,1.526318789E0,2.890245438E0,-1.844520926E0
4.397611454E2,-2.363257408E0,9.590463638E-1,2.130635023E0
4.402611454E2,9.064991474E-1,-7.200269699E-1,1.669642568E0
4.407611454E2,-1.326008916E0,2.060413361E-2,2.583173215E-1
4.412611454E2,2.070108414E0,-2.113011360E0,1.351588368E-1
4.417611454E2,-1.541130304E0,-3.397189140E0,2.672629058E-1
4.422611454E2,1.628475189E-1,7.060589790E-1,1.867842674E0
4.427611454E2,5.681324005E-2,-5.085992813E-1,2.439912558E-1
4.432611454E2,-3.180703640E0,5.461139679E-1,1.469572783E0
4.437611454E2,2.158490181E0,3.239663601E0,-8.193366528E-1
4.442611454E2,-2.850240707E0,-1.776594162E0,-2.448830605E0
4.447611454E2,1.092247248E0,9.349031448E-1,5.221102238E-1
4.452611454E2,-2.641986847E0,-3.444883347E0,1.551210880E-2
4.457611454E2,1.845617294E-1,-2.830074310E0,7.655632496E-1
4.462611454E2,1.853141785E-1,5.087394714E-1,8.113884330E-1
4.467611454E2,1.128587723E-1,-2.200916767E0,4.106004834E-1
4.472611454E2,1.540602207E0,2.816653252E0,-1.066859484E0
4.477611454E2,-3.254902601E0,4.485359192E-1,1.594951987E0
4.482611454E2,-3.974816799E-1,-1.426315308E-2,1.243571162E0
4.487611454E2,-2.361113787E0,-6.444940567E-1,-2.195612192E0
4.492611454E2,9.078626633E-1,-3.113592148E0,2.028097630E0
4.497611454E2,-1.959162235E0,-2.993120193E0,-2.335356772E-1
4.502611454E2,-1.215126991E0,3.104176521E-1,2.077462912E0
4.507611454E2,1.248908043E-2,-4.156303406E-2,-6.181354523E-1
4.512611454E2,-2.107917070E0,7.179059982E-1,2.430286705E-1
4.517611454E2,-8.137911558E-1,2.095647812E0,-2.082822323E-1
4.522611454E2,-2.450687408E0,1.588365555E0,1.898009062E0
4.527611454E2,6.867861748E-2,-1.173360825E0,2.125147104E0
4.532611454E2,-2.250420570E0,-5.510330200E-1,7.091867924E-2
4.537611454E2,1.328356743E0,-2.887338638E0,1.100588441E0
4.542611454E2,-5.573270321E-1,-2.971280098E0,-7.053503394E-1
4.547611454E2,-6.478950977E-1,5.608272552E-1,1.323608398E0
4.552611454E2,-1.340151668E0,-6.579437256E-1,-1.529429555E0
4.557611454E2,-3.987808704E0,7.509899139E-1,1.829771161E0
4.562611454E2,1.157171011E0,3.628277779E0,-1.360074282E0
4.567611454E2,-2.661356211E0,-2.048222542E0,-3.936086893E-1
4.572611454E2,4.242537022E-1,1.717157364E-1,1.554637074E0
4.577611454E2,-9.363300800E-1,-3.045906067E0,5.610764027E-1
4.582611454E2,2.389676571E0,-2.424507141E0,1.007556558E0
4.587611454E2,1.369191647E0,2.230900764E0,-1.209407568E0
4.592611454E2,9.159975052E-1,-1.300618172E0,1.253732681E0
4.597611454E2,2.007331371E0,3.328536510E0,-2.280874252E-1
4.602611454E2,-2.624736309E0,1.933636665E-1,1.033491135E0
4.607611454E2,2.480408192E0,-7.358779907E-1,1.187568069E0
4.612611454E2,-2.936008215E0,-1.373846054E0,2.923653126E-1
4.617611454E2,1.576884747E0,-3.506517410E0,9.570401907E-1
4.622611454E2,-1.007273197E-1,-1.862692833E0,-1.814980149E0
4.627611454E2,-9.636230469E-1,-3.377302170E0,8.186932206E-1
4.632611454E2,1.235667109E0,-9.559926987E-1,2.853620052E-1
4.637611454E2,-3.637503862E0,5.580234528E-1,-1.789097339E-1
4.642611454E2,2.121292114E0,3.577474117E0,-5.444264412E-2
4.647611454E2,-2.213901520E0,-8.926639557E-1,2.119811535E0
4.652611454E2,1.406792164E0,1.149419785E0,1.754935026E0
4.657611454E2,-5.122992039E0,-7.285709381E-1,-2.137656212E-1
4.662611454E2,1.488955021E0,-2.081690788E0,2.493029118E0
4.667611454E2,-1.822704554E0,-2.284437180E0,1.163014054E0
4.672611454E2,2.553583622E0,-3.302812576E-1,1.198570967E0
4.677611454E2,-2.471854687E-1,-2.988823891E0,2.248453379E0
4.682611454E2,-3.665025711E0,-1.020390987E0,2.510296583E0
4.687611454E2,3.561072111E0,1.744250774E0,-9.865164757E-2
4.692611454E2,-3.011138439E0,-7.283544540E-1,-7.144672871E-1
4.697611454E2,2.629178047E0,3.071827412E0,-1.419534683E-1
4.702611454E2,-2.010055542E0,-3.157204628E0,-2.100243092E0
4.707611454E2,9.441919327E-1,-2.285242081E0,2.607032299E0
4.712611454E2,-7.714941502E-1,-1.009799004E0,1.412387490E0
4.717611454E2,1.916462898E0,-2.999155998E0,4.994158149E-1
4.722611454E2,-5.480749607E-1,3.501873970E0,-2.258356571E0
4.727611454E2,-2.101006508E-1,2.673892975E-1,4.160036564E0
4.732611454E2,8.052828312E-1,1.659111977E0,7.707452774E-1
4.737611454E2,-3.440550804E0,4.383802414E-1,2.033277988E0
4.742611454E2,2.520504951E0,-2.765471458E0,2.527544737E0
4.747611454E2,-2.070871115E0,-1.251196861E0,4.494594336E-1
4.752611454E2,2.319372654E0,-2.253729820E0,1.705104470E0
4.757611454E2,-1.288650274E0,-3.177703857E0,2.194773197E0
4.762611454E2,-5.921969414E-1,3.409199715E-1,3.306048870E0
4.767611454E2,1.678943157E0,4.399394989E-1,6.541562080E-1
4.772611454E2,1.611837387E0,-1.676526070E0,1.450327277E0
4.777611454E2,2.144548893E0,4.178459644E0,-1.990394950E0
4.782611454E2,-2.627393723E0,9.595746994E-1,2.873366833E0
4.787611454E2,3.344526291E-1,-1.920317650E0,1.802125335E0
4.792611454E2,-1.781689644E0,-1.173726082E0,2.477286577E0
4.797611454E2,1.699768543E0,-2.358160973E0,-6.660811305E-1
4.802611454E2,-1.047353745E-1,-3.238441467E0,2.371989787E-1
4.807611454E2,1.327466965E-1,-9.966688156E-1,2.009368658E0
4.812611454E2,2.265033722E-1,-9.796142578E-2,1.459200382E0
4.817611454E2,-2.924263716E0,7.702660561E-1,1.850842237E0
4.822611454E2,2.481344223E0,4.458630085E0,-1.256598592E0
4.827611454E2,-9.154977798E-1,-2.549209595E-1,-6.288212538E-2
4.832611454E2,2.267879009E0,2.562921047E0,1.273237467E-1
4.837611454E2,-7.720742226E-1,-3.211226463E0,9.705086946E-1
4.842611454E2,2.612378120E0,-1.541059494E0,2.564726353E0
4.847611454E2,3.338060379E-1,-1.120376587E0,2.439752579E0
4.852611454E2,1.533363819E0,-2.980896950E0,8.757140636E-1
4.857611454E2,1.520882845E0,3.987467289E0,-1.361590981E0
4.862611454E2,-2.106840611E0,-7.138977051E-1,1.705657005E0
4.867611454E2,2.436231613E0,3.103952408E-1,1.497173548E0
4.872611454E2,-3.018453836E0,-1.212766647E0,3.782278895E-1
4.877611454E2,1.909096241E0,-2.948952675E0,2.668355465E0
4.882611454E2,-2.229434967E0,-3.248380661E0,-2.917768359E-1
4.887611454E2,-2.836835861E0,-2.147388935E0,2.858744264E-1
4.892611454E2,4.408848286E-1,2.580080032E-1,-1.514419079E0
4.897611454E2,2.278569221E0,-1.596225739E0,5.180881619E-1
4.902611454E2,2.989841461E0,3.257416248E0,1.016858220E-1
4.907611454E2,-3.333326340E0,1.665588856E0,5.294339657E-1
4.912611454E2,3.993844986E-1,-4.312200546E-1,2.558022976E0
4.917611454E2,-3.342170000E0,-1.266758919E0,-4.367995262E-2
4.922611454E2,2.422127247E0,-3.215008736E0,1.037579179E0
4.927611454E2,-2.030773401E0,-3.412226677E0,-3.523663282E-1
4.932611454E2,-1.171260357E0,-7.482881546E-1,2.430721521E0
4.937611454E2,-1.184424639E0,-1.025841713E0,-2.262260914E-1
4.942611454E2,-3.096673012E0,5.951404572E-1,-2.903095782E-1
4.947611454E2,2.490465403E0,3.876139641E0,-1.675774574E0
4.952611454E2,-1.889417410E0,-2.120187759E0,-4.738134742E-1
4.957611454E2,3.113981962E0,1.365749359E0,2.837488651E0
4.962611454E2,-7.108702660E-1,-2.220613480E0,1.112656832E0
4.967611454E2,3.083126545E0,-2.224632263E0,5.707966089E-1
4.972611454E2,2.767182827E0,2.824790478E0,-1.226220846E0
4.977611454E2,1.233286858E-1,-7.004046440E-1,8.071385622E-1
4.982611454E2,3.901485920E0,2.833859921E0,-1.652470231E-2
4.987611454E2,-3.903406620E0,-2.463694572E0,2.382169247E0
4.992611454E2,2.672277451E0,-1.595056534E0,2.526344061E0
4.997611454E2,-2.590062380E0,-1.692288399E0,-1.896016002E-1
5.002611454E2,3.054595470E0,-1.307043076E0,1.134548545E0
5.007611454E2,-8.018171787E-1,-2.591541290E0,1.878115654E0
5.012611454E2,-1.256241798E-1,-8.401775360E-2,1.201713443E0
5.017611454E2,-1.005361319E0,-5.363473892E-1,1.896589994E-2
5.022611454E2,3.354732037E0,-4.364452362E-1,1.479497433E0
5.027611454E2,2.514026403E0,4.439597607E0,-2.484499693E0
5.032611454E2,1.395282745E-1,-2.222533226E-1,1.837096453E0
5.037611454E2,3.495133877E0,2.937284946E0,1.413730383E0
5.042611454E2,-2.758070469E0,-1.393370628E0,3.532090783E-1
5.047611454E2,3.596340179E0,8.582153320E-1,2.418904066E0
5.052611454E2,-2.038463116E0,-1.439658165E0,6.986258030E-1
5.057611454E2,3.478833199E0,-1.809476852E0,2.249149799E0
5.062611454E2,-1.773266077E0,-2.773321152E0,2.511606812E-1
5.067611454E2,1.649654865E0,-1.089806080E0,1.220029354E0
5.072611454E2,-1.699051738E0,-1.768668175E0,2.070284188E-1
5.077611454E2,-2.006156445E0,-1.573162079E0,2.807432890E0
5.082611454E2,-7.195029259E-1,2.831220627E-1,7.902488708E-1
5.087611454E2,-3.524896622E0,-1.273492813E0,1.296007872E0
5.092611454E2,2.393538475E0,2.606627464E0,3.448891640E-2
5.097611454E2,-3.619501114E0,-2.928787708E0,1.343556881E0
5.102611454E2,2.920876026E0,2.848901272E0,-2.490971088E-1
5.107611454E2,-2.134839058E0,-3.835391045E0,-4.864150286E-1
5.112611454E2,1.111781120E0,-2.310861588E0,3.545513153E0
5.117611454E2,-6.561083794E-1,7.323284149E-1,1.060225129E0
5.122611454E2,1.522949219E0,-6.828994751E-1,5.199380875E0
5.127611454E2,2.729697943E0,2.613721371E0,6.139241457E-1
5.132611454E2,-5.253857613E0,-2.805016994E0,1.955856681E0
5.137611454E2,1.208693504E0,-1.420470238E0,2.447961807E0
5.142611454E2,-3.323166609E0,-2.242793083E0,-4.041064382E-1
5.147611454E2,3.237404108E0,2.635792732E0,1.339226961E-1
5.152611454E2,-9.973824024E-1,-1.991303444E0,-1.230335593E0
5.157611454E2,2.254292727E0,1.144691467E0,2.493081570E0
5.162611454E2,-8.584972620E-1,-2.471375465E0,-7.011377811E-1
5.167611454E2,1.338984966E0,-2.614871025E0,3.001192093E0
5.172611454E2,-1.599661112E-1,3.266735077E-1,9.813524485E-1
5.177611454E2,9.132246971E-1,-1.904093742E0,9.791964889E-1
5.182611454E2,3.042219162E0,3.437239647E0,-1.669735789E0
5.187611454E2,-1.629819870E0,-4.111728668E-1,5.520480275E-1
5.192611454E2,2.316745996E0,2.222552776E0,6.433985233E-1
5.197611454E2,-4.770122528E0,-1.023910046E0,9.366456866E-1
5.202611454E2,1.390534163E0,-1.663323402E0,2.120615005E0
5.207611454E2,-3.305066109E0,-1.919677734E0,-3.676758707E-1
5.212611454E2,1.936398506E0,-2.496807098E0,9.723475575E-1
5.217611454E2,-1.772679090E0,-2.434644699E0,-9.583562016E-1
5.222611454E2,3.049468994E-1,-6.111097336E-1,1.528028965E0
5.227611454E2,-5.375485420E-1,-2.063184738E0,6.566920877E-2
5.232611454E2,-3.329909086E0,-9.086847305E-2,2.552896023E0
5.237611454E2,8.071529865E-1,2.230966568E0,-5.445019007E-1
5.242611454E2,-1.944529772E0,1.673040390E-1,8.752816916E-2
5.247611454E2,1.293654680E0,3.068359375E0,-2.299492836E0
5.252611454E2,-1.523592949E0,-2.487607002E0,-1.849506378E0
5.257611454E2,1.541052818E0,-4.397897720E-1,1.596355438E0
5.262611454E2,-8.574154377E-1,-2.115009308E0,2.803539932E-1
5.267611454E2,8.883285522E-1,-3.686997414E0,2.325337172E0
5.272611454E2,-2.153094053E0,-2.402948380E0,-1.497920275E0
5.277611454E2,-8.838562965E-1,-2.344552994E0,1.805147290E0
5.282611454E2,-3.071899414E-1,-1.360939980E0,7.000084519E-1
5.287611454E2,-3.679008484E0,-1.041932583E0,2.191846848E0
5.292611454E2,2.449574947E0,3.331795216E0,-1.406076193E0
5.297611454E2,-2.211544037E0,-2.101090431E0,1.794160008E-1
5.302611454E2,1.760810852E0,1.781101227E-1,9.344153404E-1
5.307611454E2,-1.399327159E0,-2.625960350E0,9.459786415E-1
5.312611454E2,1.026389599E0,-3.488138199E0,2.831278801E0
5.317611454E2,7.791328430E-1,1.140146255E0,9.555314779E-1
5.322611454E2,3.666262627E-1,-1.725600243E0,1.862208247E0
5.327611454E2,3.863206863E0,3.109828472E0,-1.191712618E0
5.332611454E2,-3.778104305E0,-1.648955345E0,9.697927833E-1
5.337611454E2,1.688892365E0,-1.468482971E0,3.659706116E0
5.342611454E2,-3.717818975E0,-1.808988094E0,1.335239172E0
5.347611454E2,1.305664062E0,-3.131578445E0,3.052943468E0
5.352611454E2,-3.169051170E0,-2.958935738E0,-8.359438777E-1
5.357611454E2,1.376123905E0,-2.440325737E0,2.674444675E0
5.362611454E2,-1.695543647E0,-1.833602905E0,2.315056920E-1
5.367611454E2,-1.946031094E0,-2.434754372E0,4.630832672E0
5.372611454E2,8.155977726E-2,-7.579593658E-1,4.937286377E-1
5.377611454E2,-4.578587532E0,-1.824236393E0,-3.210663795E-2
5.382611454E2,4.352010250E0,4.276656628E0,4.310249329E0
5.387611454E2,1.066621065E0,2.243705273E0,7.222409248E-1
5.392611454E2,-2.925311565E0,4.862236977E-1,-1.150755286E-1
5.397611454E2,2.199615002E0,-2.998378754E0,7.953119874E-1
5.402611454E2,-2.444385052E0,-4.117864609E0,-2.106118917E0
5.407611454E2,-2.346506119E-1,-5.088465214E0,1.238870144E0
5.412611454E2,7.211937904E-1,3.579941273E0,-1.797571778E0
5.417611454E2,-1.370238781E0,1.655375957E0,5.988092422E-1
5.422611454E2,-9.342930317E-1,-1.004089355E0,3.324541569E0
5.427611454E2,-2.714847803E0,-2.027645111E-1,7.845171690E-1
5.432611454E2,2.317603588E0,-2.483682632E0,3.083776474E0
5.437611454E2,-2.994837046E0,-2.843876839E0,-7.221007347E-2
5.442611454E2,2.193897247E0,-1.812703133E0,1.960243702E0
5.447611454E2,-2.277885914E0,-2.229615211E0,7.916240692E-1
5.452611454E2,-1.820252895E0,-3.295031071E0,4.343148232E0
5.457611454E2,-1.720633507E-1,-1.301776886E0,1.193515539E0
5.462611454E2,-3.928433657E0,-1.078809738E0,2.950631618E0
5.467611454E2,-8.373322487E-1,2.225615978E0,-4.044582844E-1
5.472611454E2,-3.940362692E0,-1.645030499E0,1.385209560E0
5.477611454E2,1.891715527E0,3.800787449E0,-1.534223557E0
5.482611454E2,-1.560966492E0,-1.663087845E0,-5.672048926E-1
5.487611454E2,2.071130991E0,1.104271889E0,5.915132165E-1
5.492611454E2,-1.615156412E0,-3.521094322E0,1.604501724E0
5.497611454E2,4.034166336E-1,-2.114031792E0,1.829578042E0
5.502611454E2,-3.112447500E0,-3.739510536E0,-1.700207144E-1
5.507611454E2,2.609335423E0,-2.744675636E0,2.202940941E0
5.512611454E2,-1.530853271E0,-1.490724087E0,4.093304873E-1
5.517611454E2,3.641569853E0,-2.275517464E0,2.355508327E0
5.522611454E2,-1.762072325E0,-2.295066833E0,8.793606758E-1
5.527611454E2,3.108791828E0,-2.578395844E0,1.849134207E0
5.532611454E2,-2.622157335E0,-8.928260803E-1,3.957192004E-1
5.537611454E2,1.718872786E0,-2.357203484E0,2.968784094E0
5.542611454E2,-2.969384670E0,-2.851600647E-1,1.095505238E0
5.547611454E2,2.864797115E0,-1.266877174E0,1.764498115E0
5.552611454E2,-3.630249500E0,-6.734304428E-1,2.889833689E0
5.557611454E2,2.415930271E0,5.159664154E-2,5.672888756E-1
5.562611454E2,-1.782070875E0,-1.505646706E0,2.899176598E0
5.567611454E2,3.303090572E0,1.008527756E0,-5.579984188E-1
5.572611454E2,2.299870968E0,4.270076752E-2,2.549312353E0
5.577611454E2,-1.067447186E0,8.100385666E-1,-2.049231052E0
5.582611454E2,2.293200254E0,8.129405975E-1,-1.113513708E0
5.587611454E2,-8.034160137E-1,5.413055420E-2,-2.943192720E-1
5.592611454E2,9.678699970E-1,6.499662399E-1,2.043895721E-1
5.597611454E2,-2.339658737E-1,2.062845230E-1,-5.924341679E-1
5.602611454E2,5.901548862E-1,4.124097824E-1,1.461002976E-1
5.607611454E2,4.922699928E-2,9.825134277E-2,-1.101642847E-2
5.612611454E2,1.151847839E-2,5.924606323E-2,-1.326248050E-3
5.617611454E2,-9.042739868E-2,3.815650940E-3,1.651869714E-2
5.622611454E2,4.989433289E-2,-5.005359650E-2,-6.932906806E-2
5.627611454E2,-1.329183578E-2,-4.017162323E-2,2.274326235E-2
5.632611454E2,-3.084373474E-2,8.955001831E-3,-3.652271628E-2
5.637611454E2,4.468488693E-2,1.821041107E-2,1.131600961E-1
5.642611454E2,-4.236173630E-2,-3.416061401E-3,5.135983229E-4
5.647611454E2,-1.508569717E-2,-1.416492462E-2,-5.308821797E-3
5.652611454E2,2.686023712E-2,1.392173767E-2,-2.943278849E-2
5.657611454E2,8.203554153E-2,2.149868011E-2,6.572291255E-3
5.662611454E2,-6.725740433E-2,-4.919433594E-2,-1.299214065E-1
5.667611454E2,7.769584656E-3,3.308677673E-2,2.106307447E-2
5.672611454E2,6.592035294E-2,3.278064728E-2,7.937834412E-2
5.677611454E2,1.063203812E-1,2.279758453E-2,4.467961192E-2
5.682611454E2,-5.910444260E-2,-4.025459290E-2,-1.312142015E-1
5.687611454E2,-7.428503036E-2,-2.575874329E-2,-8.475178480E-2
5.692611454E2,-1.281690598E-2,-1.426315308E-2,-2.987247705E-2
5.697611454E2,-6.770610809E-3,-1.808738708E-2,-2.724832296E-2
5.702611454E2,3.497123718E-3,1.462268829E-2,8.175730705E-3
5.707611454E2,2.084016800E-2,7.613182068E-3,-1.217620969E-1
5.712611454E2,-1.506805420E-3,-4.332542419E-3,2.083760500E-2
5.717611454E2,-2.607011795E-2,-2.074241638E-3,-3.948330879E-3
5.722611454E2,1.567888260E-2,9.194374084E-3,-4.583388567E-2
5.727611454E2,1.293644905E-1,4.250240326E-2,9.783446789E-3
5.732611454E2,2.736608982E-1,6.375026703E-2,-3.581954241E-1
5.737611454E2,1.473811626E0,4.474859238E-1,-2.720522881E-1
5.742611454E2,-1.926211715E0,-5.311231613E-1,4.064481258E-1
5.747611454E2,1.017121315E0,2.740711689E0,-1.101714969E0
5.752611454E2,-3.155102253E0,-2.696333408E0,5.969462395E-1
5.757611454E2,2.841951847E0,6.548862457E-1,-8.445763588E-2
5.762611454E2,-2.431061983E0,-3.057439804E0,-2.568309009E-1
5.767611454E2,1.818922281E0,-2.891791344E0,1.656720638E0
5.772611454E2,-2.077296972E0,-4.878139496E-2,7.354067564E-1
5.777611454E2,2.445465088E0,-1.057113647E0,2.801998615E0
5.782611454E2,-1.062778711E0,-2.606063843E0,-5.835168958E-1
5.787611454E2,-1.407014370E0,3.195352554E-1,2.246998072E0
5.792611454E2,-1.634917259E-1,1.063860416E0,-4.909846783E-1
5.797611454E2,-2.645633459E0,-1.945829391E-1,1.268015027E0
5.802611454E2,1.657370210E0,2.965857029E0,1.636447906E-1
5.807611454E2,-2.114162683E0,-1.803484917E0,8.279213309E-2
5.812611454E2,1.354929209E0,2.027259827E0,5.241338015E-1
5.817611454E2,-4.046595097E-1,-3.511065483E0,-5.589133501E-1
5.822611454E2,9.325141907E-1,-3.201767921E0,2.118082762E0
5.827611454E2,-5.413565636E-1,-1.243883133E0,1.305190325E0
5.832611454E2,2.081731319E0,-2.528863907E0,3.037948132E0
5.837611454E2,1.408550739E0,3.830895901E0,-1.787612081E0
5.842611454E2,-1.079520702E0,1.158654690E0,1.397289276E0
5.847611454E2,2.202846289E0,2.983283997E-1,7.803711891E-1
5.852611454E2,-3.493986368E0,-5.424976349E-2,3.046422482E0
5.857611454E2,1.292321682E0,-2.893948555E0,1.791195989E0
5.862611454E2,-8.031890392E-1,-1.908221245E0,1.538550854E-1
5.867611454E2,1.156047344E0,1.001747608E0,1.858777761E0
5.872611454E2,-1.440522432E0,-1.337348938E0,9.283501506E-1
5.877611454E2,-2.441640377E0,-8.223690987E-1,1.680429935E0
5.882611454E2,1.599681854E0,3.693735600E0,-9.573836327E-1
5.887611454E2,-2.428199053E0,-3.159214973E0,-1.372515917E0
5.892611454E2,1.147776604E0,-1.141078949E0,1.250412464E0
5.897611454E2,-1.202150345E0,-3.052463531E-1,1.806704998E-1
5.902611454E2,3.251263618E0,-1.622454643E0,-4.194647670E-1
5.907611454E2,-2.697846174E0,-3.398841858E0,-2.392160892E-2
5.912611454E2,-9.466257095E-1,-1.143174171E0,1.495522738E0
5.917611454E2,-3.785810471E-1,-9.658861160E-1,1.757112384E0
5.922611454E2,-3.395380735E0,-1.020493984E0,1.995159984E0
5.927611454E2,1.562302351E0,3.872927666E0,-1.550446868E0
5.932611454E2,-2.450678587E0,-1.932099342E0,-3.229230642E-2
5.937611454E2,1.024341822E0,2.834630013E0,-8.791445494E-1
5.942611454E2,-1.588055134E0,-2.943365097E0,-8.174043894E-1
5.947611454E2,3.515565395E-1,-2.814441681E0,2.034282684E0
5.952611454E2,-1.065089464E0,-2.072681427E0,-2.167911530E-1
5.957611454E2,1.501716137E0,-3.131433487E0,3.134332180E0
5.962611454E2,-4.646620750E-1,1.482935429E0,8.653597832E-1
5.967611454E2,1.894331932E0,-1.689861298E0,1.553689837E0
5.972611454E2,-1.110039234E0,2.421613216E0,-4.571557045E-1
5.977611454E2,-1.367688894E0,1.213676929E0,2.012338400E0
5.982611454E2,5.376706123E-1,1.600490093E0,1.337354302E0
5.987611454E2,-2.656720161E0,6.417174339E-1,1.271907806E0
5.992611454E2,1.793361664E0,-7.781105042E-1,1.642535806E0
5.997611454E2,-2.597602129E0,-1.161962509E0,4.435254335E-1
6.002611454E2,3.044639587E0,-2.283584595E0,8.902569413E-1
6.007611454E2,-2.256203651E0,-2.087053299E0,4.864918590E-1
6.012611454E2,1.613420010E0,-1.362259865E0,2.064937830E0
6.017611454E2,-1.162112713E0,-2.739212990E0,1.305717826E0
6.022611454E2,-9.503779411E-1,-9.409618378E-2,2.097424984E0
6.027611454E2,-9.072852135E-1,-5.063047409E-1,5.980696082E-1
6.032611454E2,4.357225418E0,-1.956525803E0,8.647412062E-1
6.037611454E2,9.353060722E-1,2.152528286E0,-4.696458578E-1
6.042611454E2,1.418683052E0,-7.970838547E-1,1.599309683E0
6.047611454E2,1.684443831E0,3.741959095E0,-1.284013987E0
6.052611454E2,-1.780875683E0,-6.268358231E-1,2.735891342E0
6.057611454E2,2.289026260E0,1.039442062E0,2.752960920E-1
6.062611454E2,-3.860066175E0,-9.230394363E-1,3.034596443E0
6.067611454E2,1.493130207E0,-2.083002090E0,2.837499857E0
6.072611454E2,-2.970903158E0,-1.342935562E0,7.397532463E-1
6.077611454E2,2.813875675E0,-3.256010056E0,3.064288855E0
6.082611454E2,-2.207470179E0,-2.758335114E0,-8.827178478E-1
6.087611454E2,1.866081238E0,-1.638837814E0,9.193856716E-1
6.092611454E2,-1.253557801E0,-2.455946922E0,1.063594222E0
6.097611454E2,-1.312441826E0,-1.631114483E0,3.607413292E0
6.102611454E2,-8.223891258E-2,-1.092213631E0,2.863864899E-1
6.107611454E2,-3.865433455E0,-2.227146626E0,2.633969069E0
6.112611454E2,2.976417065E0,2.635971069E0,-5.387883186E-1
6.117611454E2,-3.615090609E0,-1.391592503E0,1.301808238E0
6.122611454E2,2.952257156E0,3.238793850E0,-5.152237415E-1
6.127611454E2,-1.260763407E0,-2.087248802E0,-1.478975892E0
6.132611454E2,2.543753147E0,7.404642105E-1,1.251600266E0
6.137611454E2,1.484898806E0,-2.592702866E0,9.955825806E-1
6.142611454E2,2.644396305E0,-1.858330727E0,3.164628029E0
6.147611454E2,-1.272769928E0,-4.791154861E-1,-7.679183483E-1
6.152611454E2,4.352213383E0,3.442535400E-1,3.166521549E0
6.157611454E2,-2.055304527E0,1.893146515E0,-1.139372587E0
6.162611454E2,8.701844215E-1,2.748518944E0,3.267682791E0
6.167611454E2,8.952569962E-2,1.086890221E0,-4.790908098E-1
6.172611454E2,-1.405422449E0,3.034782410E-1,4.280487075E-2
6.177611454E2,4.336903095E-1,3.231748581E0,-9.941094518E-1
6.182611454E2,9.752104282E-1,-2.062551498E0,-5.689792633E-1
6.187611454E2,1.404743910E0,-3.856258392E-1,1.420752525E0
6.192611454E2,7.075781822E-1,-1.535739899E0,9.083170295E-1
6.197611454E2,1.986820221E0,-2.716542244E0,1.250695944E0
6.202611454E2,1.069781780E0,1.557514668E0,-1.046395779E0
6.207611454E2,2.637467623E0,-5.437011719E-1,1.171404481E0
6.212611454E2,1.775200367E-1,2.814751148E0,-2.503509998E0
6.217611454E2,4.501504898E-1,1.754323483E0,2.322104692E0
6.222611454E2,7.964227200E-1,7.948150635E-1,7.207077146E-1
6.227611454E2,-1.354140520E0,4.357705116E-1,2.311703444E0
6.232611454E2,1.627054214E0,-2.325532913E0,2.130425692E0
6.237611454E2,-7.867066860E-1,-1.141590118E0,-8.922784925E-1
6.242611454E2,3.105949879E0,-2.487988472E0,2.080817223E0
6.247611454E2,-1.050265074E0,-2.687423706E0,4.933995306E-1
6.252611454E2,1.237463474E0,-9.824752808E-3,1.981839776E0
6.257611454E2,-5.656056404E-1,-1.410689354E0,5.682033300E-1
6.262611454E2,-2.460326433E0,1.711373329E-1,1.738061905E0
6.267611454E2,1.220768690E0,1.643956184E0,9.792754650E-1
6.272611454E2,-3.070282698E0,-1.387856007E0,1.413977146E-2
6.277611454E2,3.318485737E0,2.829530239E0,-8.530998230E-2
6.282611454E2,-1.487569094E0,-2.690867424E0,-1.556082845E0
6.287611454E2,2.921957254E0,-5.068311691E-1,2.618256807E0
6.292611454E2,-7.719352245E-1,6.325607300E-1,1.407563567E0
6.297611454E2,2.529989958E0,-2.200144768E0,2.398160696E0
6.302611454E2,-2.207198620E0,-2.500832558E0,1.770386696E0
6.307611454E2,1.865594387E0,-7.056417465E-1,3.063141823E0
6.312611454E2,-9.494504929E-1,-2.509886742E0,1.606971383E0
6.317611454E2,-1.173736572E0,2.363208771E0,1.144263625E0
6.322611454E2,1.086664200E0,1.920824528E0,1.572577238E0
6.327611454E2,-9.707934856E-1,2.050324917E0,7.706093788E-1
6.332611454E2,-9.154257774E-1,3.273050785E0,-2.983891964E-1
6.337611454E2,1.140468121E-1,-1.883955956E0,7.599958777E-1
6.342611454E2,7.242846489E-1,1.103372574E-1,9.342109561E-1
6.347611454E2,-6.728219986E-1,-2.503979683E0,-2.800161839E-1
6.352611454E2,2.552598953E0,-2.232005119E0,1.832664013E0
6.357611454E2,-9.735298157E-2,-7.037181854E-1,7.108727694E-1
6.362611454E2,4.331485748E0,-2.160831451E0,1.359481692E0
6.367611454E2,7.974576950E-1,2.514964104E0,-7.874603271E-1
6.372611454E2,2.910461903E0,-4.316787720E-1,1.975297213E0
6.377611454E2,-8.897590637E-1,3.151392460E0,2.774960995E-1
6.382611454E2,-1.581108570E0,7.795953751E-1,1.970930338E0
6.387611454E2,1.542364836E0,5.944290161E-1,1.751422167E0
6.392611454E2,-2.758278370E0,-2.595100403E-1,1.071632504E0
6.397611454E2,1.964832544E0,-2.963472366E0,2.844325066E0
6.402611454E2,-2.967547178E0,-1.767269135E0,-2.477901876E-1
6.407611454E2,2.334934711E0,-2.902015686E0,1.465851068E0
6.412611454E2,-4.006567001E-1,-2.171967506E0,1.211768031E0
6.417611454E2,2.824300528E0,-5.971832275E-1,2.976056337E0
6.422611454E2,-3.587741852E-1,-1.454524040E0,9.352400899E-1
6.427611454E2,4.154551506E0,-2.853836060E0,2.500881672E0
6.432611454E2,2.115976095E0,7.246341705E-1,8.439214230E-1
6.437611454E2,1.339180946E0,-1.899906158E0,8.223570585E-1
6.442611454E2,4.623495102E0,2.885056019E0,-2.772859335E-1
6.447611454E2,3.958601952E-1,-3.707056046E-1,2.396535397E0
6.452611454E2,3.704173088E0,1.588258743E0,8.356639147E-1
6.457611454E2,-5.204195023E0,-9.592466354E-1,3.025961399E0
6.462611454E2,1.836344242E0,-1.521310806E-1,1.464938879E0
6.467611454E2,-2.629845858E0,4.872765541E-1,1.774048686E0
6.472611454E2,3.408501625E0,-1.810023308E0,6.525008678E-1
6.477611454E2,-2.427577972E-1,-1.587387085E0,-9.983192086E-1
6.482611454E2,6.852299690E0,-1.733611107E0,4.905186892E-1
6.487611454E2,-1.595570803E0,-3.127502441E0,-3.036223650E-1
6.492611454E2,3.683946609E0,1.764326096E-1,4.410734177E-1
6.497611454E2,-8.553175926E-1,-2.827550888E0,8.615528941E-1
6.502611454E2,-4.806709290E-1,1.274259090E0,1.293549538E0
6.507611454E2,1.215460300E-1,-1.417131424E-1,9.412685633E-1
6.512611454E2,-3.979271412E0,1.676068306E-1,2.265429735E0
6.517611454E2,2.051527023E0,3.356391430E0,-1.706080198E0
6.522611454E2,-2.780272007E0,-1.089448929E-1,3.554493189E-1
6.527611454E2,2.500759363E0,4.093952179E0,-1.394882798E0
6.532611454E2,-2.973103762E0,-1.991563797E0,-6.125080585E-2
6.537611454E2,9.832327366E-1,1.850789547E0,-4.522275925E-2
6.542611454E2,-3.151272058E0,1.293787956E-1,1.313099980E0
6.547611454E2,6.344666481E-1,-1.256562233E0,1.983057022E0
6.552611454E2,-2.841508865E0,3.932414055E-1,1.421743631E0
6.557611454E2,1.185646057E-1,-2.549283028E0,1.975016356E0
6.562611454E2,-1.884919405E0,-5.549135208E-1,2.543506622E-1
6.567611454E2,2.382291317E0,-3.048524857E0,2.321936131E0
6.572611454E2,-1.798338890E0,-1.819263458E0,1.312422156E0
6.577611454E2,2.769999027E0,-1.955723763E0,8.824499846E-1
6.582611454E2,-1.199592829E0,-2.291651726E0,-4.933459759E-1
6.587611454E2,-9.127941132E-1,-2.177306652E0,2.005971193E0
6.592611454E2,4.558217525E-1,-1.091742516E0,1.878146172E0
6.597611454E2,-2.247369766E0,1.078686714E-1,2.088272810E0
6.602611454E2,4.036445618E-1,2.452783585E-1,-7.154965401E-2
6.607611454E2,-4.105156898E0,-1.328943729E0,2.415278435E0
6.612611454E2,2.189175367E0,3.028076649E0,-4.517076015E-1
6.617611454E2,-3.897035360E0,-1.359939098E0,7.067725658E-1
6.622611454E2,3.426484108E0,3.461485863E0,-1.336467266E0
6.627611454E2,-1.928754091E0,-1.189626694E0,-4.904585183E-1
6.632611454E2,2.278945684E0,3.171987534E0,-8.743407726E-1
6.637611454E2,-1.376176596E0,-2.561388016E0,1.278947890E-1
6.642611454E2,1.533201218E0,-7.986860275E-1,2.035156727E0
6.647611454E2,-1.198093414E0,-1.331063271E0,-9.188079834E-2
6.652611454E2,1.792533875E0,-2.690516472E0,1.020391822E0
6.657611454E2,6.351237297E-1,1.386481762E0,2.758940458E-1
6.662611454E2,2.211883068E0,-1.948959351E0,8.837454915E-1
6.667611454E2,-2.592155933E-1,-2.046569824E0,-1.078305244E0
6.672611454E2,-1.200165749E-1,-1.182932854E0,1.669176340E0
6.677611454E2,-9.252393246E-1,-2.236248016E0,3.312497735E-1
6.682611454E2,-2.242318153E0,-1.073266506E0,2.426329374E0
6.687611454E2,-9.026033878E-1,-2.004814148E-1,-1.071877480E-1
6.692611454E2,-3.749369621E0,-3.961901665E-1,1.354210377E0
6.697611454E2,1.229067802E0,2.327202320E0,-2.718472481E-2
6.702611454E2,-3.599003553E0,-7.713685036E-1,6.100481749E-1
6.707611454E2,2.789421558E0,3.901547909E0,1.443338394E-2
6.712611454E2,-2.434375048E0,-1.053383827E0,1.149051189E-1
6.717611454E2,2.525429249E0,3.020517826E0,-4.132184982E-1
6.722611454E2,-1.334321499E0,-1.904884338E0,-3.588235974E-1
6.727611454E2,1.185526371E0,1.069965363E0,1.032323360E0
6.732611454E2,-9.856941700E-1,-1.878657341E0,-4.333844483E-1
6.737611454E2,1.041712761E0,-8.816566467E-1,1.898605704E0
6.742611454E2,-1.485566378E0,-2.259883881E0,-3.853778541E-1
6.747611454E2,9.737987518E-1,-2.315358162E0,2.740356445E0
6.752611454E2,-8.918652534E-1,-1.722874641E0,3.276656270E-1
6.757611454E2,1.959228992E0,-2.181583405E0,2.013175964E0
6.762611454E2,-2.872979641E-1,5.186252594E-1,1.337587833E-1
6.767611454E2,2.001083851E0,-2.437484741E0,6.750025749E-1
6.772611454E2,1.376047850E0,2.436626434E0,5.677914619E-1
6.777611454E2,4.400053024E-1,-9.369764328E-1,9.362078905E-1
6.782611454E2,1.924978971E0,3.964930534E0,-8.093929291E-1
6.787611454E2,-9.680480957E-1,-3.809475899E-1,2.810863972E0
6.792611454E2,3.058862686E0,2.284316540E0,-1.595485210E-2
6.797611454E2,-3.062506199E0,-8.689990044E-1,1.564345360E0
6.802611454E2,-1.532204151E-1,1.277739048E0,-4.368836880E-1
6.807611454E2,-2.899203539E0,6.100654602E-2,1.755917668E0
6.812611454E2,1.103158951E0,3.231203556E0,-1.597522974E0
6.817611454E2,-2.125147820E0,-4.846134186E-1,4.272805154E-2
6.822611454E2,2.498423576E0,3.185961246E0,-3.849623203E-1
6.827611454E2,-2.429877043E0,-2.230133057E0,-1.003128886E0
6.832611454E2,9.646472931E-1,1.679263115E0,1.913663149E-1
6.837611454E2,-2.826433420E0,-3.475027084E0,8.598788977E-1
6.842611454E2,1.631705761E0,-6.792192459E-1,8.693786263E-1
6.847611454E2,-5.894584656E-1,-2.983766556E0,3.251047730E-1
6.852611454E2,1.206300735E0,-2.096919060E0,6.247970462E-1
6.857611454E2,-9.260177612E-1,-3.931407928E-1,-9.019885063E-1
6.862611454E2,2.136556625E0,-2.338994026E0,1.259018302E0
6.867611454E2,6.075975895E-1,2.334157467E0,-1.113224983E0
6.872611454E2,1.752062321E0,-7.703180313E-1,1.027509928E0
6.877611454E2,1.354379654E0,3.208757877E0,-1.395580769E0
6.882611454E2,-9.091167450E-1,2.045679092E-1,2.362994194E0
6.887611454E2,7.904956341E-1,1.668114185E0,5.932742953E-1
6.892611454E2,-2.354314089E0,1.026680470E0,1.588117123E0
6.897611454E2,1.662882090E0,-1.493813515E0,1.066851258E0
6.902611454E2,-1.857986689E0,1.661005020E-1,4.007263184E-1
6.907611454E2,2.115673542E0,-3.284182549E0,6.053402424E-1
6.912611454E2,-8.654115200E-1,-1.959659576E0,5.911434293E-1
6.917611454E2,1.614238739E0,-1.252016068E0,1.543598890E0
6.922611454E2,-1.140932083E0,-3.002478600E0,1.361129761E0
6.927611454E2,2.624381065E0,-2.229799271E0,1.588802814E0
6.932611454E2,-1.587963104E-2,-1.798476219E0,-9.778039455E-1
6.937611454E2,2.590361357E0,-2.734313011E0,1.444111586E0
6.942611454E2,5.727186203E-1,-5.936660767E-1,1.028223038E-1
6.947611454E2,2.617013454E0,-2.550978661E0,1.100729227E0
6.952611454E2,2.537834406E0,1.513248444E0,-1.520483494E-1
6.957611454E2,8.958964348E-1,-2.799448967E0,9.268966317E-1
6.962611454E2,4.466626167E0,3.159642220E0,-4.647381306E-1
6.967611454E2,4.786729813E-2,-2.743050575E0,1.432239532E0
6.972611454E2,5.133259773E0,3.187310696E0,-1.051423788E0
6.977611454E2,-1.244269848E0,-6.323513985E-1,3.618608952E0
6.982611454E2,2.674002647E0,1.292737961E0,7.806836367E-1
6.987611454E2,-3.247221231E0,-2.125678062E-1,2.770842552E0
6.992611454E2,2.230678082E0,-8.677253723E-1,2.046237469E0
6.997611454E2,-2.388483524E0,-9.068617821E-1,-4.721090496E-1
7.002611454E2,2.879179955E0,-1.914517164E0,-1.019081116E0
7.007611454E2,7.606172562E-1,-5.933661461E-1,8.867168427E-2
7.012611454E2,-1.715095043E-1,9.152762890E-1,1.744138718E0
7.017611454E2,9.950470924E-2,1.142045975E0,6.625633240E-1
7.022611454E2,-1.580405235E-2,-1.523637772E-2,-9.847068787E-2
7.027611454E2,3.506351709E-1,2.483446121E0,-2.085313797E-1
7.032611454E2,-1.071000576E0,5.697798729E-1,-2.733573914E-1
7.037611454E2,1.200703382E0,1.365852833E0,5.370597839E-1
7.042611454E2,-6.126056314E-1,-8.686771393E-1,-3.894081116E-1
7.047611454E2,8.096275330E-1,7.848563194E-1,-1.837501526E-1
7.052611454E2,-7.027771324E-3,2.009066582E0,2.563543320E-1
7.057611454E2,1.051698089E0,3.766541481E-1,-1.581478119E-2
7.062611454E2,-5.169771314E-1,7.411327362E-1,1.092587471E0
7.067611454E2,6.685903668E-1,3.966035843E-1,-4.195938110E-1
