"Time (s)","Acceleration x (m/s^2)","Acceleration y (m/s^2)","Acceleration z (m/s^2)"
1.972971000E-3,1.810768485E0,3.957728624E0,5.423332691E0
2.297765800E-2,1.647458434E0,4.470989227E0,5.172086239E0
5.229776580E-1,2.657229662E0,-5.294120312E-1,1.959123492E0
1.022977658E0,8.486145973E0,-7.895118237E0,7.579265833E-1
1.522977658E0,5.495715618E0,-1.020000458E1,1.566700578E0
2.022977658E0,1.195334530E1,-1.023948669E1,3.032902777E-1
2.522977658E0,4.035495281E0,-1.294217968E1,2.402393818E0
3.022977658E0,7.969893932E0,-1.080000496E1,-1.928615093E0
3.522977658E0,5.736194134E0,-6.236892223E0,-3.238087177E0
4.022977658E0,8.110472679E0,-6.494120598E0,1.621137381E0
4.522977658E0,4.441078663E0,-3.951746702E0,-3.918246984E0
5.022977658E0,8.931210637E-1,-8.090731621E0,1.261615753E0
5.522977658E0,4.444668293E0,-4.222733974E0,-2.276770830E0
6.022977658E0,4.447659016E0,-6.771687984E0,9.870393574E-2
6.522977658E0,1.031904793E1,-1.315932846E1,5.234299302E-1
7.022977658E0,2.664407969E0,-1.608335686E1,1.494317770E0
7.522977658E0,9.816555023E0,-8.990432739E0,-2.877967358E0
8.022977658E0,6.004788399E0,-8.266005516E0,4.007977992E-2
8.522977658E0,3.619742393E0,-5.536991596E0,2.094317913E0
9.022977658E0,4.244867325E0,-4.039084435E0,-4.055236340E0
9.522977658E0,1.210768223E0,-8.182256699E0,-2.318047047E0
1.002297766E1,4.545166492E0,-1.039741230E1,5.228317380E-1
1.052297766E1,3.019742250E0,-1.117747307E1,3.014956415E-1
1.102297766E1,7.760521889E0,-1.328794193E1,1.543968797E0
1.152297766E1,1.564906001E0,-1.369472218E1,1.992024779E-1
1.202297766E1,6.729813576E0,-1.002712345E1,4.354937077E-1
1.252297766E1,2.657827854E0,-5.811567783E0,-1.414756417E0
1.302297766E1,4.677968323E-1,-6.775277138E0,5.694918036E-1
1.352297766E1,4.734199524E0,-3.376870871E0,-2.458625317E0
1.402297766E1,3.440878868E0,-8.285746574E0,-3.126222849E0
1.452297766E1,5.967699528E0,-1.150349522E1,1.405783296E0
1.502297766E1,4.935196877E0,-1.314317703E1,5.778666735E-1
1.552297766E1,1.212323570E1,-9.921838760E0,-4.390829504E-1
1.602297766E1,3.174677372E0,-1.251087284E1,-1.609173268E-1
1.652297766E1,7.663014412E0,-9.604789734E0,3.095116138E0
1.702297766E1,1.722832322E0,-6.511468410E0,-2.274377823E0
1.752297766E1,1.217348576E0,-6.482754707E0,1.462612867E0
1.802297766E1,3.616153240E0,-4.417150497E0,-2.797807932E0
1.852297766E1,1.475175142E0,-6.462415695E0,-1.668993831E0
1.902297766E1,4.125226021E0,-7.714460373E0,-5.383851007E-2
1.952297766E1,2.844467878E0,-1.036391354E1,-1.118644550E-1
2.002297766E1,7.205985546E0,-1.279561901E1,2.940180779E0
2.052297766E1,1.604387641E0,-1.348594856E1,1.869990945E0
2.102297766E1,8.946166039E0,-1.176012516E1,4.989035130E-1
2.152297766E1,1.177268744E0,-1.313001633E1,-8.344969153E-1
2.202297766E1,1.324068451E1,-8.843872070E0,6.334998012E-1
2.252297766E1,6.552744865E0,-7.065407276E0,-1.440479279E0
2.302297766E1,4.401597023E0,-8.196614265E0,2.223530531E0
2.352297766E1,6.033502102E0,-5.892923832E0,-2.483749866E0
2.402297766E1,2.788236618E0,-9.677771568E0,9.349954724E-1
2.452297766E1,5.827719688E0,-9.762716293E0,8.099704385E-1
2.502297766E1,2.620738983E0,-1.135633659E1,-2.904886723E0
2.552297766E1,8.279166222E0,-1.242174053E1,3.670589924E0
2.602297766E1,1.427318692E0,-1.159083271E1,7.962117195E-1
2.652297766E1,1.076949692E1,-1.090050316E1,7.004988194E-1
2.702297766E1,1.976471543E0,-1.206820107E1,-8.793623447E-1
2.752297766E1,8.398807526E0,-9.476774216E0,2.141576260E-1
2.802297766E1,6.040680885E0,-6.564708710E0,-1.560120344E0
2.852297766E1,2.483749866E0,-8.213961601E0,7.130611539E-1
2.902297766E1,5.637490273E0,-4.384847641E0,-3.152543783E0
2.952297766E1,7.674978375E-1,-7.919046402E0,-2.360519648E0
3.002297766E1,5.533402443E0,-9.767501831E0,1.859821439E0
3.052297766E1,3.984647989E0,-1.217468166E1,-1.738385677E0
3.102297766E1,8.776873589E0,-1.259282780E1,3.195614576E0
3.152297766E1,2.032104731E0,-1.401057434E1,-2.955136001E-1
3.202297766E1,1.306780243E1,-8.048258781E0,6.047859192E-1
3.252297766E1,4.210171223E0,-1.280818176E1,-4.414757788E-1
3.302297766E1,7.347760201E0,-9.723235130E0,1.197607756E0
3.352297766E1,5.686542988E0,-7.116254330E0,-2.218744755E0
3.402297766E1,2.502892494E0,-5.535196781E0,1.116251707E0
3.452297766E1,4.158725739E0,-4.521238327E0,-3.901497364E0
3.502297766E1,3.223730326E0,-8.668598175E0,-2.668595552E0
3.552297766E1,5.062016487E0,-1.107876873E1,1.121037364E0
3.602297766E1,4.409373760E0,-1.067677498E1,9.966106415E-1
3.652297766E1,5.998208046E0,-1.327358532E1,1.009771109E0
3.702297766E1,2.403590441E0,-1.307258797E1,9.296116233E-1
3.752297766E1,1.995614052E0,-7.320242882E0,8.817551732E-1
3.802297766E1,4.667200565E0,-3.949951887E0,-3.638286829E0
3.852297766E1,1.676770449E0,-6.153143406E0,-2.347957134E0
3.902297766E1,4.144368649E0,-8.903095245E0,1.016949639E-1
3.952297766E1,4.067798615E0,-1.157827091E1,-3.397808075E-1
4.002297766E1,8.146365166E0,-1.663131332E1,9.744769931E-1
4.052297766E1,3.731008768E0,-1.414636707E1,1.312463164E0
4.102297766E1,7.238886833E0,-8.587242126E0,-7.621139884E-1
4.152297766E1,4.957928658E0,-4.619942188E0,-4.279563427E0
4.202297766E1,4.480560422E-1,-4.924428940E0,-1.131206870E0
4.252297766E1,3.075375319E0,-6.628118515E0,2.392822653E-1
4.302297766E1,3.241676569E0,-8.853444099E0,-5.006981492E-1
4.352297766E1,6.327819347E0,-1.208674526E1,1.222134113E0
4.402297766E1,5.523830891E0,-1.538226032E1,-1.974078715E-1
4.452297766E1,7.152745247E0,-1.006421185E1,-1.004985452E0
4.502297766E1,4.561916351E0,-6.923632145E0,-2.922832966E0
4.552297766E1,2.463410854E0,-5.428716183E0,-3.002992272E-1
4.602297766E1,3.621536970E0,-4.566701889E0,-1.641476393E0
4.652297766E1,2.063809633E0,-6.903891563E0,-3.034099102E0
4.702297766E1,3.662214994E0,-1.068754196E1,8.566305041E-1
4.752297766E1,4.184448719E0,-1.353201008E1,-9.445667267E-1
4.802297766E1,6.658627033E0,-1.500778389E1,-3.638286829E0
4.852297766E1,4.937589645E0,-1.044048309E1,-7.501499057E-1
4.902297766E1,5.667998791E0,-7.636095047E0,-1.734796464E-1
4.952297766E1,3.528815269E0,-3.908675671E0,-5.971288681E0
5.002297766E1,1.770688772E0,-5.945566177E0,-2.687737942E0
5.052297766E1,5.770291805E0,-7.244270325E0,-2.554338276E-1
5.102297766E1,4.659423828E0,-8.534600258E0,-1.878963947E0
5.152297766E1,6.553342819E0,-1.117149067E1,-2.223530531E0
5.202297766E1,7.049255371E0,-1.361874962E1,-6.879365444E-2
5.252297766E1,9.662218094E0,-9.713065147E0,-4.845465720E-1
5.302297766E1,4.128815651E0,-5.299503803E0,-2.367697954E0
5.352297766E1,3.472583771E0,-6.247061729E0,-9.870393574E-2
5.402297766E1,5.624927998E0,-5.078765869E0,-1.886740685E0
5.452297766E1,-1.034895778E-1,-1.250788212E1,-7.286145091E-1
5.502297766E1,5.954539299E0,-1.109432220E1,2.505883455E0
5.552297766E1,8.949156404E-1,-1.411167145E1,2.266601324E0
5.602297766E1,1.115354443E1,-1.134556866E1,-4.029513359E0
5.652297766E1,5.825326920E0,-1.151127148E1,-4.372883439E-1
5.702297766E1,5.376074314E0,-8.666803360E0,6.508477330E-1
5.752297766E1,4.631308079E0,-5.312066078E0,-3.638286829E0
5.802297766E1,2.139183521E0,-6.888338089E0,-1.244267821E0
5.852297766E1,4.582853794E0,-6.275177479E0,-1.434497118E0
5.902297766E1,1.759322882E0,-8.995817184E0,-2.271386862E0
5.952297766E1,5.567500114E0,-1.212503052E1,1.027717352E0
6.002297766E1,1.595414519E0,-1.277468204E1,-5.156532526E-1
6.052297766E1,1.012044334E1,-1.214477158E1,-7.214360237E-1
6.102297766E1,3.314657450E0,-1.126361465E1,1.755135417E0
6.152297766E1,3.169293642E0,-8.285746574E0,-8.165507317E-1
6.202297766E1,4.378865242E0,-3.698107481E0,-4.967499733E0
6.252297766E1,1.657627940E0,-8.098507881E0,-4.367499352E0
6.302297766E1,2.870190859E0,-1.053499985E1,6.699903607E-1
6.352297766E1,3.535395384E0,-1.185583782E1,-1.429113269E0
6.402297766E1,1.068335533E1,-1.340459251E1,1.801197290E0
6.452297766E1,1.255035520E0,-1.308754349E1,-1.088136077E0
6.502297766E1,1.117328548E1,-1.061934662E1,-2.615953445E0
6.552297766E1,5.308476925E0,-1.266580868E1,5.964110494E-1
6.602297766E1,6.706483841E0,-7.415955544E0,1.274178028E-1
6.652297766E1,4.411168575E0,-4.667200565E0,-6.370890141E0
6.702297766E1,1.362114310E0,-6.744768620E0,2.063809633E0
6.752297766E1,4.050450325E0,-3.169293642E0,-2.882154942E0
6.802297766E1,2.459821701E0,-5.224130154E0,-2.271386862E0
6.852297766E1,1.963310957E0,-7.382455826E0,-1.240678549E0
6.902297766E1,3.602394581E0,-8.421539307E0,-8.721838593E-1
6.952297766E1,3.061018467E0,-1.142034435E1,3.104089260E0
7.002297766E1,1.726421595E0,-1.096271706E1,1.765903115E0
7.052297766E1,7.602595806E0,-1.005464077E1,1.686341763E0
7.102297766E1,4.258028030E0,-1.191326618E1,2.397608280E0
7.152297766E1,6.404987812E0,-1.124028397E1,-1.293320656E0
7.202297766E1,3.997210264E0,-1.173559856E1,-4.127618968E-1
7.252297766E1,6.423532486E0,-1.152263737E1,-1.062413216E0
7.302297766E1,2.874976397E0,-1.248754311E1,7.357929349E-1
7.352297766E1,4.367499352E0,-1.061276627E1,2.260020971E0
7.402297766E1,2.843869686E0,-5.560919762E0,-4.468596458E0
7.452297766E1,3.985246181E0,-5.712863922E0,1.082752228E0
7.502297766E1,4.222135544E0,-3.354737282E0,-3.303889751E0
7.552297766E1,1.440479279E0,-6.829115868E0,-1.451845169E0
7.602297766E1,5.506483078E0,-6.107679844E0,-2.102094650E0
7.652297766E1,2.143969059E0,-1.014855862E1,-2.419741869E0
7.702297766E1,5.350351334E0,-9.911071777E0,-6.813562512E-1
7.752297766E1,3.710669756E0,-1.107039356E1,-3.235096216E0
7.802297766E1,6.133402824E0,-1.386281776E1,1.314856052E0
7.852297766E1,2.812164783E0,-1.004207802E1,-4.642075896E-1
7.902297766E1,9.165707588E0,-1.177268696E1,3.182454109E0
7.952297766E1,2.008774519E0,-1.062592697E1,1.220339537E0
8.002297766E1,9.981659889E0,-1.215553856E1,1.595414519E0
8.052297766E1,2.207977057E0,-1.077727318E1,-7.543373108E-1
8.102297766E1,1.515254974E1,-7.853243828E0,1.284347534E0
8.152297766E1,5.647061348E0,-1.100219822E1,-1.555334684E-2
8.202297766E1,1.348116302E1,-8.886942863E0,1.753340840E0
8.252297766E1,2.888735056E0,-1.157647610E1,2.452643216E-1
8.302297766E1,1.186720371E1,-9.027522087E0,2.763710022E-1
8.352297766E1,9.092725813E-2,-1.115713406E1,-9.942178130E-1
8.402297766E1,1.236969662E1,-8.220541954E0,-1.581057549E0
8.452297766E1,3.485146284E0,-1.177388382E1,-3.792623878E-1
8.502297766E1,1.345723438E1,-7.186244488E0,-9.637092948E-1
8.552297766E1,6.883552551E0,-1.040518951E1,1.233500123E0
8.602297766E1,1.119482040E1,-7.666603565E0,-1.091127157E0
8.652297766E1,9.360722542E0,-7.593024254E0,-2.673381090E0
8.702297766E1,1.049671459E1,-7.382455826E0,-1.627119333E-1
8.752297766E1,8.713463783E0,-9.880562782E0,9.649057388E-1
8.802297766E1,1.054756260E1,-7.109674454E0,6.987041831E-1
8.852297766E1,8.283951759E0,-4.743771076E0,-3.239881754E0
8.902297766E1,1.413500118E1,-4.768297195E0,1.889133453E0
8.952297766E1,1.593619823E0,4.893920422E0,5.169693470E0
9.002297766E1,-2.964108944E0,3.924229145E0,9.006584167E0
9.052297766E1,-4.370490551E0,4.559523582E0,7.278966427E0
