"Time (s)","Gyroscope x (rad/s)","Gyroscope y (rad/s)","Gyroscope z (rad/s)"
2.699572940E-1,-1.087797403E0,-9.404263496E-1,6.084213257E-1
7.740702630E-1,-9.048434496E-1,-1.813810229E0,1.841299176E0
1.278183388E0,3.298669755E-1,-4.471530318E-1,-1.598938584E0
1.782296773E0,-3.909534514E-1,5.013672709E-1,2.099847794E0
2.286410158E0,-2.547306120E-1,-1.803578287E-1,-1.385441303E0
2.790523544E0,3.486510813E-1,-3.000873327E-1,9.699005485E-1
3.294636825E0,-1.224783882E-1,4.517345130E-1,-5.671879649E-1
3.798749950E0,-1.870773435E-1,-8.151990771E-1,-9.926552325E-2
4.302862919E0,-2.478583902E-1,4.276053309E-1,-1.930332631E-1
4.806975731E0,3.040579557E-1,-6.937896609E-1,-3.649916947E-1
5.311088388E0,-7.223475724E-2,3.492619395E-1,5.141954422E-1
5.815200835E0,3.556760252E-1,-1.334434152E0,3.191768378E-2
6.319313023E0,-5.890263915E-1,1.109941363E0,8.973603845E-1
6.823425002E0,-5.667297840E-1,1.873827726E-1,-1.055574298E0
7.327536721E0,7.509055138E-1,-5.523744822E-1,1.213330150E0
7.831648231E0,-9.544762224E-2,4.172206521E-1,-6.313287616E-1
8.335759481E0,-3.620901108E-1,-5.088503361E-1,-1.597411335E-1
8.839870471E0,-9.117157012E-2,6.041452885E-1,1.916588247E-1
9.343981200E0,-1.119409725E-1,-5.235111117E-1,-8.089376688E-1
9.848091617E0,-5.093085170E-1,5.050324798E-1,1.042746186E0
1.035220177E1,5.635227636E-2,-7.806851864E-1,-1.050840139E0
1.085631156E1,2.921460867E-1,2.536616027E-1,1.069471478E0
1.136042099E1,-2.987128794E-1,1.388190240E-1,-7.186824083E-1
1.186453000E1,1.304196268E-1,-3.680460155E-1,3.312414289E-1
1.236863870E1,-1.928805560E-1,2.237292230E-1,-2.229656465E-2
1.287274714E1,-1.055268943E-1,-2.845102847E-1,-2.370155305E-1
1.337685526E1,-5.604684353E-2,2.725984156E-1,1.521053314E-1
1.388096313E1,-2.700022459E-1,-4.343248606E-1,-5.019781590E-1
1.438507063E1,-5.731438994E-1,6.214022040E-1,1.145829558E0
1.488917776E1,2.286161482E-1,-3.633118272E-1,-1.337946534E0
1.539328453E1,2.200640440E-1,-3.866774142E-1,9.086613655E-1
1.589739094E1,7.452550530E-2,1.009454057E-1,-8.266527653E-1
1.640149703E1,-2.669478953E-1,3.886627257E-1,9.077450633E-1
1.690560282E1,-1.557705253E-1,4.608974755E-1,1.498145908E-1
1.740970823E1,1.469129771E-1,-4.601338804E-1,-6.365211010E-1
1.791381328E1,-3.233001828E-1,2.687804997E-1,3.998109996E-1
1.841791808E1,1.328630932E-2,-3.559814394E-1,-8.210022449E-1
1.892202250E1,-1.243109852E-1,2.729038298E-1,9.453132749E-1
1.942612656E1,-2.602283955E-1,-2.272416949E-1,-1.156061649E0
1.993023021E1,2.199113183E-2,-4.948004708E-2,1.161712050E0
2.043433349E1,-1.426369250E-1,-3.220784664E-1,-9.259182811E-1
2.093843641E1,1.985310465E-1,-3.597993553E-1,5.962040424E-1
2.144253907E1,-2.377791107E-1,3.031416535E-1,-3.488037884E-1
2.194664141E1,-2.064722925E-1,-1.640172005E-1,-8.593340516E-1
2.245074344E1,-1.023198515E-1,4.786125422E-1,7.353284955E-1
2.295484516E1,1.672242284E-1,1.693622619E-1,-7.506000996E-1
2.345894656E1,-8.255837560E-1,1.447749585E-1,1.313664675E0
2.396304761E1,6.563742161E-1,-9.834923148E-1,-1.722638726E0
2.446714823E1,-3.903425932E-1,4.419606626E-1,2.181092739E0
2.497124849E1,-2.238819450E-1,1.769980639E-1,-2.095113516E0
2.547534828E1,-6.597339362E-2,-2.930623889E-1,1.692095399E0
2.597944761E1,6.459894776E-2,-7.223475724E-2,-1.025183797E0
2.648354651E1,-2.926042378E-1,-5.925388262E-2,3.714057803E-1
2.698764500E1,-1.064431891E-1,4.289797843E-1,3.234528899E-1
2.749174297E1,6.490438432E-2,-3.353647590E-1,-7.718276381E-1
2.799584058E1,-4.225656986E-1,4.805978537E-1,9.889900684E-1
2.849993782E1,1.684459597E-1,-8.842267841E-2,-1.423620343E0
2.900403453E1,-6.994401664E-2,1.663079411E-1,1.478139997E0
2.950813058E1,-4.560105503E-1,-1.313359290E-1,-1.581834316E0
3.001222558E1,-1.481347065E-2,1.925751269E-1,1.784794211E0
3.051631953E1,1.412624866E-1,-3.335321844E-1,-1.519373417E0
3.102041229E1,-4.402807951E-1,3.509418070E-1,4.014908671E-1
3.152450401E1,-4.321868345E-2,2.073885947E-1,-1.062904745E-1
3.202859474E1,1.182023361E-1,-4.314232469E-1,-6.282744408E-1
3.253268443E1,-5.467239767E-2,4.260781780E-2,7.709113359E-1
3.303677328E1,1.163697392E-1,-4.456258714E-1,-3.633118272E-1
3.354086125E1,-4.111120105E-1,6.163625717E-1,7.086031437E-1
3.404494834E1,-3.426951468E-1,9.453132749E-2,-4.578431547E-1
3.454903464E1,-1.950185746E-1,1.470656991E-1,7.938187718E-1
3.505312000E1,4.653262496E-1,-6.322450191E-2,-6.798924804E-1
3.555720453E1,-4.841103405E-2,-4.535670951E-2,1.391244531E-1
3.606128818E1,-3.970621154E-3,-2.061668597E-2,1.798996776E-1
3.656537099E1,1.270598769E-1,-1.014035568E-1,-3.543015569E-2
3.706945297E1,-5.650499463E-1,2.026543915E-1,1.973093301E-1
3.757353412E1,1.328630932E-2,1.488982886E-1,-6.006327868E-1
3.807761448E1,5.864302069E-2,-1.875354946E-1,6.012436748E-1
3.858169412E1,2.964221239E-1,-2.654207349E-1,-4.134027362E-1
3.908577292E1,-1.527161920E-3,1.635590494E-1,2.440404743E-1
3.958985104E1,1.872300506E-1,1.379027218E-1,1.985310465E-1
4.009392891E1,-1.148425788E-1,-3.087921441E-1,-8.281798959E-1
4.059800688E1,-4.867065251E-1,3.289506733E-1,6.126973629E-1
4.110208516E1,1.511890292E-1,-1.795942485E-1,-8.216131330E-1
4.160616370E1,-4.827359021E-1,1.750127524E-1,9.259182811E-1
4.211024250E1,2.380845547E-1,-2.058614343E-1,-4.228711426E-1
4.261432151E1,4.337139800E-2,3.665188700E-2,5.849030241E-2
4.311840063E1,1.739437431E-1,9.682206810E-2,-5.146535859E-2
4.362247985E1,5.497782957E-3,-1.907425225E-1,1.214093715E-1
4.412655896E1,-2.660316229E-1,-3.894263133E-2,2.611446939E-2
4.463063802E1,5.100720748E-2,-1.747073233E-1,-3.556760252E-1
4.513471693E1,-9.361502528E-2,1.779143661E-1,2.868010104E-1
4.563879573E1,1.974620372E-1,-4.178315103E-1,-3.029889166E-1
4.614287432E1,1.389717404E-2,-5.665770918E-2,1.898262352E-1
4.664695287E1,2.133445293E-1,3.639226854E-1,-5.497782957E-3
4.715103125E1,-4.726566374E-1,2.851211429E-1,1.986837685E-1
4.765510953E1,3.023780696E-2,-3.313941509E-2,-4.195113778E-1
4.815918766E1,-3.263545036E-1,-2.138026757E-3,1.525634825E-1
4.866326558E1,4.795288667E-2,2.470948100E-1,5.986474827E-2
4.916734334E1,1.398880333E-1,-3.709476292E-1,-2.208276242E-1
4.967142094E1,7.330377400E-2,-1.195767820E-1,1.887572110E-1
5.017549870E1,3.133736253E-1,-5.024362728E-2,-3.695731983E-2
5.067957714E1,1.056796089E-1,-3.248273432E-1,-6.136136651E-1
5.118365644E1,1.774562150E-1,-3.720166385E-1,3.549124300E-1
5.168773675E1,8.491020650E-2,-8.674279600E-2,-2.257145345E-1
5.219181800E1,-5.696313977E-1,2.000582218E-1,3.698786199E-1
5.269589993E1,-3.634645417E-2,8.063415438E-2,-5.737547278E-1
5.319998238E1,-3.544542789E-1,4.529562294E-1,1.145524144E0
5.370406535E1,2.356410921E-1,1.069013327E-1,-6.436987519E-1
5.420814889E1,-1.094975099E-1,-3.422369957E-1,2.136499584E-1
5.471223284E1,-4.105011225E-1,3.619373739E-1,8.353576064E-1
5.521631717E1,3.623955250E-1,-7.409789562E-1,-1.212261200E0
5.572040180E1,-3.579667509E-1,4.940368831E-1,6.194168925E-1
5.622449316E1,-3.590357602E-1,-2.047924101E-1,-1.116813540E0
5.672857295E1,6.230820715E-2,2.393062711E-1,1.439197421E0
5.723265967E1,3.863719851E-2,-9.010255337E-3,-6.430879235E-1
5.773674701E1,3.023780696E-2,-4.873173833E-1,-2.748891478E-3
5.824083482E1,9.422589093E-2,5.268708616E-2,3.045161068E-1
5.874492290E1,-1.684459597E-1,-4.459312931E-2,-8.162680864E-1
5.924901113E1,-3.849975169E-1,4.576904476E-1,8.443678617E-1
5.975309967E1,-1.893680729E-2,-1.634063274E-1,-1.290604591E0
6.025718873E1,-4.030180275E-1,8.704823256E-2,1.761275887E0
6.076127904E1,-2.151771188E-1,-3.494146466E-1,-1.596647859E0
6.126537081E1,2.713766694E-1,3.045161068E-1,1.051603675E0
6.176946404E1,4.673115611E-1,-1.098029464E-1,-3.911061883E-1
6.227355837E1,3.039052337E-2,-9.773836285E-2,-5.271763206E-1
6.277765363E1,-5.131264329E-1,3.039052188E-1,2.519817352E-1
6.328174936E1,6.429351866E-2,-4.557051361E-1,-4.978547990E-1
6.378584508E1,-5.096139312E-1,2.729038298E-1,9.789108038E-1
6.428994055E1,-2.244928107E-2,-1.589775532E-1,-1.455079913E0
6.479403560E1,1.805105358E-1,1.139262840E-1,1.377805471E0
6.529813024E1,-6.719512492E-2,-3.874409795E-1,-7.747292519E-1
6.580222462E1,2.012799382E-1,-9.666935354E-2,5.099193454E-1
6.630631873E1,3.628536761E-1,8.384118974E-2,-2.458730787E-1
6.681041264E1,-5.297724605E-1,-3.222311661E-2,-1.924224012E-2
6.731450639E1,2.301433086E-1,6.673697382E-2,8.399390429E-2
6.781859972E1,-1.010981202E-1,-1.061377525E-1,1.731801629E-1
6.832269248E1,-3.115410507E-1,2.935205400E-1,8.552107029E-3
6.882678456E1,3.590357602E-1,-6.835576892E-1,-2.061668597E-2
6.933087597E1,-1.511890348E-2,3.938550651E-1,3.452913165E-1
6.983496660E1,-2.596175298E-2,-3.428478539E-1,-5.209149122E-1
7.033905644E1,-2.092211880E-2,1.562286615E-1,1.850920320E-1
7.084314566E1,-4.306596518E-2,1.049160287E-1,-1.169806048E-1
7.134723467E1,-6.688969582E-2,1.597411335E-1,1.053741723E-1
7.185132357E1,9.239330143E-2,-1.779143661E-1,-6.887500733E-2
7.235541243E1,-2.901607752E-2,1.644753367E-1,1.178968996E-1
7.285950139E1,2.025016695E-1,2.608392537E-1,-1.091920808E-1
7.336359066E1,-1.962403059E-1,-2.570213675E-1,1.710421443E-1
7.386768019E1,-1.759290546E-1,-9.651663154E-2,-2.160934210E-1
7.437176993E1,6.933315098E-2,-5.068650246E-1,-4.123337194E-2
7.487585956E1,-4.033234715E-1,4.879282415E-1,1.649334840E-2
7.537994883E1,-5.833758786E-2,-3.037525117E-1,-6.003273726E-1
7.588403743E1,-1.591302752E-1,1.391244531E-1,1.101236463E0
7.638812534E1,-3.158170879E-1,-5.974257588E-1,-1.731038094E0
7.689221248E1,-4.437932670E-1,5.943714380E-1,2.163072109E0
7.739629894E1,-1.221729591E-1,-3.459021747E-1,-2.246455193E0
7.790038467E1,3.295615613E-1,-2.803869247E-1,2.319300890E0
7.840446962E1,-5.737547278E-1,-6.872228812E-3,-2.231794357E0
7.890855389E1,-1.262962967E-1,3.831649423E-1,2.267988205E0
7.941263743E1,-1.737910360E-1,-3.032943606E-1,-2.186285019E0
7.991672029E1,1.290451884E-1,-8.155044913E-2,1.893833518E0
8.042080238E1,5.803215317E-3,7.223475724E-2,-1.888946652E0
8.092488378E1,-3.558287323E-1,4.108065739E-2,1.049312949E0
8.142896503E1,3.316995800E-1,-2.162461281E-1,-9.133955836E-1
8.193304607E1,-6.614138484E-1,7.005091906E-1,9.604321718E-1
8.243712691E1,4.363101721E-1,-1.635590494E-1,-6.844739914E-1
8.294120758E1,-4.430296719E-1,8.735366166E-2,8.368847370E-1
8.344528785E1,3.798051775E-1,-1.432477981E-1,-7.541125417E-1
8.394936769E1,-4.557051361E-1,1.282816008E-2,3.553705812E-1
8.445344701E1,2.076940238E-1,1.136208475E-1,-3.533852696E-1
8.495752571E1,-3.988946974E-1,-1.765399277E-1,-1.893680729E-2
8.546160383E1,1.889099330E-1,-1.432477981E-1,-1.020144150E-1
8.596568144E1,-2.843575478E-1,-4.169152305E-2,-4.306596816E-1
8.646975842E1,6.337722391E-2,2.214384824E-2,4.679224193E-1
8.697383488E1,-7.635809947E-3,6.291907281E-2,-2.535088956E-1
8.747791071E1,-7.536544204E-1,7.255546451E-1,5.403099060E-1
8.798198607E1,9.162971983E-4,-2.608392537E-1,-1.002123713E0
8.848606102E1,-8.904881477E-1,3.323104382E-1,5.189296007E-1
8.899013555E1,-4.091266990E-1,1.611461282E0,-1.863137603E0
8.949420967E1,-1.296560466E-1,2.595258951E0,5.360338464E-2
8.999828336E1,-2.733619884E-2,5.117519498E-1,6.108647585E-1
