"Time (s)","Acceleration x (m/s^2)","Acceleration y (m/s^2)","Acceleration z (m/s^2)"
1.076547500E-2,1.782054663E0,3.300300598E0,7.612166882E0
3.176646400E-2,2.193620205E0,3.774677753E0,7.579265594E0
5.317664640E-1,9.732806087E-1,7.926225066E-1,4.626522541E0
1.031766464E0,9.334999084E0,-7.221538544E0,-6.711867452E-1
1.531766464E0,3.674179077E0,-7.368099213E0,-8.793623447E-1
2.031766464E0,4.734199524E0,-5.918048382E0,-1.426122308E0
2.531766464E0,4.201796532E0,-6.747759819E0,-1.485344648E0
3.031766464E0,4.646861553E0,-6.623332977E0,-1.170688510E0
3.531766464E0,2.347957134E0,-7.890332699E0,-8.117650747E-1
4.031766464E0,4.734797955E0,-8.070392609E0,-4.097708702E0
4.531766464E0,1.454836130E0,-7.179664135E0,-8.213363886E-1
5.031766464E0,5.112864017E0,-6.455835342E0,-1.057627559E0
5.531766464E0,3.831507206E0,-6.481558323E0,-9.314061999E-1
6.031766464E0,5.047659397E0,-7.486543655E0,-1.435693622E0
6.531766464E0,4.146163464E0,-6.297909260E0,-3.990031779E-1
7.031766464E0,4.120440483E0,-7.302894592E0,1.992024779E-1
7.531766464E0,3.839882135E0,-7.587042332E0,-8.548358679E-1
8.031766464E0,3.690928936E0,-6.854838848E0,-1.563709617E0
8.531766464E0,3.994219303E0,-6.926024914E0,-4.241278172E-1
9.031766464E0,2.493321180E0,-7.002595425E0,-2.772084951E0
9.531766464E0,5.679364681E0,-5.882754326E0,1.554138303E0
1.003176646E1,4.720440865E0,-5.396413326E0,-1.807777524E0
1.053176646E1,4.283152580E0,-6.259624004E0,1.362114310E0
1.103176646E1,4.255635262E0,-5.090131760E0,-3.781856298E0
1.153176646E1,5.002793789E0,-5.624927998E0,1.805384636E0
1.203176646E1,4.572085857E0,-5.281557560E0,-2.753540754E0
1.253176646E1,4.691727161E0,-6.863811970E0,6.496513486E-1
1.303176646E1,3.993022680E0,-4.926223755E0,-2.428116798E0
1.353176646E1,3.812962770E0,-5.673980713E0,8.584251404E-1
1.403176646E1,3.623929977E0,-5.093721390E0,-3.469592810E0
1.453176646E1,3.651447296E0,-7.026523590E0,-1.568495274E0
1.503176646E1,4.300500393E0,-7.334599495E0,-1.971685886E0
1.553176646E1,3.326023579E0,-8.163114548E0,-1.161715388E0
1.603176646E1,4.928018093E0,-6.045466423E0,-1.994417667E0
1.653176646E1,4.435096741E0,-7.192824841E0,-1.775474429E0
1.703176646E1,2.635694027E0,-8.353941917E0,-1.654636860E0
1.753176646E1,3.713660717E0,-8.210372925E0,-2.428714931E-1
1.803176646E1,3.989433527E0,-8.717651367E0,-7.908278704E-1
1.853176646E1,3.071187973E0,-8.175078392E0,-2.200200319E0
1.903176646E1,4.299304008E0,-8.350951195E0,-8.697910309E-1
1.953176646E1,4.576871395E0,-8.939585686E0,-2.289333105E0
2.003176646E1,5.170291424E0,-9.115457535E0,-1.597209126E-1
2.053176646E1,3.909872293E0,-9.357132912E0,-9.427721500E-1
2.103176646E1,7.558328629E0,-8.952746391E0,-2.525624275E0
2.153176646E1,3.695714474E0,-9.411569595E0,-1.070189953E0
2.203176646E1,7.275377274E0,-9.401998520E0,-3.214159012E0
2.253176646E1,6.163911343E0,-1.006241703E1,-1.077966571E0
2.303176646E1,8.615956306E0,-1.119362450E1,-3.148954630E0
2.353176646E1,4.946562767E0,-9.344570160E0,-8.422735929E-1
2.403176646E1,8.395816803E0,-1.021137047E1,-1.259821177E0
2.453176646E1,4.595416069E0,-8.971290588E0,-2.753540754E0
2.503176646E1,5.755336761E0,-9.952945709E0,-4.959124923E-1
2.553176646E1,1.942971945E0,-5.209773064E0,-5.877968788E0
2.603176646E1,3.321237803E0,-6.226124287E0,1.166501045E-1
2.653176646E1,4.747360229E0,-5.128417015E0,-3.477967739E0
2.703176646E1,4.297509670E0,-7.211967468E0,1.155135155E0
2.753176646E1,4.259224415E0,-4.165306091E0,-3.491726398E0
2.803176646E1,4.040280819E0,-6.760322094E0,6.317051649E-1
2.853176646E1,4.977071285E0,-4.787439823E0,-3.409173965E0
2.903176646E1,4.031308174E0,-5.437689304E0,9.074779749E-1
2.953176646E1,4.465006828E0,-4.752145767E0,-2.949153900E0
3.003176646E1,4.579862595E0,-6.703492641E0,1.854437590E-1
3.053176646E1,4.268795490E0,-6.002395630E0,-2.528017044E0
3.103176646E1,3.580859184E0,-7.712665558E0,-1.732403636E0
3.153176646E1,5.237290382E0,-6.306283951E0,-2.322234392E0
3.203176646E1,3.002394199E0,-8.277371407E0,-2.092523336E0
3.253176646E1,6.561119556E0,-8.027321815E0,3.972085714E-1
3.303176646E1,4.137788773E0,-1.039442158E1,-1.781456470E0
3.353176646E1,4.735994339E0,-8.314460754E0,-2.252244234E0
3.403176646E1,3.506083488E0,-1.057328510E1,-1.926820397E0
3.453176646E1,7.425527096E0,-1.041057301E1,-1.335195065E0
3.503176646E1,5.852844238E0,-1.092443180E1,-1.721635938E0
3.553176646E1,9.778269768E0,-1.151785183E1,-1.271187067E0
3.603176646E1,2.536391973E0,-1.077547836E1,-1.131206870E0
3.653176646E1,9.327222824E0,-8.124829292E0,-2.014756680E0
3.703176646E1,3.461217880E0,-1.081436157E1,-1.427916884E0
3.753176646E1,9.540781975E0,-8.368897438E0,-6.495915413E0
3.803176646E1,6.055037498E0,-1.076291656E1,-1.402194023E0
3.853176646E1,8.648857117E0,-8.483752251E0,-3.954139471E0
3.903176646E1,7.928617954E0,-8.109873772E0,-2.008176327E0
3.953176646E1,7.240681171E0,-8.196015358E0,-2.107478619E0
4.003176646E1,6.837490559E0,-5.673980713E0,-3.112463951E0
4.053176646E1,6.312266350E0,-7.156334400E0,-6.340979785E-2
4.103176646E1,5.564508915E0,-6.183053493E0,-3.573680639E0
4.153176646E1,4.935196877E0,-9.104091644E0,-1.686939895E-1
4.203176646E1,6.236892223E0,-7.379465103E0,-3.499503136E0
4.253176646E1,4.935794830E0,-1.096869946E1,5.383851007E-2
4.303176646E1,7.926225185E0,-3.463012457E0,-5.214558601E0
4.353176646E1,5.085944653E0,-9.643074989E0,-6.951149702E-1
4.403176646E1,6.001199245E0,-6.503692150E0,-3.556930780E0
4.453176646E1,6.422336102E0,-1.075513935E1,-1.101894855E0
4.503176646E1,5.380859852E0,-7.799405575E0,-5.006981373E0
4.553176646E1,7.505088329E0,-8.251648903E0,-2.446661234E0
4.603176646E1,5.361119270E0,-7.325626373E0,-3.748954773E0
4.653176646E1,5.482554913E0,-8.295317650E0,-1.534995675E0
4.703176646E1,4.544568539E0,-6.844669342E0,-4.150949001E0
4.753176646E1,5.908477306E0,-8.020741463E0,-2.344966173E0
4.803176646E1,6.515058041E0,-8.039883614E0,-4.930410862E0
4.853176646E1,7.109674454E0,-8.417949677E0,-2.458625317E0
4.903176646E1,5.717649937E0,-8.541180611E0,-1.620539188E0
4.953176646E1,5.133202553E0,-7.859824181E0,-1.962114573E0
5.003176646E1,6.514459610E0,-8.059026718E0,-3.515654564E0
5.053176646E1,4.322634220E0,-8.531010628E0,-8.255238086E-2
5.103176646E1,5.282155991E0,-6.385845661E0,-5.071587563E0
5.153176646E1,5.056632519E0,-8.400602341E0,-2.279163599E-1
5.203176646E1,2.922832966E0,-6.421139717E0,-6.323033810E0
5.253176646E1,3.519243956E0,-6.772884369E0,-1.097707391E0
5.303176646E1,4.169493675E0,-5.149354458E0,-4.567300320E0
5.353176646E1,3.694518089E0,-6.741777897E0,9.846464992E-1
5.403176646E1,4.511667252E0,-5.063212872E0,-3.668795347E0
5.453176646E1,3.793820381E0,-6.099903107E0,1.286142230E0
5.503176646E1,2.994019270E0,-2.920439959E0,-3.230310678E0
5.553176646E1,4.326223373E0,-6.296712875E0,1.274178028E0
5.603176646E1,3.772883177E0,-4.214957237E0,-3.780659676E0
5.653176646E1,3.272184849E0,-7.534400463E0,7.357929349E-1
5.703176646E1,3.008376360E0,-7.433901787E0,-2.365903378E0
5.753176646E1,2.691327333E0,-7.871190071E0,-1.322632670E0
5.803176646E1,3.025724173E0,-6.492924213E0,-2.061416626E0
5.853176646E1,2.038684845E0,-7.194021225E0,-2.006381750E0
5.903176646E1,3.761517286E0,-7.604390144E0,-1.986042738E0
5.953176646E1,5.473581553E-1,-1.021137047E1,-2.917448997E0
6.003176646E1,4.870590687E0,-1.023051357E1,-1.154536963E0
6.053176646E1,3.610171080E0,-9.721440315E0,-2.196611166E0
6.103176646E1,7.147959232E0,-1.122891808E1,-2.030908108E0
6.153176646E1,5.227120876E0,-1.046321487E1,-1.244267821E0
6.203176646E1,6.839883327E0,-1.162792206E1,-1.477568030E0
6.253176646E1,5.005784988E0,-1.168295670E1,-1.821536183E0
6.303176646E1,6.926623344E0,-1.065284634E1,-1.578066587E0
6.353176646E1,3.868596077E0,-1.122054386E1,-1.246062398E0
6.403176646E1,7.620542049E0,-1.236730385E1,-2.178664923E0
6.453176646E1,3.787240028E0,-1.065763187E1,-1.554138303E0
6.503176646E1,8.553144455E0,-1.070907784E1,-1.280758262E0
6.553176646E1,5.007579803E0,-1.129292679E1,-1.641476393E0
6.603176646E1,9.174081802E0,-1.223390388E1,-1.989033818E0
6.653176646E1,4.449453831E0,-1.178524971E1,7.956135273E-2
6.703176646E1,8.237292290E0,-1.154297638E1,-2.413759947E0
6.753176646E1,7.036095142E0,-9.131011009E0,1.463211060E0
6.803176646E1,8.770891190E0,-9.249456406E0,-3.497110367E0
6.853176646E1,5.119443893E0,-9.504291534E0,-8.614161611E-2
6.903176646E1,7.348956585E0,-7.133602619E0,-3.820141315E0
6.953176646E1,6.284748554E0,-8.118248940E0,-1.645065546E0
7.003176646E1,8.011170387E0,-8.971888542E0,-2.571686029E0
7.053176646E1,6.239284992E0,-7.668398380E0,-2.779263496E0
7.103176646E1,7.229913712E0,-9.429515839E0,-1.476969719E0
7.153176646E1,6.765107632E0,-8.486145973E0,-3.504886866E0
7.203176646E1,6.792625427E0,-7.489534855E0,-3.141177893E0
7.253176646E1,6.043073654E0,-7.339385033E0,-4.353740692E0
7.303176646E1,6.927819729E0,-8.571090698E0,-9.876375198E-1
7.353176646E1,7.942376614E0,-8.790034294E0,-1.829911113E0
7.403176646E1,8.920442581E0,-1.004865837E1,-2.171486616E0
7.453176646E1,4.705485821E0,-6.047859192E0,-3.930211306E0
7.503176646E1,5.126622677E0,-6.964908600E0,-1.166501045E-1
7.553176646E1,3.927220106E0,-5.487340450E0,-5.149354458E0
7.603176646E1,3.901497364E0,-7.749155998E0,2.213360928E-2
7.653176646E1,4.629513741E0,-5.466403484E0,-3.634099483E0
7.703176646E1,3.671786308E0,-8.159524918E0,5.790630579E-1
7.753176646E1,5.266004562E0,-6.835696220E0,-4.954339504E0
7.803176646E1,3.699303865E0,-1.131505966E1,1.657029629E0
7.853176646E1,5.540580750E0,-5.875576019E0,-5.101497650E0
7.903176646E1,6.304489613E0,-9.461220741E0,-1.443470240E0
7.953176646E1,7.033103943E0,-7.735397339E0,-5.291727066E0
8.003176646E1,6.447460651E0,-1.056969547E1,-2.914458036E0
8.053176646E1,5.834897995E0,-8.228319168E0,-4.197010994E0
8.103176646E1,7.816154957E0,-6.281757832E0,-3.043670416E0
8.153176646E1,6.696314335E0,-9.285347939E0,-1.457827210E0
8.203176646E1,7.031907558E0,-7.301100254E0,-8.913264275E-1
8.253176646E1,2.418545485E0,-1.067856884E1,-1.400997639E0
8.303176646E1,8.277371407E0,-1.066361427E1,-1.713261008E0
8.353176646E1,5.700900078E0,-1.108056355E1,-2.383251429E0
8.403176646E1,7.081558704E0,-9.520442963E0,-2.340180635E0
8.453176646E1,3.867997885E0,-8.967103004E0,-1.633699656E0
8.503176646E1,6.387639999E0,-7.749754429E0,-2.461018085E0
8.553176646E1,3.499503136E0,-8.024331093E0,-1.324427366E0
8.603176646E1,4.317848682E0,-7.913662910E0,5.850451589E-1
8.653176646E1,4.632504463E0,-8.545966148E0,3.846462369E-1
8.703176646E1,5.693123341E0,-6.824330330E0,-6.361917019E0
8.753176646E1,6.924828529E0,-5.769693375E0,-1.191625714E0
8.803176646E1,5.672784328E0,-9.050851822E0,-1.307677627E0
8.853176646E1,5.320441246E0,-7.347760201E0,-1.805384636E0
8.903176646E1,7.490731239E0,-1.119182968E1,-2.404188633E0
8.953176646E1,6.530611038E0,-1.017547798E1,-2.193022013E0
9.003176646E1,5.452046394E0,-9.058030128E0,-1.070788145E0
9.053176646E1,4.418945312E0,-8.071588516E0,-1.476969719E0
9.103176646E1,3.058027267E0,-8.349156380E0,-6.412764788E-1
9.153176646E1,5.453841209E0,-7.755736351E0,-1.430907965E0
9.203176646E1,4.386641979E0,-8.746364594E0,1.089332461E0
9.253176646E1,4.768297195E0,-8.180462837E0,-1.085145116E0
9.303176646E1,3.474378586E0,-8.953942299E0,-1.552343726E0
9.353176646E1,5.894718647E0,-8.132007599E0,-1.392622828E0
9.403176646E1,3.933800459E0,-8.325227737E0,-1.307677627E0
9.453176646E1,4.396811485E0,-6.759125710E0,-8.913264275E-1
9.503176646E1,3.447459221E0,-8.389236450E0,-1.651047587E0
9.553176646E1,4.988437176E0,-7.427321434E0,-7.262216806E-1
9.603176646E1,2.574677229E0,-6.868597507E0,-2.811566591E-1
9.653176646E1,3.540181160E0,-7.586444378E0,-3.071187973E0
9.703176646E1,2.882753134E0,-8.732605934E0,-1.928615093E0
9.753176646E1,2.240878344E0,-7.500302792E0,-2.193620205E0
9.803176646E1,2.941377163E0,-7.076174736E0,-2.050050735E0
9.853176646E1,3.960719585E0,-8.124829292E0,-1.480558991E0
9.903176646E1,4.847858906E0,-7.676175117E0,6.317051649E-1
9.953176646E1,5.107480049E0,-6.485745907E0,-1.743769526E0
1.000317665E2,5.321637630E0,-5.903691769E0,1.624128342E0
1.005317665E2,5.377270699E0,-6.169893265E0,-3.418745279E0
1.010317665E2,5.529214859E0,-7.622336388E0,-1.418345571E0
1.015317665E2,4.186243057E0,-6.726822853E0,-3.646661758E0
1.020317665E2,6.018547058E0,-6.762116909E0,-1.692921966E-1
1.025317665E2,7.800601959E0,-5.350351334E0,-5.303691387E0
1.030317665E2,4.244867325E0,-9.337990761E0,-1.597209126E-1
1.035317665E2,4.320241451E0,-8.096115112E0,-2.174477577E0
1.040317665E2,5.876772404E0,-8.939585686E0,-7.447660565E-1
1.045317665E2,6.866204739E0,-6.872186661E0,-3.570091486E0
1.050317665E2,7.758727551E0,-7.871190071E0,-1.600200176E0
1.055317665E2,5.956333637E0,-8.987442017E0,-2.611167669E0
1.060317665E2,6.991827965E0,-7.631907940E0,-2.461018085E0
1.065317665E2,3.549752474E0,-9.545567513E0,-2.529811859E0
1.070317665E2,9.156135559E0,-1.048355389E1,-1.829312921E0
1.075317665E2,6.878168583E0,-1.086221886E1,-2.312663078E0
1.080317665E2,6.141179085E0,-1.028136063E1,-2.694318295E0
1.085317665E2,3.897309780E0,-9.231510162E0,-1.556531072E0
1.090317665E2,6.664609432E0,-9.242876053E0,-1.342971683E0
1.095317665E2,4.067798615E0,-8.815158844E0,-8.249256015E-1
1.100317665E2,5.980860233E0,-9.457631111E0,-2.002194405E0
1.105317665E2,4.104887009E0,-8.072187424E0,-1.269990563E0
1.110317665E2,4.870590687E0,-8.167900085E0,4.773681164E-1
1.115317665E2,3.140579700E0,-8.221738815E0,-1.323829174E0
1.120317665E2,3.340380430E0,-7.357331276E0,-9.248259664E-1
1.125317665E2,5.124229908E0,-7.049255371E0,1.064207911E0
1.130317665E2,3.992424488E0,-5.739185333E0,-5.152943611E0
1.135317665E2,6.924828529E0,-9.433703423E0,-3.184248686E0
1.140317665E2,6.012565136E0,-8.032107353E0,-8.727820516E-1
1.145317665E2,8.754141808E0,-1.226919842E1,-3.463012457E0
1.150317665E2,4.317848682E0,-8.626724243E0,-1.942971945E0
1.155317665E2,3.911068678E0,-8.009973526E0,-1.150349498E0
1.160317665E2,3.909872293E0,-9.108877182E0,-8.243274093E-1
1.165317665E2,5.139782906E0,-8.772088051E0,-2.437688112E0
1.170317665E2,5.310271740E0,-7.993822098E0,-1.987239242E0
1.175317665E2,4.271786690E0,-9.084949493E0,8.392825127E-1
1.180317665E2,6.885347366E0,-7.007979393E0,-2.472982168E0
1.185317665E2,5.629115105E0,-9.077172279E0,-9.409775138E-1
1.190317665E2,5.946762562E0,-8.263014793E0,-1.222134113E0
1.195317665E2,5.526223660E0,-7.770093441E0,-5.730810165E-1
1.200317665E2,6.004788399E0,-7.563114166E0,-1.370489120E0
1.205317665E2,4.921437740E0,-9.438488960E0,-1.131206870E0
1.210317665E2,6.107679844E0,-8.202595711E0,-2.496910334E0
1.215317665E2,4.784449100E0,-7.366304398E0,-2.346162558E0
1.220317665E2,5.062016487E0,-8.266005516E0,-2.403590441E0
1.225317665E2,4.836492538E0,-8.403593063E0,-2.154736757E0
1.230317665E2,5.486144066E0,-7.707880020E0,-1.041476011E0
1.235317665E2,6.956533432E0,-9.148957253E0,-2.618944407E0
1.240317665E2,4.339384079E0,-7.665407181E0,-2.609971285E0
1.245317665E2,5.694917679E0,-8.062017441E0,-2.359323025E0
1.250317665E2,4.200001717E0,-8.297112465E0,-1.804188251E0
1.255317665E2,7.085746288E0,-7.284948349E0,-2.263610125E0
1.260317665E2,4.023531437E0,-7.730611801E0,-1.957328916E0
1.265317665E2,6.052046776E0,-8.586644173E0,-1.708475351E0
1.270317665E2,4.377070904E0,-8.893523216E0,-8.201399446E-1
1.275317665E2,5.366502762E0,-9.067601204E0,-2.775674343E0
1.280317665E2,4.436293125E0,-7.817949772E0,-2.233700037E0
1.285317665E2,6.007181168E0,-8.012965202E0,-7.292127013E-1
1.290317665E2,4.135993958E0,-8.049455643E0,-2.511267424E0
1.295317665E2,6.109474182E0,-7.725227833E0,-2.145763636E0
1.300317665E2,4.893920422E0,-8.769096375E0,-1.386640668E0
1.305317665E2,2.551945448E0,-8.882157326E0,-2.093719877E-2
1.310317665E2,6.430112839E0,-7.567899704E0,-2.806182861E0
1.315317665E2,4.758726120E0,-7.060023308E0,-1.877767563E0
1.320317665E2,7.460821152E0,-8.931210518E0,-7.034898400E-1
1.325317665E2,5.468796253E0,-1.055414295E1,-2.818745136E0
1.330317665E2,7.889734268E0,-8.831310272E0,-1.845464468E0
1.335317665E2,4.849055290E0,-1.093400288E1,-2.051845312E0
1.340317665E2,5.489135265E0,-9.147162437E0,-1.938186288E0
1.345317665E2,4.307080746E0,-9.020941734E0,-9.026923180E-1
1.350317665E2,6.339185238E0,-8.924032211E0,-2.024327993E0
1.355317665E2,5.545366287E0,-9.338588715E0,-1.558325768E0
1.360317665E2,6.548557281E0,-1.019521904E1,-2.906083107E0
1.365317665E2,4.841876507E0,-9.698708534E0,-1.816750646E0
1.370317665E2,5.125426292E0,-9.092725754E0,1.992024779E-1
1.375317665E2,4.037888050E0,-9.255437851E0,-1.274178028E0
1.380317665E2,6.783053875E0,-9.004789352E0,-1.195214868E0
1.385317665E2,4.121636868E0,-8.526823044E0,-1.288534999E0
1.390317665E2,5.401797295E0,-8.018946648E0,-5.485545993E-1
1.395317665E2,3.309871912E0,-7.921439171E0,-1.135394335E0
1.400317665E2,4.663012981E0,-7.530810833E0,-3.337987661E-1
1.405317665E2,4.292723656E0,-8.403593063E0,-3.367897868E-1
1.410317665E2,4.211368084E0,-7.295117855E0,-3.972085714E-1
1.415317665E2,4.371088982E0,-8.277371407E0,1.722832322E-1
1.420317665E2,3.223730326E0,-7.878966808E0,-4.947160780E-1
1.425317665E2,3.680161238E0,-8.421539307E0,-4.594219327E-1
1.430317665E2,3.065804005E0,-8.012366295E0,-6.903293133E-1
1.435317665E2,4.584648132E0,-7.446464062E0,-8.889335990E-1
1.440317665E2,3.078366280E0,-7.430312634E0,-1.055832982E0
1.445317665E2,4.516452789E0,-7.490731239E0,6.520441771E-1
1.450317665E2,4.034298897E0,-7.631309509E0,-1.747956991E0
1.455317665E2,4.767699242E0,-7.922037601E0,-3.661018610E0
1.460317665E2,5.214558601E0,-7.173682213E0,-1.235892892E0
1.465317665E2,6.709474564E0,-9.689137459E0,-2.614158630E0
1.470317665E2,4.174877167E0,-7.884948730E0,-1.262213945E0
1.475317665E2,3.898506403E0,-7.877171993E0,-4.366901219E-1
1.480317665E2,5.155336380E0,-7.114459991E0,-2.717050076E0
1.485317665E2,4.273581028E0,-8.644669533E0,-1.911267042E0
1.490317665E2,6.503692150E0,-9.833304405E0,-1.835893154E0
1.495317665E2,4.487739086E0,-7.623532772E0,-1.802991867E0
1.500317665E2,4.564309120E0,-7.918448448E0,-1.920838356E0
1.505317665E2,4.061816216E0,-8.492725372E0,-1.016949639E-1
1.510317665E2,6.434898376E0,-5.807978630E0,-2.492124796E0
1.515317665E2,6.366703033E0,-9.952347755E0,-2.382055044E0
1.520317665E2,4.142574310E0,-1.008933640E1,-2.437089920E0
1.525317665E2,8.103293419E0,-9.909874916E0,-1.785045743E0
1.530317665E2,5.079364300E0,-8.818747520E0,-1.542772412E0
1.535317665E2,6.940980434E0,-1.042612648E1,-2.317448616E0
1.540317665E2,7.134200573E0,-8.906085968E0,-2.525624275E0
1.545317665E2,7.441678524E0,-1.038185883E1,-4.299304008E0
1.550317665E2,7.095915318E0,-9.541379929E0,-1.654636860E0
1.555317665E2,7.478168964E0,-9.038289070E0,-3.203391314E0
1.560317665E2,5.136193752E0,-1.008156013E1,-2.645265341E0
1.565317665E2,6.484549522E0,-9.135796547E0,-2.367697954E0
1.570317665E2,4.395017147E0,-1.034536839E1,-2.198405743E0
1.575317665E2,5.656632900E0,-1.050628567E1,-3.189034462E0
1.580317665E2,2.681756020E0,-8.274380684E0,-1.913061738E0
1.585317665E2,4.825126648E0,-8.625527382E0,-8.374879360E-1
1.590317665E2,3.874577999E0,-8.021938324E0,3.349951655E-2
1.595317665E2,5.169693470E0,-7.064808846E0,3.332005441E-1
1.600317665E2,3.661018610E0,-8.401798248E0,2.775674164E-1
1.605317665E2,3.391227961E0,-7.859824181E0,-1.646261930E0
1.610317665E2,3.888935089E0,-6.288337708E0,-1.735992789E0
1.615317665E2,4.466203690E0,-6.595815659E0,-2.595016241E0
1.620317665E2,4.300500393E0,-6.588637352E0,-4.486542568E-2
1.625317665E2,4.913063049E0,-6.233901024E0,-3.964308977E0
1.630317665E2,4.080958843E0,-8.319246292E0,-1.022931710E-1
1.635317665E2,5.454439163E0,-6.846463680E0,-3.681955814E0
1.640317665E2,4.080360889E0,-8.478368759E0,-1.694118381E0
1.645317665E2,5.487340450E0,-7.013961315E0,-6.098108292E0
1.650317665E2,5.513063431E0,-7.955537319E0,-3.262613773E0
1.655317665E2,5.943771362E0,-7.450053215E0,-3.249453068E0
1.660317665E2,7.942376614E0,-7.914260864E0,-1.028913736E0
1.665317665E2,7.055835724E0,-8.421539307E0,-1.305284739E0
1.670317665E2,7.896314621E0,-5.928217888E0,-1.976471543E0
1.675317665E2,6.908677101E0,-7.100102901E0,-1.320838094E0
1.680317665E2,7.711469173E0,-6.714260101E0,-9.906286001E-1
1.685317665E2,4.247858524E0,-9.923633575E0,-1.812563181E0
1.690317665E2,8.232506752E0,-8.912068367E0,-1.611566067E0
1.695317665E2,4.287938118E0,-9.914062500E0,-2.574677229E0
1.700317665E2,7.526623726E0,-1.155852985E1,-1.970489502E0
1.705317665E2,4.741377831E0,-1.131206894E1,-2.782254457E0
1.710317665E2,7.114459991E0,-1.060319519E1,-2.760120869E0
1.715317665E2,3.609572887E0,-1.003908730E1,-2.737389088E0
1.720317665E2,6.026922226E0,-9.700503349E0,-2.573480844E0
1.725317665E2,4.594219685E0,-9.907482147E0,-1.871187329E0
1.730317665E2,6.209972858E0,-9.660423279E0,-2.243271112E0
1.735317665E2,4.131806374E0,-8.655437469E0,-1.400399446E0
1.740317665E2,4.745565414E0,-7.270591736E0,-8.470591903E-1
1.745317665E2,3.458825111E0,-7.923233986E0,-1.456630826E0
1.750317665E2,3.849453449E0,-8.047660828E0,-1.405185103E0
1.755317665E2,3.509672642E0,-8.204390526E0,-1.489532113E0
1.760317665E2,4.702494621E0,-6.733402729E0,-2.582453728E0
1.765317665E2,3.515654564E0,-7.884948730E0,3.092723191E-1
1.770317665E2,3.659822226E0,-6.534200668E0,-2.485544443E0
1.775317665E2,4.328018188E0,-7.478767395E0,1.735992789E0
1.780317665E2,6.079564095E0,-5.782854080E0,-1.877169371E0
1.785317665E2,4.729413986E0,-7.572087288E0,1.764108539E0
1.790317665E2,5.910272121E0,-5.822335720E0,-2.469393015E0
1.795317665E2,3.461816072E0,-8.322237015E0,3.762713671E-1
1.800317665E2,5.507081509E0,-5.596213818E0,-4.094717979E0
1.805317665E2,4.611567497E0,-8.444869041E0,-6.873382926E-1
1.810317665E2,5.723631859E0,-6.349354744E0,-2.847458839E0
1.815317665E2,6.613761902E0,-8.204390526E0,-2.088335991E0
1.820317665E2,5.069792747E0,-6.565905571E0,-4.815555573E0
1.825317665E2,7.325028419E0,-1.004387283E1,-1.470987678E0
1.830317665E2,8.257032394E0,-7.208976269E0,-2.227119684E0
1.835317665E2,8.028517723E0,-7.127022266E0,-2.518445730E0
1.840317665E2,4.621737003E0,-8.218747139E0,-1.156331539E0
1.845317665E2,7.765905857E0,-9.451649666E0,-1.250249863E0
1.850317665E2,4.950151920E0,-1.017129040E1,-2.152343988E0
1.855317665E2,8.947959900E0,-9.250652313E0,-1.426122308E0
1.860317665E2,3.643072367E0,-1.218544960E1,-2.313261271E0
1.865317665E2,8.510671616E0,-9.574281693E0,-1.427318692E0
1.870317665E2,4.205385685E0,-9.771091461E0,-1.432104349E0
1.875317665E2,7.229315281E0,-9.899705887E0,-1.257428288E0
1.880317665E2,4.261018753E0,-9.354740143E0,-1.430907965E0
1.885317665E2,7.067201614E0,-1.006421185E1,-1.008574724E0
1.890317665E2,3.643072367E0,-8.169096947E0,-8.979067206E-1
1.895317665E2,3.139383316E0,-8.212167740E0,-3.050848842E-1
1.900317665E2,3.835096598E0,-8.127222061E0,-7.657032609E-1
1.905317665E2,4.251447678E0,-7.536194801E0,-2.370688915E0
1.910317665E2,3.614358664E0,-8.272585869E0,1.083350420E0
1.915317665E2,4.973481655E0,-6.412764549E0,-2.640479803E0
1.920317665E2,5.407779217E0,-8.319246292E0,9.110672474E-1
1.925317665E2,4.348356724E0,-6.521039963E0,-4.246063709E0
1.930317665E2,6.799205780E0,-8.493324280E0,-3.318246841E0
1.935317665E2,6.375676155E0,-8.310871124E0,-3.662813187E0
1.940317665E2,9.011369705E0,-6.899703979E0,-2.571087837E0
1.945317665E2,6.283552170E0,-9.233304024E0,-1.575673699E0
1.950317665E2,7.724031448E0,-7.491329670E0,-1.417747378E0
1.955317665E2,4.529015064E0,-1.022991467E1,-1.490130305E0
1.960317665E2,8.867800713E0,-8.500502586E0,-2.863012314E0
1.965317665E2,3.077169895E0,-1.003908730E1,-2.504088879E0
1.970317665E2,9.402596474E0,-8.525029182E0,-1.414756417E0
1.975317665E2,1.698904037E0,-1.023170948E1,-7.244270444E-1
1.980317665E2,8.636893272E0,-8.779864311E0,2.267199457E-1
1.985317665E2,3.357728481E0,-1.133420277E1,-8.596215248E-1
1.990317665E2,8.872586250E0,-1.094118118E1,3.385843933E-1
1.995317665E2,4.614558697E0,-1.194975662E1,-1.795813441E0
2.000317665E2,7.023532867E0,-1.052961636E1,-7.262216806E-1
2.005317665E2,2.962314367E0,-1.074377346E1,-2.199602127E0
2.010317665E2,6.988238335E0,-1.021555805E1,-9.008977413E-1
2.015317665E2,3.096312523E0,-8.973084450E0,-1.290329576E0
2.020317665E2,7.007979393E0,-1.074497032E1,1.478764415E0
2.025317665E2,1.676770449E0,-9.993623734E0,-6.161518097E-1
2.030317665E2,6.588038921E0,-8.569893837E0,3.110669553E-1
2.035317665E2,2.696112871E0,-8.177471161E0,1.016949639E-1
2.040317665E2,6.013761520E0,-9.016156197E0,8.404789567E-1
2.045317665E2,2.776870728E0,-8.450253487E0,-1.004985452E0
2.050317665E2,4.167100430E0,-7.781459332E0,-1.486541033E0
2.055317665E2,1.020538807E0,-8.483154297E0,-2.193022013E0
2.060317665E2,3.542573929E0,-8.310871124E0,-1.142572761E0
2.065317665E2,3.525225878E0,-9.785448074E0,1.917847395E0
2.070317665E2,5.715256691E0,-5.651846886E0,-2.654836655E0
2.075317665E2,3.643072367E0,-7.733603001E0,1.389033556E0
2.080317665E2,4.746163845E0,-5.749354839E0,-3.186043262E0
2.085317665E2,3.094517946E0,-8.800801277E0,1.195214868E0
2.090317665E2,3.879363775E0,-6.684350014E0,-2.807379246E0
2.095317665E2,6.208776474E0,-1.033998489E1,8.027920127E-1
2.100317665E2,5.502295494E0,-6.897909641E0,-6.371488571E0
2.105317665E2,6.451049805E0,-6.565905571E0,-3.248256683E0
2.110317665E2,5.423332691E0,-9.498309135E0,-2.865405083E0
2.115317665E2,9.311669350E0,-7.376473904E0,-1.687538147E0
2.120317665E2,7.643871784E0,-8.555537224E0,-1.129412293E0
2.125317665E2,7.194021225E0,-6.217749596E0,-3.724428415E0
2.130317665E2,4.463810444E0,-1.073240757E1,-2.067398787E0
2.135317665E2,9.510871887E0,-6.974479675E0,-1.858026743E0
2.140317665E2,5.238486767E0,-1.003430176E1,-1.992024899E0
2.145317665E2,1.052183914E1,-5.701498032E0,-8.793623447E-1
2.150317665E2,7.587042332E0,-8.692526817E0,5.982056726E-3
2.155317665E2,6.374479294E0,-8.280363083E0,2.271386862E0
2.160317665E2,3.219542980E0,-1.183849049E1,4.785645306E-1
2.165317665E2,4.582853794E0,-1.099143124E1,-1.175474167E0
2.170317665E2,5.016552448E0,-8.084749222E0,-1.949552298E0
2.175317665E2,8.043473244E0,-7.674978733E0,-4.350151539E0
2.180317665E2,3.359523058E0,-9.440881729E0,-9.248259664E-1
2.185317665E2,7.205985546E0,-1.168175983E1,-1.231107235E0
2.190317665E2,5.471189022E0,-9.552147865E0,-1.240678549E0
2.195317665E2,5.141577721E0,-8.261219978E0,-2.096112728E0
2.200317665E2,4.091726780E0,-7.881958008E0,-6.747759581E-1
2.205317665E2,2.812762976E0,-8.261817932E0,-1.066002488E0
2.210317665E2,4.798805714E0,-7.711469173E0,2.281556368E0
2.215317665E2,7.146164894E0,-6.282355785E0,-2.212164640E0
2.220317665E2,7.144968510E0,-8.632107735E0,-1.925624013E0
2.225317665E2,7.582256794E0,-8.612366676E0,-8.805587292E-1
2.230317665E2,6.259624004E0,-7.108478069E0,-6.329016089E-1
2.235317665E2,7.112665176E0,-1.186959648E1,-1.542772412E0
2.240317665E2,6.119643688E0,-9.826724052E0,-2.609373093E0
2.245317665E2,4.040280819E0,-9.677771568E0,-7.674978375E-1
2.250317665E2,6.570691109E0,-1.014377308E1,-1.676770449E0
2.255317665E2,4.575077057E0,-9.323633194E0,-1.397408366E0
2.260317665E2,6.875177860E0,-7.985447407E0,-1.599601984E0
2.265317665E2,4.090530396E0,-7.623532772E0,-2.596212626E-1
2.270317665E2,3.702294827E0,-7.496115208E0,-1.983051777E0
2.275317665E2,3.229114056E0,-7.679764271E0,-7.597211599E-1
2.280317665E2,2.783450842E0,-7.682157040E0,-1.001396298E0
2.285317665E2,2.918047190E0,-7.363313675E0,9.936196208E-1
2.290317665E2,5.184050083E0,-5.016552448E0,-1.733600020E0
2.295317665E2,3.359523058E0,-7.167101860E0,2.723032236E0
2.300317665E2,4.195814610E0,-5.510072231E0,-3.677170277E0
2.305317665E2,3.528217077E0,-7.945367813E0,1.030708313E0
2.310317665E2,4.717449665E0,-5.852844238E0,-2.721237659E0
2.315317665E2,3.080160856E0,-8.604590416E0,-5.425725579E-1
2.320317665E2,2.827120066E0,-7.744370461E0,-1.135394335E0
2.325317665E2,2.177468538E0,-8.993423462E0,9.062815905E-1
2.330317665E2,2.359323025E0,-8.811569214E0,-1.850250125E0
2.335317665E2,3.656233072E0,-9.366703987E0,-1.352542996E0
2.340317665E2,6.827321053E0,-7.451249599E0,-2.111665964E0
2.345317665E2,6.533602238E0,-7.756334782E0,-2.324028969E0
2.350317665E2,7.301100254E0,-7.487740040E0,-2.664407969E0
2.355317665E2,8.024331093E0,-6.435496330E0,-2.502892494E0
2.360317665E2,5.686542988E0,-7.698906898E0,-1.946561217E0
2.365317665E2,7.351947784E0,-8.078168869E0,-4.050450325E0
2.370317665E2,2.533401012E0,-9.588638306E0,-3.884747505E0
2.375317665E2,7.822735310E0,-9.577870369E0,-3.402593851E0
2.380317665E2,4.214358807E0,-1.122891808E1,-2.228316069E0
2.385317665E2,6.613761902E0,-1.038784122E1,-2.603390932E0
2.390317665E2,2.234896421E0,-1.079282665E1,-5.934200287E-1
2.395317665E2,8.793025017E0,-1.126181984E1,-6.574280262E-1
2.400317665E2,3.281157970E0,-1.148734283E1,-2.890529871E0
2.405317665E2,9.000003815E0,-1.093161011E1,-9.972088337E-1
2.410317665E2,2.448455811E0,-1.080957603E1,-2.621337175E0
2.415317665E2,1.075454140E1,-8.595019341E0,-5.340780258E0
2.420317665E2,2.706880569E0,-9.390632629E0,-2.686541557E0
2.425317665E2,6.837490559E0,-1.044526863E1,-1.017547846E0
2.430317665E2,4.381856441E0,-8.773882866E0,-1.502692580E0
2.435317665E2,4.673780918E0,-8.142177582E0,-1.342971683E0
2.440317665E2,3.154936552E0,-8.117650986E0,-1.594816327E0
2.445317665E2,4.158725739E0,-7.752745152E0,8.356932998E-1
2.450317665E2,2.651247501E0,-8.665607452E0,-6.855437160E-1
2.455317665E2,2.391626120E0,-7.845467091E0,-1.464407444E0
2.460317665E2,3.619144201E0,-8.359326363E0,2.979064286E-1
2.465317665E2,4.395017147E0,-7.368697166E0,-1.580459356E0
2.470317665E2,4.409373760E0,-7.774878979E0,1.896311939E-1
2.475317665E2,4.782055855E0,-6.406184196E0,-3.132802963E0
2.480317665E2,2.675175667E0,-9.467203140E0,-1.577468276E0
2.485317665E2,3.702294827E0,-7.794021606E0,-2.702095032E0
2.490317665E2,2.967100143E0,-8.487939835E0,-1.465603828E0
2.495317665E2,3.445664644E0,-8.248658180E0,-1.336391449E0
2.500317665E2,4.897509575E0,-7.883752346E0,1.572682738E0
2.505317665E2,5.548357487E0,-6.739983082E0,-2.405983210E0
2.510317665E2,4.276572227E0,-8.718249321E0,7.668996453E-1
2.515317665E2,6.279963017E0,-5.345565796E0,-5.655436516E0
2.520317665E2,7.381259441E0,-8.851649284E0,-3.509672642E0
2.525317665E2,7.672585964E0,-6.241677761E0,-8.931210637E-1
2.530317665E2,6.522834301E0,-6.471388817E0,-1.258624673E0
2.535317665E2,7.698906898E0,-1.134078312E1,-2.335394859E0
2.540317665E2,7.143772125E0,-1.112183952E1,-1.906481385E0
2.545317665E2,6.138188362E0,-1.051765156E1,-1.679761529E0
2.550317665E2,7.107879639E0,-9.911071777E0,-2.262413740E0
2.555317665E2,5.683551788E0,-9.349356651E0,-1.844268084E0
2.560317665E2,7.981259823E0,-7.743174076E0,-1.436890006E0
2.565317665E2,3.935595036E0,-9.186644554E0,-6.987041831E-1
2.570317665E2,4.423730850E0,-6.728617191E0,-1.196411371E0
2.575317665E2,4.296313286E0,-7.465606689E0,-3.176472187E-1
2.580317665E2,1.931606054E0,-8.036892891E0,-5.383851007E-2
2.585317665E2,3.181257725E0,-7.419544697E0,-5.252245665E-1
2.590317665E2,3.600001574E0,-7.232904434E0,-5.886343718E-1
2.595317665E2,4.844867706E0,-7.282555580E0,7.812566161E-1
2.600317665E2,5.442475319E0,-5.562116146E0,-2.233101845E0
2.605317665E2,4.159922123E0,-6.926623344E0,2.331805706E0
2.610317665E2,5.589633465E0,-4.985445976E0,-1.657627940E0
2.615317665E2,3.874577999E0,-7.050451756E0,1.216750264E0
2.620317665E2,4.878366947E0,-5.239085197E0,-3.396611691E0
2.625317665E2,2.839084148E0,-8.808578491E0,-1.185045362E0
2.630317665E2,4.770092010E0,-5.578267574E0,-3.361317635E0
2.635317665E2,3.938585997E0,-9.011369705E0,-2.908475876E0
2.640317665E2,5.389832973E0,-6.819544315E0,-3.922434568E0
2.645317665E2,6.382256031E0,-8.732605934E0,-2.818745136E0
2.650317665E2,7.460821152E0,-7.655836105E0,-3.288934708E0
2.655317665E2,8.120043755E0,-6.449255466E0,-1.855035782E0
2.660317665E2,5.255835056E0,-9.157930374E0,-1.174277663E0
2.665317665E2,7.384250641E0,-9.122636795E0,-2.198405743E0
2.670317665E2,4.624129772E0,-9.870991707E0,-6.831508875E-1
2.675317665E2,8.901300430E0,-1.146042442E1,-2.606980324E0
2.680317665E2,4.723432064E0,-9.979267120E0,-1.807777524E0
2.685317665E2,8.514859200E0,-1.006062317E1,-1.529611826E0
2.690317665E2,4.936991215E0,-1.069771194E1,-1.893919110E0
2.695317665E2,7.203592777E0,-9.512067795E0,-2.626122952E0
2.700317665E2,3.987638950E0,-8.688937187E0,-1.745564103E0
2.705317665E2,4.868197441E0,-7.566105366E0,-1.046261668E0
2.710317665E2,4.697709084E0,-7.151548862E0,-1.751546144E0
2.715317665E2,2.636890650E0,-8.419146538E0,-1.946561217E0
2.720317665E2,4.052245140E0,-7.259823799E0,-1.587039590E0
2.725317665E2,2.692523718E0,-8.467002869E0,-6.622136831E-1
2.730317665E2,5.251049519E0,-6.430710793E0,-3.246462107E0
2.735317665E2,5.426921844E0,-9.297312737E0,-2.869592667E0
2.740317665E2,6.894320011E0,-8.545966148E0,-3.211168051E0
2.745317665E2,2.352742910E0,-7.909475327E0,-2.324627161E0
2.750317665E2,4.825725079E0,-8.490931511E0,-9.571290761E-2
2.755317665E2,5.962913990E0,-8.288737297E0,1.496710539E0
2.760317665E2,3.519243956E0,-4.633700848E0,-4.287938118E0
2.765317665E2,5.316852093E0,-7.964509964E0,-4.018745422E0
2.770317665E2,4.624129772E0,-8.213363647E0,-6.398407936E0
2.775317665E2,7.135396957E0,-9.610772133E0,-3.579662561E0
2.780317665E2,7.578667641E0,-1.145025444E1,-3.020938635E0
2.785317665E2,4.478167534E0,-8.175078392E0,-1.652842283E0
2.790317665E2,5.042873859E0,-7.482954502E0,-7.974081635E-1
2.795317665E2,3.855435371E0,-7.722237110E0,-1.365703583E0
2.800317665E2,5.532206059E0,-8.603393555E0,2.120040894E0
2.805317665E2,4.921437740E0,-6.551548481E0,-4.905286312E0
2.810317665E2,6.698108673E0,-6.047859192E0,-1.989033818E0
2.815317665E2,6.174678802E0,-1.084128094E1,-1.866401672E0
2.820317665E2,6.495915413E0,-9.010173798E0,-3.042474031E0
2.825317665E2,3.867997885E0,-8.179863930E0,-1.718046665E0
2.830317665E2,5.516652584E0,-7.148557663E0,-1.300499082E0
2.835317665E2,5.109872818E0,-8.096115112E0,2.835494876E-1
2.840317665E2,5.215157032E0,-6.866204739E0,-3.598805189E0
2.845317665E2,6.355337143E0,-7.231110096E0,-1.916052699E0
2.850317665E2,4.488935471E0,-1.073420238E1,-3.053241730E0
2.855317665E2,6.624529362E0,-8.041080475E0,-2.152343988E0
2.860317665E2,5.426921844E0,-7.432106972E0,-1.624128342E0
2.865317665E2,4.032504559E0,-6.573681831E0,-1.567897081E0
2.870317665E2,4.450650215E0,-7.274180889E0,1.932204217E-1
2.875317665E2,4.616353035E0,-6.586842537E0,-2.562114954E0
2.880317665E2,4.789234638E0,-6.663413048E0,1.903490424E0
2.885317665E2,4.621737003E0,-5.401797295E0,-3.635894060E0
2.890317665E2,3.799802303E0,-1.019222832E1,-1.802991867E0
2.895317665E2,7.081558704E0,-8.432307243E0,-1.730608940E0
2.900317665E2,5.468796253E0,-1.178225899E1,-2.682952404E0
2.905317665E2,4.815555573E0,-7.823333740E0,-3.224328518E0
2.910317665E2,5.594419479E0,-7.959724426E0,-1.469193101E0
2.915317665E2,3.209373474E0,-9.703494072E0,-1.587637782E0
2.920317665E2,4.863411903E0,-9.392427444E0,-2.907279432E-1
2.925317665E2,4.525425911E0,-8.596215248E0,-8.117650747E-1
2.930317665E2,5.353940487E0,-8.251648903E0,-3.942175210E-1
2.935317665E2,5.023731232E0,-8.219944000E0,-6.909275651E-1
2.940317665E2,5.327619553E0,-8.175676346E0,-7.740781307E-1
2.945317665E2,5.434698582E0,-8.267800331E0,-6.334998012E-1
2.950317665E2,5.021936417E0,-8.303094864E0,-5.694918036E-1
2.955317665E2,5.214558601E0,-8.112865448E0,-5.521438122E-1
2.960317665E2,5.937191010E0,-8.028517723E0,-4.689932466E-1
2.965317665E2,5.444269657E0,-8.261219978E0,-3.780659735E-1
2.970317665E2,5.194219589E0,-8.203792572E0,-3.732803464E-1
2.975317665E2,5.382056236E0,-8.030312538E0,-3.649054468E-1
2.980317665E2,5.606981754E0,-8.109873772E0,-3.014956415E-1
2.985317665E2,5.782854080E0,-7.950751305E0,-4.749752879E-1
2.990317665E2,5.571687698E0,-7.965108395E0,-4.899304509E-1
2.995317665E2,5.420939922E0,-8.127820015E0,-6.334998012E-1
3.000317665E2,5.755336761E0,-7.822735310E0,-4.612165689E-1
3.005317665E2,5.441278458E0,-8.184649467E0,-9.062815905E-1
3.010317665E2,5.648257732E0,-7.891529083E0,-9.774680734E-1
3.015317665E2,5.469992638E0,-8.108677864E0,-7.112665176E-1
3.020317665E2,5.352146149E0,-8.185248375E0,-5.395814776E-1
3.025317665E2,5.481358528E0,-8.120043755E0,-6.376872063E-1
3.030317665E2,5.531009674E0,-8.084151268E0,-4.719842672E-1
3.035317665E2,5.507081509E0,-7.917252064E0,-8.291130662E-1
3.040317665E2,5.458626747E0,-8.051250458E0,-9.080761671E-1
3.045317665E2,5.682355404E0,-8.005187988E0,-7.196413875E-1
3.050317665E2,5.533402443E0,-8.014161110E0,-7.148557901E-1
3.055317665E2,5.787639618E0,-7.947162151E0,-4.223332107E-1
3.060317665E2,5.581258774E0,-7.982456207E0,-8.356932998E-1
3.065317665E2,5.687141418E0,-7.907680511E0,-7.238288522E-1
3.070317665E2,5.409573555E0,-7.972885132E0,-9.206385016E-1
3.075317665E2,6.020341873E0,-7.808378696E0,-8.243274093E-1
3.080317665E2,5.727221012E0,-8.253443718E0,-5.635097623E-1
3.085317665E2,5.849255085E0,-7.773084164E0,-1.352542996E0
3.090317665E2,5.956333637E0,-7.937591076E0,-7.004988194E-1
3.095317665E2,5.789434433E0,-7.831110477E0,-1.161715388E0
3.100317665E2,5.744568825E0,-8.012965202E0,-5.563312769E-1
3.105317665E2,5.538786411E0,-7.935796261E0,-7.734799385E-1
3.110317665E2,5.724828243E0,-7.982456207E0,-5.395814776E-1
3.115317665E2,5.704489231E0,-8.112865448E0,-7.100701332E-1
3.120317665E2,5.637490273E0,-7.831110477E0,-6.041877270E-1
3.125317665E2,5.504688263E0,-8.033304214E0,-8.356932998E-1
3.130317665E2,5.672185898E0,-8.017151833E0,-6.765705943E-1
3.135317665E2,5.739185333E0,-7.922037601E0,-6.077769399E-1
3.140317665E2,5.508277893E0,-8.024331093E0,-7.262216806E-1
3.145317665E2,5.686542988E0,-7.998009682E0,-5.521438122E-1
3.150317665E2,5.631507874E0,-8.008178711E0,-5.563312769E-1
3.155317665E2,5.516054630E0,-8.054241180E0,-5.730810165E-1
3.160317665E2,5.584847927E0,-7.982456207E0,-7.405785918E-1
3.165317665E2,5.679364681E0,-7.856832981E0,-7.405785918E-1
3.170317665E2,5.667400360E0,-7.985447407E0,-1.030110121E0
3.175317665E2,5.637490273E0,-7.931608677E0,-7.369893789E-1
3.180317665E2,5.638686657E0,-7.985447407E0,-7.686942816E-1
3.185317665E2,5.345565796E0,-8.341380119E0,-7.716853023E-1
3.190317665E2,4.954339504E0,-8.602795601E0,-2.029113531E0
3.195317665E2,5.528616905E0,-8.435895920E0,-4.612165689E-1
3.200317665E2,5.390431404E0,-9.616155624E0,-8.021938205E-1
3.205317665E2,5.238486767E0,-7.642675400E0,-5.467599630E-1
3.210317665E2,5.047659397E0,-8.021938324E0,-1.378265858E0
3.215317665E2,6.116054535E0,-8.888737679E0,-1.692921966E-1
3.220317665E2,4.271786690E0,-8.360522270E0,-2.089532375E0
3.225317665E2,6.529414654E0,-7.904689789E0,-1.713261008E0
3.230317665E2,3.806382656E0,-8.754739761E0,2.841476798E-1
3.235317665E2,4.133002758E0,-8.088936806E0,-1.269392371E0
3.240317665E2,3.935595036E0,-9.159725189E0,-2.629113913E0
3.245317665E2,4.819144726E0,-6.720840454E0,-8.961120844E-1
3.250317665E2,4.669593334E0,-7.978867054E0,-1.615155339E-1
3.255317665E2,7.157530785E0,-6.462415695E0,-8.213363886E-1
3.260317665E2,5.974279881E0,-8.207381248E0,-1.223330617E0
3.265317665E2,7.345965385E0,-7.866404533E0,-1.856830359E0
3.270317665E2,2.590230465E0,-9.773484230E0,2.828316450E0
3.275317665E2,3.826721668E0,-6.827321053E0,-2.897109985E0
3.280317665E2,6.120840549E0,-8.151748657E0,1.609173268E-1
3.285317665E2,6.685546398E0,-6.832107067E0,-1.947757602E0
3.290317665E2,6.546762943E0,-8.313861847E0,3.194418252E-1
3.295317665E2,7.070192814E0,-6.196214199E0,-2.882753134E0
3.300317665E2,8.357531548E0,-8.811569214E0,7.782655358E-1
3.305317665E2,6.990631580E0,-5.873183250E0,-3.011965513E0
3.310317665E2,5.852844238E0,-8.775078773E0,-4.271188378E-1
3.315317665E2,4.893920422E0,-5.323431969E0,-3.310470104E0
3.320317665E2,5.282155991E0,-6.942774773E0,1.062413216E0
3.325317665E2,4.673780918E0,-4.502095699E0,-3.689732552E0
3.330317665E2,5.224130154E0,-5.779264927E0,1.350748420E0
3.335317665E2,4.660022259E0,-4.725226402E0,-1.737189293E0
3.340317665E2,4.307080746E0,-5.992824078E0,-3.649054468E-2
3.345317665E2,2.523829699E0,-3.342175007E0,-2.742174864E0
3.350317665E2,3.138186932E0,-7.374679565E0,-1.435693540E-2
3.355317665E2,4.426722050E0,-7.189833641E0,-1.483550072E0
3.360317665E2,3.710071564E0,-9.094520569E0,-1.438684583E0
3.365317665E2,7.339983463E0,-6.618547440E0,-6.652047038E-1
3.370317665E2,2.442473650E0,-7.462615490E0,-1.133001566E0
3.375317665E2,5.039284706E0,-7.486543655E0,-2.931207716E-1
3.380317665E2,2.548954248E0,-9.412167549E0,-2.084746838E0
3.385317665E2,3.726222992E0,-8.499305725E0,9.451649338E-2
3.390317665E2,2.450250387E0,-8.989236832E0,-3.625126183E-1
3.395317665E2,5.063212872E0,-7.722237110E0,-1.764706731E0
3.400317665E2,5.399404526E0,-7.246663570E0,1.236491084E0
3.405317665E2,7.299903870E0,-8.266005516E0,-2.898904562E0
3.410317665E2,7.984251022E0,-7.707880020E0,-9.206385016E-1
3.415317665E2,5.732006550E0,-9.542576790E0,-3.018545866E0
3.420317665E2,8.878568649E0,-7.639684677E0,-2.586043119E0
3.425317665E2,7.564310551E0,-1.014377308E1,1.313061476E0
3.430317665E2,9.617950439E0,-8.071588516E0,-2.620738983E0
3.435317665E2,7.920242786E0,-9.818349838E0,-8.362914920E-1
3.440317665E2,8.952746391E0,-6.847062111E0,-3.635894060E0
3.445317665E2,7.103094101E0,-1.225005531E1,3.714857101E-1
3.450317665E2,9.290732384E0,-9.673583984E0,-2.906681299E0
3.455317665E2,6.486343861E0,-1.125404263E1,6.999006122E-2
3.460317665E2,1.135035419E1,-5.642275810E0,-3.888336718E-1
3.465317665E2,4.719842434E0,-1.004327488E1,-6.233302951E-1
3.470317665E2,7.940581799E0,-8.776873589E0,-3.780659735E-1
3.475317665E2,4.370490551E0,-1.021914768E1,-1.519442350E-1
3.480317665E2,1.001276588E1,-9.022735596E0,1.704886109E-1
3.485317665E2,3.591028690E0,-1.120020485E1,-2.061416626E0
3.490317665E2,1.062293625E1,-1.163689518E1,4.594219327E-1
3.495317665E2,3.600001574E0,-1.136889839E1,-1.998006850E-1
3.500317665E2,9.401998520E0,-1.060020447E1,-1.052841991E-1
3.505317665E2,5.444269657E0,-1.260060406E1,-1.116850019E0
3.510317665E2,7.280761242E0,-9.641280174E0,5.455635786E-1
3.515317665E2,3.579662561E0,-9.824930191E0,-9.332008362E-1
3.520317665E2,9.079565048E0,-9.718449593E0,7.178468257E-2
3.525317665E2,3.874577999E0,-9.574879646E0,-1.061216831E0
3.530317665E2,6.787839413E0,-8.994022369E0,-5.850451589E-1
3.535317665E2,4.240081787E0,-8.994022369E0,-3.942175210E-1
3.540317665E2,6.077769279E0,-9.964909554E0,3.475574851E-1
3.545317665E2,5.319842815E0,-8.309076309E0,-3.415754437E-1
3.550317665E2,6.527620316E0,-5.353940487E0,2.428714931E-1
3.555317665E2,4.831707001E0,-6.477969170E0,1.427318692E0
3.560317665E2,5.380859852E0,-5.621338367E0,1.357926875E-1
3.565317665E2,5.091926575E0,-5.777470112E0,-1.173679471E0
3.570317665E2,5.026124001E0,-5.900700569E0,-9.870393574E-2
3.575317665E2,6.036493301E0,-5.612365723E0,-4.510470629E-1
3.580317665E2,4.621138573E0,-5.806782246E0,-8.165507317E-1
3.585317665E2,5.279763222E0,-5.270790100E0,-1.399801224E-1
3.590317665E2,5.390431404E0,-5.767899036E0,-8.039883971E-1
3.595317665E2,5.706283569E0,-5.251647472E0,1.793420553E0
3.600317665E2,5.636293888E0,-5.524429321E0,-8.919246197E-1
3.605317665E2,6.257829189E0,-5.444868088E0,2.193620205E0
3.610317665E2,6.053841114E0,-4.462016106E0,-2.118246317E0
3.615317665E2,4.570291042E0,-7.725826263E0,7.292127013E-1
3.620317665E2,3.877569199E0,-5.760122299E0,-2.576471806E0
3.625317665E2,2.898904562E0,-6.682555676E0,1.079761267E0
3.630317665E2,2.721835852E0,-6.123831272E0,-2.501696110E0
3.635317665E2,4.159922123E0,-6.088537216E0,7.322037220E-1
3.640317665E2,4.039084435E0,-5.684150219E0,-1.765903115E0
3.645317665E2,3.231507063E0,-6.910471916E0,8.165507317E-1
3.650317665E2,4.696512699E0,-4.418346882E0,-4.156930923E0
3.655317665E2,5.351547718E0,-5.758327484E0,6.317051649E-1
3.660317665E2,3.455235958E0,-6.205187321E0,-1.862812400E0
3.665317665E2,4.272384644E0,-7.575676441E0,-1.351944804E-1
3.670317665E2,4.136591911E0,-6.818347931E0,-1.563709617E0
3.675317665E2,4.560719967E0,-8.221738815E0,-8.261220455E-1
3.680317665E2,4.396811485E0,-6.039484501E0,-1.058824062E0
3.685317665E2,2.976671457E0,-7.342974663E0,-8.913264275E-1
3.690317665E2,5.370690346E0,-4.339384079E0,-1.872383714E0
3.695317665E2,2.890529871E0,-7.524828911E0,-4.133601189E-1
3.700317665E2,4.255635262E0,-7.510472298E0,2.333002090E-1
3.705317665E2,3.378665686E0,-7.905886173E0,-9.439685345E-1
3.710317665E2,4.980062008E0,-8.042875290E0,1.094716311E0
3.715317665E2,2.150549412E0,-7.570890903E0,-1.791625977E0
3.720317665E2,3.232105255E0,-9.220144272E0,5.982056726E-3
3.725317665E2,3.044866800E0,-8.510671616E0,-1.526620865E0
3.730317665E2,4.977071285E0,-7.036095142E0,-4.654040039E-1
3.735317665E2,3.764508247E0,-8.014161110E0,-1.457827210E0
3.740317665E2,2.582453728E0,-8.786444664E0,-9.876375198E-1
3.745317665E2,2.343171597E0,-8.203792572E0,-7.034898400E-1
3.750317665E2,5.115854740E0,-8.316255569E0,-7.716853023E-1
3.755317665E2,4.140779495E0,-7.319046497E0,-3.480360508E0
3.760317665E2,5.128417015E0,-6.769893646E0,-1.896311998E0
3.765317665E2,3.080759048E0,-8.809176445E0,-4.785645306E-1
3.770317665E2,4.478167534E0,-7.564310551E0,-8.297112584E-1
3.775317665E2,4.277170658E0,-7.617550850E0,-8.213363886E-1
3.780317665E2,5.200201988E0,-6.549753666E0,-9.140582681E-1
3.785317665E2,3.672384501E0,-8.804390907E0,-1.049850941E0
3.790317665E2,3.999603033E0,-7.465606689E0,-5.665007830E-1
3.795317665E2,3.412165165E0,-9.467801094E0,-1.788634956E-1
3.800317665E2,3.643072367E0,-7.588238716E0,-9.655039310E-1
3.805317665E2,3.621536970E0,-7.912466049E0,-5.742774606E-1
3.810317665E2,3.772883177E0,-8.117650986E0,3.062812984E-1
3.815317665E2,3.178864956E0,-8.210372925E0,-2.297109663E-1
3.820317665E2,4.803591251E0,-7.379465103E0,-3.158525825E-1
3.825317665E2,2.825325251E0,-7.764111042E0,-2.033899307E0
3.830317665E2,5.722435474E0,-7.256234646E0,-2.027917206E-1
3.835317665E2,4.002593994E0,-8.746364594E0,-1.017547846E0
3.840317665E2,6.150750637E0,-8.786444664E0,-1.822134495E0
3.845317665E2,3.600001574E0,-9.424730301E0,-1.550549030E0
3.850317665E2,7.371688366E0,-9.298508644E0,-1.394417405E0
3.855317665E2,5.070989609E0,-9.960124016E0,-9.762716293E-1
3.860317665E2,5.750551224E0,-9.644869804E0,-2.562114954E0
3.865317665E2,4.963910580E0,-9.743574142E0,-1.746760488E0
3.870317665E2,8.273183823E0,-9.952347755E0,-1.458425403E0
3.875317665E2,5.462215900E0,-9.696913719E0,-1.204786181E0
3.880317665E2,9.933204651E0,-1.105603695E1,-1.151545882E0
3.885317665E2,6.375676155E0,-9.422935486E0,-1.244267821E0
3.890317665E2,9.195018768E0,-9.957133293E0,-1.129412293E0
3.895317665E2,5.472983360E0,-1.051884842E1,-1.611566067E0
3.900317665E2,9.205786705E0,-9.998409271E0,-9.266205430E-1
3.905317665E2,4.158725739E0,-1.056550884E1,-6.909275651E-1
3.910317665E2,8.673383713E0,-9.638289452E0,-7.495517135E-1
3.915317665E2,4.147359848E0,-9.771091461E0,-1.456630826E0
3.920317665E2,9.982855797E0,-7.198806763E0,-1.676172256E0
3.925317665E2,6.461817741E0,-9.123234749E0,-1.939382792E0
3.930317665E2,9.019744873E0,-7.381259441E0,-1.435693622E0
3.935317665E2,7.237690449E0,-8.354539871E0,-2.638087034E0
3.940317665E2,7.478168964E0,-7.864011765E0,-8.165507317E-1
3.945317665E2,7.902894974E0,-4.562514782E0,-4.844867706E0
3.950317665E2,5.921638012E0,-6.748956203E0,1.902294010E-1
3.955317665E2,7.454838753E0,-5.194219589E0,-7.334001660E-1
3.960317665E2,2.783450842E0,-7.256833076E0,2.538186550E0
3.965317665E2,3.147758245E0,-6.608976364E0,-1.780260086E0
3.970317665E2,4.755136967E0,-5.693721294E0,7.980063558E-1
3.975317665E2,4.334598064E0,-5.551348686E0,-3.308077335E0
3.980317665E2,4.505086899E0,-6.442675114E0,1.228116274E0
3.985317665E2,4.820341110E0,-5.133202553E0,-3.446861029E0
3.990317665E2,4.880161762E0,-7.195816040E0,1.010967612E0
3.995317665E2,4.733003139E0,-5.276772022E0,-2.939582586E0
4.000317665E2,4.484149456E0,-6.337988853E0,1.280758262E0
4.005317665E2,4.005585194E0,-5.327619553E0,-3.738785267E0
4.010317665E2,5.229514122E0,-6.723831654E0,6.299105883E-1
4.015317665E2,4.106083870E0,-6.138188362E0,-2.630908489E0
4.020317665E2,4.335794449E0,-6.846463680E0,-1.925624013E0
4.025317665E2,4.427918434E0,-5.466403484E0,-2.675175667E0
4.030317665E2,2.270190477E0,-9.079565048E0,-7.100701332E-1
4.035317665E2,4.911866665E0,-6.607779503E0,-3.475574970E0
4.040317665E2,3.254238844E0,-8.014759064E0,-1.986042738E0
4.045317665E2,2.882154942E0,-8.614161491E0,-1.140179992E0
4.050317665E2,3.137588739E0,-7.660621643E0,3.732803464E-1
4.055317665E2,5.039284706E0,-7.613961697E0,8.147560954E-1
4.060317665E2,3.821935892E0,-7.590033531E0,-7.166503668E-1
4.065317665E2,4.996213913E0,-7.787441254E0,2.548356056E-1
4.070317665E2,3.168097258E0,-7.524828911E0,-6.478567123E-1
4.075317665E2,5.468796253E0,-6.588038921E0,-6.861419082E-1
4.080317665E2,2.968894720E0,-7.657032490E0,-1.679761529E0
4.085317665E2,5.112864017E0,-6.440282345E0,-1.634896040E0
4.090317665E2,3.348157167E0,-7.158128738E0,-1.348355532E0
4.095317665E2,4.954339504E0,-6.438487530E0,-8.027920127E-1
4.100317665E2,4.136591911E0,-7.392625332E0,-9.427721500E-1
4.105317665E2,4.715056896E0,-6.604190350E0,-6.921239495E-1
4.110317665E2,4.085146427E0,-8.333602905E0,-8.721838593E-1
4.115317665E2,4.767699242E0,-6.736393929E0,-1.531406492E-1
4.120317665E2,2.975475073E0,-7.636693478E0,-1.222134113E0
4.125317665E2,4.366901219E-1,-3.796811342E0,-1.060618639E0
4.130317665E2,3.606581926E0,-8.639286041E0,-7.543373108E-1
4.135317665E2,3.941577196E0,-7.255038261E0,-3.655036688E-1
4.140317665E2,3.930211306E0,-7.301698208E0,-6.735795736E-1
4.145317665E2,3.970290899E0,-6.250052929E0,-1.623530149E0
4.150317665E2,3.761517286E0,-7.266404152E0,-8.632107973E-1
4.155317665E2,3.988237143E0,-6.650850773E0,3.493520916E-1
4.160317665E2,4.104887009E0,-7.068397999E0,-9.026923180E-1
4.165317665E2,3.606581926E0,-7.518248558E0,-8.309076428E-1
4.170317665E2,3.691527128E0,-6.851847649E0,-1.628913999E0
4.175317665E2,3.214757204E0,-7.199405193E0,-2.030908108E0
4.180317665E2,4.402793884E0,-7.274180889E0,-1.514058471E0
4.185317665E2,3.362514019E0,-7.219744205E0,-1.371685624E0
4.190317665E2,3.520440340E0,-7.936394691E0,-1.128215909E0
4.195317665E2,1.855633974E0,-7.344769001E0,-1.448854089E0
4.200317665E2,2.494517565E0,-7.899903774E0,-1.480558991E0
4.205317665E2,3.665804386E0,-8.000402451E0,1.156331539E0
4.210317665E2,3.930211306E0,-8.363512993E0,2.045863420E-1
4.215317665E2,3.071187973E0,-7.580461979E0,-2.883351147E-1
4.220317665E2,4.103092670E0,-7.156334400E0,-5.820540786E-1
4.225317665E2,4.991427898E0,-8.026723862E0,-1.052842021E0
4.230317665E2,3.900300980E0,-8.251648903E0,-5.036891699E-1
4.235317665E2,5.672784328E0,-8.377870560E0,1.606182218E0
4.240317665E2,3.946362734E0,-8.215158463E0,-3.888336718E-1
4.245317665E2,3.422932863E0,-8.806783676E0,6.777670383E-1
4.250317665E2,3.345165968E0,-8.070392609E0,-7.178468257E-2
4.255317665E2,3.719642878E0,-9.807581902E0,2.312663078E0
4.260317665E2,5.459224701E0,-8.718249321E0,-1.237687469E0
4.265317665E2,6.404987812E0,-9.131011009E0,1.417747438E-1
4.270317665E2,4.954339504E0,-7.919046402E0,-4.372883439E-1
4.275317665E2,3.681357622E0,-9.531808853E0,-1.118644550E-1
4.280317665E2,4.555934429E0,-9.362516403E0,-1.426122308E0
4.285317665E2,4.634299278E0,-1.029093170E1,1.956132531E0
4.290317665E2,3.183650494E0,-8.757730484E0,-1.127617717E0
4.295317665E2,3.479164124E0,-1.049491978E1,7.214360237E-1
4.300317665E2,3.946362734E0,-8.796015739E0,-4.115654826E-1
4.305317665E2,4.336990833E0,-9.040083885E0,1.466202021E0
4.310317665E2,4.529015064E0,-9.170493126E0,2.596212626E-1
4.315317665E2,5.385645390E0,-8.359326363E0,-1.645065546E-1
4.320317665E2,3.700500250E0,-7.630113125E0,-1.031904817E0
4.325317665E2,3.509672642E0,-9.330811501E0,1.896311939E-1
4.330317665E2,3.471387386E0,-8.840881348E0,-1.600200176E0
4.335317665E2,4.527220249E0,-8.565108299E0,6.203392744E-1
4.340317665E2,3.528815269E0,-8.746364594E0,-6.077769399E-1
4.345317665E2,4.473381996E0,-5.633901119E0,-2.309073806E-1
4.350317665E2,4.131208420E0,-8.142177582E0,-5.473581553E-1
4.355317665E2,6.107679844E0,-6.707680225E0,-1.280758262E0
4.360317665E2,3.908077478E0,-8.528019905E0,-1.571486235E0
4.365317665E2,3.632304668E0,-7.387241840E0,-1.454836130E0
4.370317665E2,4.858626366E0,-9.215956688E0,1.215553880E0
4.375317665E2,5.097908497E0,-5.186442852E0,-2.252842426E0
4.380317665E2,6.013761520E0,-9.034101486E0,1.641476393E0
4.385317665E2,5.665007591E0,-5.588437080E0,-2.577668190E0
4.390317665E2,5.654838085E0,-7.655237675E0,1.850848317E0
4.395317665E2,5.114060402E0,-4.819144726E0,-3.909872293E0
4.400317665E2,3.965505362E0,-8.558527946E0,2.203191519E0
4.405317665E2,5.554339409E0,-5.134997368E0,-3.895515203E0
4.410317665E2,4.783850670E0,-8.207381248E0,2.884547710E0
4.415317665E2,6.058627129E0,-5.415555954E0,-3.454039574E0
4.420317665E2,4.407579422E0,-1.011565781E1,2.005185366E0
4.425317665E2,6.081358910E0,-6.002395630E0,-3.844667673E0
4.430317665E2,5.103292465E0,-7.739584923E0,1.095912814E0
4.435317665E2,6.058627129E0,-6.711269379E0,-4.401597023E0
4.440317665E2,4.683351994E0,-8.599804878E0,2.117647976E-1
4.445317665E2,7.566105366E0,-6.485745907E0,-3.546163082E0
4.450317665E2,7.432106972E0,-8.682356834E0,-1.422533035E0
4.455317665E2,8.755936623E0,-8.494520187E0,-4.007977843E-1
4.460317665E2,9.227920532E0,-7.674380302E0,-9.032905698E-1
4.465317665E2,8.541180611E0,-8.566305161E0,5.856433511E-1
4.470317665E2,8.199604988E0,-6.757331371E0,-1.330409408E0
4.475317665E2,6.123831272E0,-7.550551891E0,-1.167697430E0
4.480317665E2,7.238886833E0,-7.117451191E0,4.480560422E-1
4.485317665E2,4.607379913E0,-9.269794464E0,1.351944804E-1
4.490317665E2,1.012522888E1,-1.140299606E1,-1.266999602E0
4.495317665E2,5.487938881E0,-1.154776192E1,-2.142174482E0
4.500317665E2,9.451649666E0,-1.109492016E1,-8.374879137E-3
4.505317665E2,4.925625324E0,-1.143888855E1,-7.447660565E-1
4.510317665E2,8.187042236E0,-9.882357597E0,-1.330409408E0
4.515317665E2,4.308875561E0,-9.835697174E0,-1.158126116E0
4.520317665E2,5.806782246E0,-9.604789734E0,-9.667003751E-1
4.525317665E2,4.439882278E0,-7.976474285E0,-4.247260094E-1
4.530317665E2,3.151945591E0,-8.285148621E0,4.630111754E-1
4.535317665E2,4.022933006E0,-7.845467091E0,-3.242274821E-1
4.540317665E2,4.300500393E0,-7.354340553E0,-1.198205948E0
4.545317665E2,5.140979290E0,-7.816753387E0,3.222533941E0
4.550317665E2,5.573482037E0,-5.855835438E0,-1.688136339E0
4.555317665E2,5.000999451E0,-8.952746391E0,5.060819983E-1
4.560317665E2,6.612565517E0,-7.710870743E0,-4.255635262E0
4.565317665E2,8.458029747E0,-7.799405575E0,-1.984846354E0
4.570317665E2,7.694121361E0,-8.480163574E0,-2.282752752E0
4.575317665E2,8.635098457E0,-6.645466805E0,-1.064207911E0
4.580317665E2,4.820341110E0,-8.780462265E0,-5.916253924E-1
4.585317665E2,8.682356834E0,-7.010970116E0,5.300102234E-1
4.590317665E2,3.274577856E0,-9.897911072E0,9.930214286E-2
4.595317665E2,8.518448830E0,-1.020778179E1,4.372883439E-1
4.600317665E2,4.268795490E0,-1.084128094E1,-2.823530734E-1
4.605317665E2,9.659226418E0,-1.124507046E1,1.465603858E-1
4.610317665E2,5.241477966E0,-1.224347496E1,-6.221339107E-1
4.615317665E2,8.994022369E0,-1.336451244E1,-4.414757788E-1
4.620317665E2,5.568696499E0,-1.062114143E1,-1.033699393E0
4.625317665E2,6.454041004E0,-9.710074425E0,-6.873382926E-1
4.630317665E2,4.460221291E0,-1.160519028E1,-2.787638307E-1
4.635317665E2,9.829715729E0,-1.107996559E1,7.788637877E-1
4.640317665E2,4.028316975E0,-1.144546890E1,-1.483550072E0
4.645317665E2,9.170493126E0,-9.568299294E0,8.679963946E-1
4.650317665E2,4.293920040E0,-1.069232845E1,4.785645381E-2
4.655317665E2,8.453244209E0,-9.812367439E0,-6.317051649E-1
4.660317665E2,3.463610888E0,-1.094776154E1,-1.004985452E0
4.665317665E2,8.276175499E0,-1.011386299E1,9.361918569E-1
4.670317665E2,3.260220766E0,-1.061934662E1,-3.098705411E-1
4.675317665E2,1.036391354E1,-1.096391296E1,1.180858016E0
4.680317665E2,3.324826956E0,-1.145085239E1,-8.566305041E-1
4.685317665E2,8.671588898E0,-1.014377308E1,-1.794616925E-3
4.690317665E2,5.124229908E0,-1.133539867E1,2.279163599E-1
4.695317665E2,7.031309128E0,-1.105962658E1,4.815555513E-1
4.700317665E2,5.674578667E0,-1.285065365E1,-1.710868180E-1
4.705317665E2,7.041478634E0,-1.354816151E1,1.089930773E0
4.710317665E2,5.348556995E0,-1.178704453E1,1.220339537E0
4.715317665E2,8.639883995E0,-1.116132164E1,1.831107497E0
4.720317665E2,2.829512835E0,-1.085085201E1,-7.800601721E-1
4.725317665E2,6.985845566E0,-1.175833035E1,1.645065546E0
4.730317665E2,2.403590441E0,-8.942576408E0,-9.714859724E-1
4.735317665E2,2.731407166E0,-8.779864311E0,5.856433511E-1
4.740317665E2,1.954337835E0,-7.352545738E0,-9.122636318E-1
4.745317665E2,5.087141037E0,-6.558128834E0,-6.616154313E-1
4.750317665E2,3.671786308E0,-9.727422714E0,1.164108157E0
4.755317665E2,4.161716938E0,-8.161319733E0,-2.860619545E0
4.760317665E2,3.962514400E0,-8.957531929E0,2.039881229E0
4.765317665E2,6.736992359E0,-6.775277138E0,-3.161516905E0
4.770317665E2,8.280961037E0,-1.010608673E1,-1.896910191E0
4.775317665E2,8.028517723E0,-1.017248726E1,-1.700100541E0
4.780317665E2,8.516654015E0,-6.823133945E0,-3.528815269E0
4.785317665E2,6.958328247E0,-7.535596848E0,-2.140379906E0
4.790317665E2,8.367102623E0,-9.328418732E0,-2.840878725E0
4.795317665E2,6.551548481E0,-8.840881348E0,-2.906681299E0
4.800317665E2,8.232506752E0,-6.993024349E0,-8.518448472E-1
4.805317665E2,3.848855257E0,-1.323589802E1,-4.066003799E0
4.810317665E2,8.014161110E0,-8.307880402E0,-2.719442844E0
4.815317665E2,5.273781300E0,-9.553942680E0,-8.679963946E-1
4.820317665E2,9.061020851E0,-8.213363647E0,-3.008974552E0
4.825317665E2,3.645465374E0,-1.042313576E1,-1.517049551E0
4.830317665E2,9.024530411E0,-7.566105366E0,3.110669553E-1
4.835317665E2,4.037290096E0,-9.355937004E0,-1.133001566E0
4.840317665E2,9.038289070E0,-9.636494637E0,-8.614161611E-1
4.845317665E2,4.385445595E0,-1.136231804E1,-1.461416483E0
4.850317665E2,8.864211082E0,-9.821340561E0,-6.221339107E-1
4.855317665E2,4.168296814E0,-1.089212894E1,-8.805587292E-1
4.860317665E2,9.071788788E0,-8.534002304E0,-2.362912297E-1
4.865317665E2,3.815953970E0,-1.101177025E1,-1.657029629E0
4.870317665E2,9.750154495E0,-1.015633583E1,2.979064286E-1
4.875317665E2,5.105087280E0,-1.084546852E1,-6.029912829E-1
4.880317665E2,8.928817749E0,-9.711869240E0,1.013360381E0
4.885317665E2,3.530011654E0,-9.384650230E0,-7.214360237E-1
4.890317665E2,1.064985561E1,-1.122532940E1,1.214357495E0
4.895317665E2,3.678964853E0,-1.084128094E1,-5.665007830E-1
4.900317665E2,9.305088997E0,-1.000498962E1,1.009771109E0
4.905317665E2,3.924229145E0,-1.038963604E1,-6.777670383E-1
4.910317665E2,8.202595711E0,-1.092682457E1,1.137787223E0
4.915317665E2,4.530211449E0,-1.024726295E1,-1.312463164E0
4.920317665E2,9.275776863E0,-1.150110245E1,1.529611826E0
4.925317665E2,2.526820660E0,-8.740383148E0,3.589233849E-3
4.930317665E2,8.604590416E0,-5.739783287E0,1.584048629E0
4.935317665E2,4.552943230E0,-1.183370399E1,1.896311939E-1
4.940317665E2,1.118106174E1,-1.138983536E1,-1.156331539E0
4.945317665E2,4.413561344E0,-9.767501831E0,-2.295913219E0
4.950317665E2,9.996016502E0,-8.684151649E0,3.069393158E0
4.955317665E2,4.934000492E0,-1.168834019E1,1.893919110E0
4.960317665E2,8.005187988E0,-9.966704369E0,1.369891018E-1
4.965317665E2,4.375276089E0,-9.210572243E0,1.265205026E0
4.970317665E2,4.922634602E0,-8.620741844E0,-8.679963946E-1
4.975317665E2,2.293520451E0,-8.893523216E0,1.818545163E-1
4.980317665E2,3.242872953E0,-8.065607071E0,-2.919243574E-1
4.985317665E2,4.016951084E0,-8.653642654E0,2.367099762E0
4.990317665E2,4.490131855E0,-7.299903870E0,-1.207179070E0
4.995317665E2,4.685146809E0,-8.610571861E0,1.564906001E0
5.000317665E2,3.711866140E0,-6.827919483E0,-5.481358528E0
5.005317665E2,5.289334297E0,-1.121934700E1,-1.671984792E0
5.010317665E2,4.457230568E0,-1.003071213E1,-4.504488468E0
5.015317665E2,7.345965385E0,-8.312665939E0,-1.430907965E0
5.020317665E2,5.927619934E0,-7.655237675E0,-2.611765862E0
5.025317665E2,8.621937752E0,-9.556933403E0,-2.665604353E0
5.030317665E2,8.757730484E0,-7.955537319E0,-4.721637249E0
5.035317665E2,1.019641590E1,-8.199604988E0,-1.970489502E0
5.040317665E2,7.468597889E0,-8.550153732E0,-3.117249727E0
5.045317665E2,7.218547821E0,-9.024530411E0,1.687538147E0
5.050317665E2,8.678169250E0,-7.607381344E0,1.853839397E0
5.055317665E2,6.373282909E0,-8.655437469E0,1.501496136E-1
5.060317665E2,4.911268711E0,-7.853243828E0,-2.861815929E0
5.065317665E2,6.532405853E0,-7.590033531E0,-1.752742529E-1
5.070317665E2,6.388836384E0,-6.782455921E0,-3.870390654E0
5.075317665E2,4.563711166E0,-7.953742504E0,-6.759724021E-1
5.080317665E2,4.994419098E0,-6.376274109E0,-4.613361835E0
5.085317665E2,5.133202553E0,-8.103892326E0,-6.747759581E-1
5.090317665E2,5.355136871E0,-6.519843578E0,-3.178864956E0
5.095317665E2,5.862415314E0,-9.257232666E0,-1.690529227E0
5.100317665E2,4.865206718E0,-6.607181549E0,-3.875176191E0
5.105317665E2,6.635895252E0,-8.998209953E0,-1.627119422E0
5.110317665E2,5.319842815E0,-7.546962738E0,-4.240081787E0
5.115317665E2,7.777870178E0,-7.883752346E0,-2.510669231E0
5.120317665E2,5.262415409E0,-8.524430275E0,-4.021138668E0
5.125317665E2,8.073383331E0,-7.275377274E0,-2.749951363E0
5.130317665E2,6.347560406E0,-8.998209953E0,-3.592225075E0
5.135317665E2,8.012965202E0,-1.008694363E1,-2.027917147E0
5.140317665E2,6.832107067E0,-9.038887978E0,-2.790031195E0
5.145317665E2,9.229715347E0,-9.052646637E0,-2.979662418E0
5.150317665E2,7.540980339E0,-9.686145782E0,-2.492124796E0
5.155317665E2,8.248658180E0,-9.058030128E0,-2.319243431E0
5.160317665E2,8.126026154E0,-7.578667641E0,-2.378465652E0
5.165317665E2,8.725427628E0,-7.152745247E0,-2.453241348E0
5.170317665E2,7.778468132E0,-8.963513374E0,-1.813759565E0
5.175317665E2,8.904291153E0,-7.998009682E0,-1.461416483E0
5.180317665E2,6.443273067E0,-9.757930756E0,-2.456830740E0
5.185317665E2,8.875576973E0,-8.156534195E0,-1.628315806E0
5.190317665E2,7.194021225E0,-1.036391354E1,-1.341775298E0
5.195317665E2,7.055835724E0,-7.338188648E0,-1.630110383E0
5.200317665E2,6.611967087E0,-9.364311218E0,-2.618944407E0
5.205317665E2,8.285746574E0,-6.682555676E0,-2.804388046E0
5.210317665E2,4.906482697E0,-1.161296654E1,-1.369890928E0
5.215317665E2,8.257032394E0,-8.861818314E0,-4.472783566E0
5.220317665E2,4.995017052E0,-1.012522888E1,-7.483552694E-1
5.225317665E2,9.830911636E0,-8.589036942E0,-1.698904037E0
5.230317665E2,4.085146427E0,-9.636494637E0,-7.639086246E-1
5.235317665E2,9.818947792E0,-1.008694363E1,-2.859423161E-1
5.240317665E2,5.806184292E0,-9.830911636E0,1.627119333E-1
5.245317665E2,8.861818314E0,-1.138385391E1,-8.404789567E-1
5.250317665E2,7.330412388E0,-1.241097260E1,1.328016520E-1
5.255317665E2,1.032921696E1,-9.148359299E0,-3.482155085E0
5.260317665E2,6.300900459E0,-1.137906837E1,-2.883949518E0
5.265317665E2,9.407382011E0,-1.139282703E1,-1.983051777E0
5.270317665E2,3.489931822E0,-1.085743237E1,-1.285543919E0
5.275317665E2,6.969096184E0,-9.118449211E0,-1.864607096E0
5.280317665E2,5.531009674E0,-9.640084267E0,-1.188036442E0
5.285317665E2,6.119045734E0,-8.565108299E0,-2.378465652E0
5.290317665E2,4.029513359E0,-8.778668404E0,-1.055832982E0
5.295317665E2,3.870390654E0,-9.019146919E0,4.211367965E-1
5.300317665E2,1.994417667E0,-8.831310272E0,-1.874178290E0
5.305317665E2,2.015953064E0,-8.120043755E0,-1.244267747E-1
5.310317665E2,2.241476536E0,-8.330014229E0,-1.716850281E0
5.315317665E2,1.668993831E0,-8.405387878E0,-1.495514214E-1
5.320317665E2,2.793022156E0,-9.327222824E0,-1.015753269E0
5.325317665E2,3.504288673E0,-6.998407841E0,-1.400399446E0
5.330317665E2,4.026522160E0,-7.925028801E0,9.332008362E-1
5.335317665E2,4.082155228E0,-7.419544697E0,-2.099103689E0
5.340317665E2,3.272184849E0,-8.103293419E0,7.226324677E-1
5.345317665E2,4.293920040E0,-6.534200668E0,-2.385046005E0
5.350317665E2,4.413561344E0,-8.634500504E0,7.369893789E-1
5.355317665E2,4.951946259E0,-5.593223095E0,-2.855833769E0
5.360317665E2,4.104289055E0,-7.261618614E0,1.944168448E0
5.365317665E2,3.702294827E0,-5.688935757E0,-3.463012457E0
5.370317665E2,5.505286694E0,-7.037889481E0,1.024128079E0
5.375317665E2,7.024130821E0,-6.323632240E0,-3.851248026E0
5.380317665E2,4.096512318E0,-9.238089561E0,-1.532602906E0
5.385317665E2,5.717051506E0,-6.935596466E0,-4.813162804E0
5.390317665E2,6.258427620E0,-8.196614265E0,-1.131206870E0
5.395317665E2,6.238687038E0,-7.182057381E0,-4.096512318E0
5.400317665E2,6.985845566E0,-9.224929810E0,-9.014959335E-1
5.405317665E2,6.168696880E0,-7.563114166E0,-3.848855257E0
5.410317665E2,6.990631580E0,-9.505488396E0,-9.840483069E-1
5.415317665E2,5.356333256E0,-8.478966713E0,-4.360919476E0
5.420317665E2,6.265605927E0,-9.981060982E0,-3.836891174E0
5.425317665E2,5.723631859E0,-8.007580757E0,-6.234499454E0
5.430317665E2,7.968099594E0,-8.432307243E0,-5.232504845E0
5.435317665E2,7.339385033E0,-8.949156761E0,-2.459821701E0
5.440317665E2,9.732208252E0,-5.513063431E0,-7.818548083E-1
5.445317665E2,7.342974663E0,-8.330014229E0,-1.182054400E0
5.450317665E2,9.182456970E0,-6.533602238E0,1.980060786E-1
5.455317665E2,1.007378292E1,-8.391031265E0,2.039881229E0
5.460317665E2,1.007079220E1,-7.278966427E0,1.574477315E0
5.465317665E2,7.371688366E0,-1.008156013E1,1.440479279E0
5.470317665E2,7.813164234E0,-6.671189308E0,-3.909872293E0
5.475317665E2,6.229115486E0,-7.415955544E0,-1.704886109E-1
5.480317665E2,7.749754429E0,-7.560122967E0,6.682555676E0
5.485317665E2,5.844469070E0,-7.883154392E0,3.254238844E0
5.490317665E2,9.877572060E0,-1.042492962E1,8.739784956E-1
5.495317665E2,3.744169235E0,-1.113500023E1,1.283749342E0
5.500317665E2,7.363911629E0,-1.422592926E1,6.460621357E-1
5.505317665E2,3.655036688E0,-1.256052399E1,5.180460811E-1
5.510317665E2,7.328617573E0,-1.396929836E1,6.334998012E-1
5.515317665E2,5.884549141E0,-1.249532032E1,1.676172256E0
5.520317665E2,9.019146919E0,-1.097946644E1,4.420739710E-1
5.525317665E2,4.213162422E0,-1.097228813E1,1.490130305E0
5.530317665E2,7.813164234E0,-1.142453194E1,6.442674994E-1
5.535317665E2,3.634099483E0,-1.159860992E1,-3.493520916E-1
5.540317665E2,7.167101860E0,-1.159202957E1,-1.368694544E0
5.545317665E2,4.265206337E0,-1.024128056E1,2.715853751E-1
5.550317665E2,7.500302792E0,-1.016829967E1,-1.236491084E0
5.555317665E2,3.115455151E0,-1.182413292E1,-2.356930375E-1
5.560317665E2,6.558128834E0,-1.075334454E1,-1.609771490E0
5.565317665E2,3.932005882E0,-1.022991467E1,-4.815555513E-1
5.570317665E2,5.516054630E0,-1.051406288E1,-2.707478762E0
5.575317665E2,5.081159115E0,-1.092562866E1,-1.097707391E0
5.580317665E2,6.600601196E0,-1.043091202E1,-1.919043779E0
5.585317665E2,5.227120876E0,-9.708279610E0,-1.161117196E0
5.590317665E2,6.101697922E0,-1.061934662E1,7.848458290E-1
5.595317665E2,4.610371113E0,-1.034776115E1,-5.635097623E-1
5.600317665E2,7.531409264E0,-1.033878803E1,4.468596280E-1
5.605317665E2,4.236492634E0,-1.017727280E1,-1.064806059E-1
5.610317665E2,7.771887779E0,-1.106560802E1,8.344969153E-1
5.615317665E2,4.700700283E0,-9.333803177E0,-1.609173268E-1
5.620317665E2,7.342376232E0,-1.099621677E1,3.984049559E-1
5.625317665E2,4.482355118E0,-9.756135941E0,-1.280160099E-1
5.630317665E2,7.293323517E0,-1.095613670E1,1.631905079E0
5.635317665E2,3.721437454E0,-1.056790161E1,-7.818548083E-1
5.640317665E2,7.454240799E0,-9.013164520E0,3.349951804E-1
5.645317665E2,4.600201607E0,-9.041280746E0,1.902294010E-1
5.650317665E2,6.342774391E0,-1.070847988E1,9.415757060E-1
5.655317665E2,4.971088886E0,-9.381061554E0,2.859423161E-1
5.660317665E2,7.095317364E0,-1.030827999E1,6.233302951E-1
5.665317665E2,4.254438877E0,-9.559925079E0,-6.951149702E-1
5.670317665E2,5.376074314E0,-1.022512913E1,1.359123230E0
5.675317665E2,3.375076294E0,-8.764310837E0,-3.714857101E-1
5.680317665E2,6.243472576E0,-1.029511929E1,1.264606714E0
5.685317665E2,3.992424488E0,-9.325428009E0,-5.341976285E-1
5.690317665E2,6.162714481E0,-1.059362411E1,-1.166501045E-1
5.695317665E2,3.865604877E0,-9.138788223E0,-4.007977992E-2
5.700317665E2,5.000999451E0,-9.156135559E0,9.361918569E-1
5.705317665E2,3.004188776E0,-8.832506180E0,-6.879365444E-2
5.710317665E2,4.083950043E0,-9.410373688E0,6.640082598E-1
5.715317665E2,3.045464993E0,-8.586644173E0,-6.951149702E-1
5.720317665E2,3.428316593E0,-8.304888725E0,-1.794616925E-3
5.725317665E2,3.253042459E0,-7.996813297E0,3.990031779E-1
5.730317665E2,2.456232548E0,-7.414160728E0,-3.505485058E-1
5.735317665E2,3.723232031E0,-7.869395256E0,-4.259224236E-1
5.740317665E2,3.046661377E0,-8.102097511E0,7.369893789E-1
5.745317665E2,3.568894863E0,-7.652246952E0,-1.467398524E0
5.750317665E2,3.735794306E0,-8.230113029E0,-1.645065546E-1
5.755317665E2,3.563511133E0,-8.309675217E0,-9.188438654E-1
5.760317665E2,3.731606960E0,-7.368099213E0,-2.679961324E-1
5.765317665E2,4.241278172E0,-8.395816803E0,4.103690982E-1
5.770317665E2,4.517649174E0,-6.549753666E0,-2.152343988E0
5.775317665E2,5.854040623E0,-8.386244774E0,1.450050473E0
5.780317665E2,4.339384079E0,-6.559325218E0,-1.692921996E0
5.785317665E2,3.343969584E0,-8.885149002E0,8.099704385E-1
5.790317665E2,4.959722996E0,-5.977271080E0,-3.193820000E0
5.795317665E2,4.675575256E0,-7.938189030E0,1.710269928E0
5.800317665E2,2.173879385E0,-5.758925915E0,-3.407379389E0
5.805317665E2,4.547559261E0,-7.405188084E0,2.045265198E0
5.810317665E2,3.670589924E0,-6.515058041E0,-1.692323804E0
5.815317665E2,4.889732838E0,-8.234300613E0,2.036890268E0
5.820317665E2,3.707678795E0,-6.166902065E0,-2.504687071E0
5.825317665E2,4.015156269E0,-6.501897335E0,1.889133453E0
5.830317665E2,5.078765869E0,-5.892923832E0,-2.714657307E0
5.835317665E2,4.415356159E0,-5.774479389E0,1.215553880E0
5.840317665E2,4.091726780E0,-5.466403484E0,-2.049452543E0
5.845317665E2,5.715256691E0,-7.199405193E0,2.752942562E0
5.850317665E2,3.396013498E0,-4.963910580E0,-4.002593994E0
5.855317665E2,5.454439163E0,-7.149754047E0,2.167897224E0
5.860317665E2,7.100102901E0,-4.686343193E0,-3.700500250E0
5.865317665E2,7.428517818E0,-7.201199532E0,5.802595019E-1
5.870317665E2,6.787241459E0,-6.458826542E0,-3.176471949E0
5.875317665E2,8.666803360E0,-9.764511108E0,-9.649057388E-1
5.880317665E2,6.267998695E0,-6.853044033E0,-4.019941807E0
5.885317665E2,6.466603279E0,-1.053918743E1,-2.530410051E0
5.890317665E2,7.950153351E0,-8.293522835E0,-2.618944407E0
5.895317665E2,6.851249218E0,-8.967103004E0,-2.351546526E0
5.900317665E2,7.100701332E0,-8.837890625E0,-2.733799934E0
5.905317665E2,8.575876236E0,-7.788039684E0,-1.906481385E0
5.910317665E2,5.420341492E0,-8.663214684E0,-1.001396298E0
5.915317665E2,8.685946465E0,-7.186842918E0,-1.794617064E-2
5.920317665E2,4.264009953E0,-9.840482712E0,-2.213360965E-1
5.925317665E2,9.920642853E0,-7.063612461E0,-4.612165689E-1
5.930317665E2,3.425325632E0,-1.045842934E1,1.501496136E-1
5.935317665E2,1.065643597E1,-1.080778122E1,-5.826523304E-1
5.940317665E2,4.880161762E0,-1.194317627E1,-1.704886109E-1
5.945317665E2,9.794421196E0,-1.038784122E1,-1.034895778E-1
5.950317665E2,3.895515203E0,-1.139761257E1,2.985046208E-1
5.955317665E2,9.605986595E0,-7.791030407E0,4.486542344E-1
5.960317665E2,3.056232691E0,-1.088913727E1,-1.944168359E-1
5.965317665E2,1.030229759E1,-9.454640388E0,5.850451589E-1
5.970317665E2,3.506681681E0,-1.053799057E1,4.450650215E-1
5.975317665E2,9.068798065E0,-9.845269203E0,8.087740541E-1
5.980317665E2,4.013361931E0,-9.512067795E0,5.084748194E-2
5.985317665E2,7.722237110E0,-1.090170002E1,1.670190215E0
5.990317665E2,3.733999729E0,-8.491529465E0,-8.793623000E-2
5.995317665E2,4.068994999E0,-9.381061554E0,1.609173179E0
6.000317665E2,2.882753134E0,-8.078168869E0,-7.764709592E-1
6.005317665E2,4.411168575E0,-7.993822098E0,3.188436031E-1
6.010317665E2,3.178864956E0,-8.635098457E0,-6.113662124E-1
6.015317665E2,6.787839413E0,-9.280562401E0,1.106680512E0
6.020317665E2,2.956332445E0,-1.016829967E1,-1.086341500E0
6.025317665E2,7.192824841E0,-8.383254051E0,-2.991028363E-3
6.030317665E2,3.309871912E0,-9.000602722E0,1.280160099E-1
6.035317665E2,4.396213531E0,-8.209176064E0,6.580262631E-2
6.040317665E2,3.982853174E0,-8.483752251E0,4.354937077E-1
6.045317665E2,4.676771641E0,-6.236892223E0,-1.601396561E0
6.050317665E2,4.494917393E0,-8.149953842E0,8.853443861E-1
6.055317665E2,4.036093712E0,-5.444269657E0,-1.341775298E0
6.060317665E2,6.213562012E0,-8.105687141E0,1.674975872E0
6.065317665E2,5.036293507E0,-5.799005508E0,-3.023331404E0
6.070317665E2,5.684150219E0,-8.730812073E0,2.507678032E0
6.075317665E2,5.928217888E0,-6.851847649E0,-4.396213531E0
6.080317665E2,5.162514687E0,-9.633503914E0,-3.768695593E-1
6.085317665E2,7.423732281E0,-9.260223389E0,-8.596215248E-1
6.090317665E2,8.081160545E0,-7.344769001E0,-1.397408366E0
6.095317665E2,4.176671982E0,-9.593423843E0,-2.967100143E-1
6.100317665E2,7.496115208E0,-1.142692471E1,8.973085135E-2
6.105317665E2,3.649652719E0,-1.075693417E1,2.428714931E-1
6.110317665E2,3.899104595E0,-8.488538742E0,1.782652885E-1
6.115317665E2,3.412165165E0,-8.915657043E0,5.581258535E-1
6.120317665E2,2.334198475E0,-8.749356270E0,-9.990034699E-1
6.125317665E2,3.742374659E0,-8.333602905E0,1.195214868E0
6.130317665E2,3.820141315E0,-7.476374149E0,-3.114258766E0
6.135317665E2,4.779065132E0,-7.916653633E0,-9.762716293E-1
6.140317665E2,5.725426197E0,-8.864211082E0,-8.536394835E-1
6.145317665E2,7.334599495E0,-9.888339996E0,2.249253243E-1
6.150317665E2,2.307877541E0,-1.210469151E1,-2.392822690E-2
6.155317665E2,7.701898098E0,-9.119645119E0,-2.276172638E0
6.160317665E2,3.351148129E0,-1.322094345E1,-2.566302419E-1
6.165317665E2,6.749554634E0,-8.545966148E0,-8.614161611E-1
6.170317665E2,3.058027267E0,-8.745168686E0,-7.884350419E-1
6.175317665E2,4.165306091E0,-8.579465866E0,-2.691925466E-1
6.180317665E2,4.204787731E0,-7.952546120E0,-5.407779217E-1
6.185317665E2,3.743571043E0,-8.524430275E0,6.382854581E-1
6.190317665E2,5.120640278E0,-1.002772141E1,-4.767699242E-1
6.195317665E2,8.156534195E0,-9.574281693E0,-6.640082598E-1
6.200317665E2,1.299661636E1,-1.300858021E1,-1.858026743E0
6.205317665E2,1.247019482E1,-1.098305607E1,-2.003988981E0
6.210317665E2,5.714060307E0,-1.144546890E1,-7.896314859E-1
6.215317665E2,6.385247231E0,-8.335397720E0,-1.183250785E0
6.220317665E2,5.505286694E0,-9.383454323E0,1.135394335E0
6.225317665E2,5.775077343E0,-5.345565796E0,-3.504886866E0
6.230317665E2,4.917848587E0,-1.027657509E1,7.830511928E-1
6.235317665E2,4.874777794E0,-5.995217323E0,-2.625524759E0
6.240317665E2,5.081159115E0,-9.266803741E0,1.907677889E0
6.245317665E2,4.575077057E0,-5.884549141E0,-6.806982040E0
6.250317665E2,4.767699242E0,-9.545567513E0,-2.374876440E-1
6.255317665E2,8.257032394E0,-8.577073097E0,-2.614757061E0
6.260317665E2,6.622136593E0,-6.607779503E0,-2.523231506E0
6.265317665E2,6.364908218E0,-1.184806156E1,-2.227119684E0
6.270317665E2,4.516452789E0,-8.374878883E0,-1.200000525E0
6.275317665E2,3.755535126E0,-8.220541954E0,1.166501045E0
6.280317665E2,6.787839413E0,-6.979265213E0,-1.483550072E0
6.285317665E2,4.579862595E0,-9.223134995E0,-1.325623751E0
6.290317665E2,4.877768993E0,-8.950352669E0,5.694918036E-1
6.295317665E2,5.330012321E0,-8.947361946E0,-2.775674164E-1
6.300317665E2,5.631507874E0,-9.482157707E0,-1.156929731E0
6.305317665E2,5.569294930E0,-9.656235695E0,3.541377485E-1
6.310317665E2,1.204187989E0,-1.340638733E1,-8.434699774E-1
6.315317665E2,9.068798065E0,-1.220459175E1,9.684949517E-1
6.320317665E2,3.336791277E0,-1.198505020E1,1.240678549E0
6.325317665E2,6.366104603E0,-6.391827583E0,1.820339799E0
6.330317665E2,3.061616659E0,-5.070989609E0,-2.989831924E0
6.335317665E2,5.961119175E0,-7.919046402E0,1.933400750E0
6.340317665E2,6.061617851E0,-5.371288776E0,-2.816950560E0
6.345317665E2,2.992224693E0,-1.119541931E1,-1.848455518E-1
6.350317665E2,3.876372576E0,-1.019162941E1,6.095715761E-1
6.355317665E2,3.888935089E0,-1.174098206E1,-5.180460811E-1
6.360317665E2,2.285145670E-1,-1.554018688E1,5.198407173E0
6.365317665E2,2.220539331E0,-1.303310680E1,-7.064808607E-1
6.370317665E2,7.961519241E0,-1.418584919E1,3.745963812E0
6.375317665E2,1.671386600E0,-1.180738354E1,2.739782035E-1
6.380317665E2,8.876175880E0,-1.155135155E1,1.597209096E0
6.385317665E2,1.709671736E0,-1.323230934E1,4.606183469E-1
6.390317665E2,1.032144070E1,-1.164945698E1,-8.297112584E-1
6.395317665E2,4.328018188E0,-1.489472294E1,2.901297510E-1
6.400317665E2,1.105842972E1,-1.066720295E1,-3.437887907E0
6.405317665E2,5.777470112E0,-1.107697392E1,4.402793646E-1
6.410317665E2,7.469195843E0,-7.173682213E0,-2.673381090E0
6.415317665E2,7.599604607E0,-6.356533527E0,-4.091726780E0
6.420317665E2,9.390632629E0,-6.282355785E0,-3.446861029E0
6.425317665E2,6.138188362E0,-6.990033150E0,-3.949951887E0
6.430317665E2,6.837490559E0,-7.607979774E0,1.020538807E0
6.435317665E2,4.736592293E0,-6.296114445E0,-3.153740168E0
6.440317665E2,4.808377266E0,-8.713463783E0,-5.443671346E-1
6.445317665E2,5.392225742E0,-6.529414654E0,-2.787040234E0
6.450317665E2,6.583851337E0,-8.108677864E0,6.580262631E-2
6.455317665E2,6.224927902E0,-8.261219978E0,-4.270590305E0
6.460317665E2,7.636095047E0,-8.307880402E0,-1.966900229E0
6.465317665E2,4.747360229E0,-8.674580574E0,1.944168359E-1
6.470317665E2,8.156534195E0,-9.893723488E0,4.624129832E-1
6.475317665E2,3.235096216E0,-8.210970879E0,1.004985496E-1
6.480317665E2,4.889732838E0,-8.602795601E0,9.092726111E-1
6.485317665E2,4.298706055E0,-9.467801094E0,6.089733839E-1
6.490317665E2,6.424130440E0,-8.237890244E0,-1.597209096E0
6.495317665E2,4.462016106E0,-8.756534576E0,-6.400800496E-2
6.500317665E2,6.141777515E0,-7.957331657E0,4.097708762E-1
6.505317665E2,4.610371113E0,-8.349156380E0,4.019941986E-1
6.510317665E2,5.112864017E0,-8.056035995E0,-1.196411327E-1
6.515317665E2,6.643671989E0,-8.678169250E0,5.180460811E-1
6.520317665E2,5.309075356E0,-9.077172279E0,-1.710868180E-1
6.525317665E2,4.847858906E0,-9.143573761E0,-8.853443861E-1
6.530317665E2,3.209971666E0,-1.040758228E1,-7.160521746E-1
6.535317665E2,1.163270760E1,-9.116654396E0,1.651047587E0
6.540317665E2,3.131008387E0,-1.238525009E1,6.538388133E-1
6.545317665E2,9.679565430E0,-9.721440315E0,-3.809373617E0
6.550317665E2,8.160721779E0,-7.685746193E0,-6.191428304E-1
6.555317665E2,7.174878597E0,-7.371089935E0,-5.886343718E-1
6.560317665E2,4.721637249E0,-7.261618614E0,-5.005784988E0
6.565317665E2,4.835296154E0,-6.180062771E0,1.100698471E0
6.570317665E2,4.047459602E0,-5.444269657E0,-1.958525300E0
6.575317665E2,6.806982040E0,-7.055835724E0,6.254838467E0
6.580317665E2,4.597210407E0,-6.591628075E0,-9.302098155E-1
6.585317665E2,3.850649834E0,-8.467600822E0,-1.543370634E-1
6.590317665E2,4.876572609E0,-7.823333740E0,-5.300102234E-1
6.595317665E2,5.658427238E0,-1.043749237E1,-7.782655358E-1
6.600317665E2,7.988438606E0,-9.734002113E0,-1.671984792E0
6.605317665E2,4.200600147E0,-1.074377346E1,5.006981492E-1
6.610317665E2,1.016650486E1,-1.030229759E1,-4.344169617E0
6.615317665E2,5.832505226E0,-1.402313709E1,-1.915454507E0
6.620317665E2,7.433901787E0,-7.317251682E0,-8.309076428E-1
6.625317665E2,6.340980053E0,-4.021736622E0,-5.644070625E0
6.630317665E2,4.073780537E0,-6.320042610E0,1.615753531E0
6.635317665E2,3.850649834E0,-4.485345840E0,-2.809173822E0
6.640317665E2,4.112065792E0,-9.202795982E0,1.884347796E-1
6.645317665E2,6.196214199E0,-6.596413612E0,-2.441875458E0
6.650317665E2,-4.342973232E-1,-9.641879082E0,4.307080746E0
6.655317665E2,3.408575773E0,-8.416155815E0,2.045863420E-1
6.660317665E2,2.344966173E0,-9.360722542E0,-4.510470629E-1
6.665317665E2,5.538786411E0,-9.404989243E0,-1.405783296E-1
6.670317665E2,2.477169752E0,-1.031426239E1,-5.730810165E-1
6.675317665E2,6.936194420E0,-1.154776192E1,-2.745763958E-1
6.680317665E2,1.973480463E0,-1.068933678E1,-9.110672474E-1
6.685317665E2,7.760521889E0,-1.001276588E1,-2.620140910E-1
6.690317665E2,1.934597135E0,-1.065763187E1,-7.178468108E-1
6.695317665E2,8.379665375E0,-1.013001442E1,6.795616150E-1
6.700317665E2,3.376870871E0,-1.105304623E1,-2.609373093E0
6.705317665E2,9.123234749E0,-1.050090218E1,-1.179063320E0
6.710317665E2,5.753541946E0,-1.185523987E1,1.770688742E-1
6.715317665E2,8.534002304E0,-7.540382385E0,-2.124826431E0
6.720317665E2,5.539982796E0,-1.033998489E1,-1.899901152E0
6.725317665E2,7.573882103E0,-8.648857117E0,3.014956415E-1
6.730317665E2,6.960123062E0,-8.491529465E0,-1.304686546E0
6.735317665E2,5.194219589E0,-8.730812073E0,2.414956331E0
6.740317665E2,3.952943087E0,-3.151945591E0,-3.340380430E0
6.745317665E2,3.763311863E0,-6.492326260E0,3.272185028E-1
6.750317665E2,3.855435371E0,-5.067998409E0,-2.761317253E0
6.755317665E2,3.320041418E0,-8.414361000E0,-8.482556343E-1
6.760317665E2,2.280958176E0,-7.277770042E0,-1.820339799E0
6.765317665E2,4.168296814E0,-1.025862885E1,-4.737788737E-1
6.770317665E2,4.737788677E0,-1.085503960E1,5.407779217E-1
6.775317665E2,3.228515863E0,-1.000498962E1,-4.295116663E-1
6.780317665E2,7.763513088E0,-1.393101311E1,1.148554921E0
6.785317665E2,3.002394199E0,-1.117328548E1,-3.254238665E-1
6.790317665E2,9.164510727E0,-9.911071777E0,-5.569294691E-1
6.795317665E2,2.231905222E0,-1.169492054E1,3.206382394E-1
6.800317665E2,9.931410789E0,-9.003593445E0,-6.095715761E-1
6.805317665E2,6.680760860E0,-8.943174362E0,2.378465652E0
6.810317665E2,8.306683540E0,-6.647261143E0,-2.213360928E-2
6.815317665E2,7.578667641E0,-6.734599113E0,-2.834298372E0
6.820317665E2,5.486144066E0,-5.640480995E0,-1.710868180E-1
6.825317665E2,5.341976643E0,-4.145565033E0,-3.236890793E0
6.830317665E2,2.997608662E0,-7.623532772E0,-6.855437160E-1
6.835317665E2,4.645066738E0,-5.631507874E0,-1.678565025E0
6.840317665E2,2.209771633E0,-8.328817368E0,-1.877169371E0
6.845317665E2,5.744568825E0,-8.656036377E0,3.302095234E-1
6.850317665E2,4.100101471E0,-9.257232666E0,-1.180858016E0
6.855317665E2,5.961717606E0,-9.855438232E0,1.013360381E0
6.860317665E2,4.557130814E0,-1.134197903E1,4.677968323E-1
6.865317665E2,7.535596848E0,-1.136112213E1,3.711866140E0
6.870317665E2,4.945366383E0,-1.076949692E1,1.944168359E-1
6.875317665E2,9.881160736E0,-1.109013462E1,-6.556333899E-1
6.880317665E2,5.036293507E0,-1.470808220E1,6.711867452E-1
6.885317665E2,7.598408222E0,-1.025085258E1,-1.761117458E0
6.890317665E2,4.023531437E0,-9.973284721E0,6.329016089E-1
6.895317665E2,4.917848587E0,-6.533602238E0,1.719243050E0
6.900317665E2,4.011567116E0,-4.494917393E0,-4.477569580E0
6.905317665E2,4.109074593E0,-5.207978249E0,8.165507317E-1
6.910317665E2,4.705485821E0,-5.251049519E0,-2.228316069E0
6.915317665E2,3.074178934E0,-6.490531445E0,3.074777126E-1
6.920317665E2,4.060021877E0,-6.851847649E0,5.521438122E-1
6.925317665E2,4.338785648E0,-8.541180611E0,-5.898307562E-1
6.930317665E2,4.528416634E0,-7.944170952E0,2.775674164E-1
6.935317665E2,4.137788773E0,-1.083470058E1,-6.239284873E-1
6.940317665E2,8.435297966E0,-1.017547798E1,1.369890928E0
6.945317665E2,3.468396425E0,-1.113978577E1,-5.204389095E-1
6.950317665E2,9.534799576E0,-1.080778122E1,4.001995921E-1
6.955317665E2,4.750350952E0,-1.110748291E1,1.911267042E0
6.960317665E2,7.730611801E0,-1.128096199E1,-7.908278704E-1
6.965317665E2,6.197410583E0,-1.015513897E1,-8.823533654E-1
6.970317665E2,1.264247799E1,-8.998807907E0,3.516252756E0
6.975317665E2,9.363713264E0,-9.148957253E0,1.290927768E0
6.980317665E2,7.887939930E0,-8.971290588E0,5.505286694E0
6.985317665E2,4.782654285E0,-7.275975227E0,-2.297109842E0
6.990317665E2,5.995217323E0,-7.801798344E0,1.939382792E0
6.995317665E2,4.756931305E0,-5.003990173E0,-4.351946354E0
7.000317665E2,3.085544825E0,-4.864010334E0,-6.634100676E-1
7.005317665E2,2.355733871E0,-6.239284992E0,-2.344966173E0
7.010317665E2,3.363112211E0,-5.142774105E0,2.662015259E-1
7.015317665E2,2.606980324E0,-6.260820389E0,-1.858624935E0
7.020317665E2,3.131606579E0,-7.663612843E0,-7.543373108E-1
7.025317665E2,2.654836655E0,-7.485945702E0,-1.935195327E0
7.030317665E2,2.051845312E0,-8.368897438E0,-2.035095692E0
7.035317665E2,2.759522676E0,-7.515257835E0,1.322034448E-1
7.040317665E2,3.982853174E0,-8.024331093E0,-1.917847395E0
7.045317665E2,3.604787350E0,-8.752944946E0,-7.052844763E-1
7.050317665E2,2.946162939E0,-8.218149185E0,-8.374879360E-1
7.055317665E2,3.833301783E0,-1.020957565E1,-6.095715761E-1
7.060317665E2,3.491726398E0,-9.903294563E0,-8.249256015E-1
7.065317665E2,9.663414001E0,-8.864809990E0,-7.160521746E-1
7.070317665E2,5.739783287E0,-1.009412193E1,-1.088734269E-1
7.075317665E2,8.687142372E0,-1.070907784E1,1.663011760E-1
7.080317665E2,4.835296154E0,-1.041356373E1,1.566700578E0
7.085317665E2,1.093878841E1,-1.138504982E1,1.208973646E0
7.090317665E2,5.868397713E0,-1.215853024E1,1.367498159E0
7.095317665E2,7.739584923E0,-1.066361427E1,1.992024779E-1
7.100317665E2,6.067001820E0,-1.165005493E1,3.692723513E0
7.105317665E2,1.133121204E1,-1.072163963E1,5.665007830E-1
7.110317665E2,5.944967747E0,-1.020778179E1,1.461416483E0
7.115317665E2,8.794819832E0,-7.546962738E0,-3.868596077E0
7.120317665E2,5.514857769E0,-9.933803558E0,-2.271985054E0
7.125317665E2,5.210371494E0,-8.397012711E0,-3.481557071E-1
7.130317665E2,6.872186661E0,-3.835096598E0,-6.771687984E0
7.135317665E2,4.621138573E0,-7.100102901E0,4.546363056E-1
7.140317665E2,4.631308079E0,-4.934000492E0,-3.793222189E0
7.145317665E2,3.705883980E0,-6.348756790E0,7.046862841E-1
7.150317665E2,3.911666870E0,-5.011766911E0,-2.017747641E0
7.155317665E2,3.443870068E0,-5.851647854E0,-1.415354609E0
7.160317665E2,2.603390932E0,-5.782256126E0,-1.054038405E0
7.165317665E2,1.278963685E0,-7.253841877E0,-4.133601189E-1
7.170317665E2,5.339583874E0,-7.445267677E0,7.022934556E-1
7.175317665E2,3.735794306E0,-8.373085022E0,-3.571287692E-1
7.180317665E2,3.281157970E0,-9.005388260E0,2.392822690E-2
7.185317665E2,5.216353416E0,-9.780662537E0,-6.580262445E-3
7.190317665E2,7.256234646E0,-8.979066849E0,-2.606382132E0
7.195317665E2,4.593023300E0,-1.024128056E1,9.559326172E-1
7.200317665E2,8.045866013E0,-1.313539982E1,1.611566067E0
7.205317665E2,5.041079044E0,-1.120499039E1,-6.041877344E-2
7.210317665E2,7.990232944E0,-1.206341553E1,3.768695593E-1
7.215317665E2,3.954139471E0,-1.079162979E1,3.050848842E-2
7.220317665E2,8.003393173E0,-1.003190899E1,-1.386042476E0
7.225317665E2,3.586242914E0,-1.249831104E1,1.088734269E-1
7.230317665E2,1.093878841E1,-8.960522652E0,-9.649057388E-1
7.235317665E2,7.466803074E0,-1.066600704E1,-7.788637877E-1
7.240317665E2,9.073583603E0,-8.561519623E0,-2.427518606E0
7.245317665E2,6.926623344E0,-9.577870369E0,-1.794616938E0
7.250317665E2,7.357331276E0,-9.348159790E0,3.924229145E-1
7.255317665E2,7.703094482E0,-5.139782906E0,-3.779463291E0
7.260317665E2,6.129215240E0,-6.970890522E0,2.268395901E0
7.265317665E2,7.176673412E0,-4.079164505E0,-3.782454491E0
7.270317665E2,3.707678795E0,-6.440282345E0,-2.727817893E-1
7.275317665E2,5.477769375E0,-4.998008251E0,-2.257030010E0
7.280317665E2,4.459024906E0,-6.947560310E0,-9.918249846E-1
7.285317665E2,4.503292084E0,-7.495516777E0,-6.795616150E-1
7.290317665E2,4.459024906E0,-8.955139160E0,-2.518445849E-1
7.295317665E2,6.435496330E0,-8.784649849E0,1.070189953E0
7.300317665E2,4.903491974E0,-8.014161110E0,8.973085135E-2
7.305317665E2,6.653841496E0,-9.169296265E0,1.444068432E0
7.310317665E2,5.148158073E0,-9.260223389E0,5.712863803E-1
7.315317665E2,9.914062500E0,-9.607781410E0,2.901297569E0
7.320317665E2,6.196214199E0,-1.074855900E1,1.658824325E0
7.325317665E2,1.066241741E1,-8.840881348E0,1.983051777E0
7.330317665E2,5.977271080E0,-1.184806156E1,5.084748268E-1
7.335317665E2,1.017727280E1,-1.029691410E1,-1.293918848E0
7.340317665E2,4.294518471E0,-1.061097240E1,3.571287692E-1
7.345317665E2,8.517251968E0,-9.434301376E0,-1.194616675E0
7.350317665E2,5.992824078E0,-1.125284672E1,6.340979785E-2
7.355317665E2,1.063370419E1,-1.035434151E1,-1.880758643E0
7.360317665E2,5.999404430E0,-1.086640549E1,2.826521635E0
7.365317665E2,8.730213165E0,-8.248658180E0,-3.014956474E0
7.370317665E2,9.404989243E0,-6.438487530E0,-1.108475089E0
7.375317665E2,7.183253765E0,-7.744968891E0,6.921239495E-1
7.380317665E2,7.208976269E0,-5.970690727E0,-3.427718401E0
7.385317665E2,6.760322094E0,-5.956932068E0,1.258624673E0
7.390317665E2,3.723232031E0,-5.464010715E0,-3.978067636E0
7.395317665E2,5.465207100E0,-5.664409637E0,3.792623878E-1
7.400317665E2,3.576073408E0,-4.569094658E0,-4.852644444E0
7.405317665E2,4.726422787E0,-5.745765209E0,1.042074203E0
7.410317665E2,3.778865099E0,-4.739583492E0,-3.293720484E0
7.415317665E2,3.568894863E0,-7.902296543E0,-3.625126183E-1
7.420317665E2,2.893520832E0,-7.859824181E0,-9.846464992E-1
7.425317665E2,2.987439156E0,-9.000003815E0,-5.850451589E-1
7.430317665E2,3.705285788E0,-1.052722359E1,4.749752879E-1
7.435317665E2,3.595814228E0,-9.732806206E0,-1.549352705E-1
7.440317665E2,4.214957237E0,-1.305703449E1,1.919043779E0
7.445317665E2,4.485345840E0,-1.161176968E1,-1.034895778E0
7.450317665E2,5.516054630E0,-1.154297638E1,-1.677966833E0
7.455317665E2,3.209373474E0,-1.248455238E1,-3.176472187E-1
7.460317665E2,1.070189953E1,-9.022735596E0,-5.084748268E-1
7.465317665E2,5.131408215E0,-1.157527924E1,-8.805587292E-1
7.470317665E2,1.135633659E1,-9.384650230E0,-2.088335991E0
7.475317665E2,5.745765209E0,-1.015693378E1,3.589234054E-1
7.480317665E2,9.411569595E0,-7.514659405E0,-1.695913076E0
7.485317665E2,7.529016495E0,-1.067378330E1,1.122832060E0
7.490317665E2,8.135597229E0,-7.196413994E0,-1.381256819E0
7.495317665E2,3.731606960E0,-6.942176819E0,-5.487938881E0
7.500317665E2,5.090131760E0,-5.310271740E0,1.285543919E0
7.505317665E2,3.889533281E0,-4.008575916E0,-3.094517946E0
7.510317665E2,4.315455437E0,-6.463612080E0,1.034895778E-1
7.515317665E2,3.169891834E0,-4.581058979E0,-3.054438114E0
7.520317665E2,4.525425911E0,-7.015756130E0,-9.056833982E-1
7.525317665E2,2.140978098E0,-6.579065800E0,-1.459621787E0
7.530317665E2,3.645465374E0,-9.406784058E0,-7.884350419E-1
7.535317665E2,4.524229527E0,-9.413364410E0,4.055834413E-1
7.540317665E2,4.187439442E0,-1.041236782E1,-1.495514214E-1
7.545317665E2,7.301100254E0,-1.248754311E1,2.970689297E0
7.550317665E2,4.155734539E0,-1.187438202E1,1.831107497E0
7.555317665E2,7.864609718E0,-1.174038410E1,2.221735716E0
7.560317665E2,5.232504845E0,-9.567701340E0,1.048056364E0
7.565317665E2,8.970093727E0,-1.077069283E1,3.070589542E0
7.570317665E2,6.398407936E0,-1.126720333E1,2.274377823E0
7.575317665E2,5.619544029E0,-9.340383530E0,2.285145670E-1
7.580317665E2,4.156930923E0,-7.191628456E0,4.223332107E-1
7.585317665E2,3.265604734E0,-7.315456867E0,1.754537225E0
7.590317665E2,4.710869789E0,-5.382654667E0,-8.422735929E-1
7.595317665E2,4.977071285E0,-6.489335060E0,2.234896421E0
7.600317665E2,4.425525665E0,-5.008776188E0,-3.315255880E0
7.605317665E2,3.284149170E0,-6.430710793E0,1.221535921E0
7.610317665E2,3.372085333E0,-5.150550842E0,-2.455035925E0
7.615317665E2,1.064207911E0,-8.088936806E0,-9.607182741E-1
7.620317665E2,3.755535126E0,-6.885347366E0,-2.241476536E0
7.625317665E2,1.977667928E0,-6.894320011E0,-7.848458290E-1
7.630317665E2,1.465603828E0,-8.636295319E0,2.093719877E-2
7.635317665E2,3.184248686E0,-9.325428009E0,-1.247258782E0
7.640317665E2,5.874977589E0,-1.038006496E1,4.175475538E-1
7.645317665E2,3.463012457E0,-1.041057301E1,-5.455635786E-1
7.650317665E2,8.634500504E0,-9.335597992E0,-1.113858938E0
7.655317665E2,3.791427374E0,-1.066241741E1,-1.236491084E0
7.660317665E2,1.053619671E1,-1.018564796E1,1.188634634E0
7.665317665E2,4.301098824E0,-1.063848972E1,1.231107235E0
7.670317665E2,1.033101177E1,-9.847063065E0,6.669993401E-1
7.675317665E2,4.395017147E0,-1.052961636E1,1.453639716E-1
7.680317665E2,1.004148006E1,-7.438687325E0,-7.674978375E-1
7.685317665E2,7.232904434E0,-1.015813065E1,-1.928615093E0
7.690317665E2,9.385847092E0,-7.704888821E0,-1.718046665E0
7.695317665E2,6.811768055E0,-9.261420250E0,-3.050848842E-1
7.700317665E2,7.866404533E0,-7.250252724E0,7.657032460E-2
7.705317665E2,4.260420799E0,-6.716054916E0,-4.722235680E0
7.710317665E2,4.930410862E0,-7.192824841E0,2.315055847E0
7.715317665E2,4.561916351E0,-5.337191105E0,-3.777070522E0
7.720317665E2,5.106283665E0,-6.712465763E0,1.255035520E0
7.725317665E2,4.527220249E0,-5.329414368E0,-3.148954630E0
7.730317665E2,3.923032761E0,-7.288537979E0,-2.805584669E-1
7.735317665E2,4.337589264E0,-6.995417118E0,-5.808576941E-1
7.740317665E2,3.339184046E0,-9.076574326E0,-6.161518097E-1
7.745317665E2,4.676771641E0,-8.744570732E0,-9.212367237E-2
7.750317665E2,2.577668190E0,-7.616952896E0,-2.614757061E0
7.755317665E2,6.134000778E0,-8.188239098E0,1.708475351E0
7.760317665E2,2.930609465E0,-7.414759159E0,-9.553344250E-1
7.765317665E2,5.761917114E0,-1.195573807E1,1.037288666E0
7.770317665E2,4.214957237E0,-1.047757244E1,-1.100698411E-1
7.775317665E2,6.138188362E0,-1.160160065E1,1.226919770E0
7.780317665E2,3.534797192E0,-1.138804150E1,7.034898400E-1
7.785317665E2,6.546762943E0,-1.269272804E1,7.974081635E-1
7.790317665E2,3.710669756E0,-1.151306629E1,4.767699242E-1
7.795317665E2,6.982256413E0,-1.440299797E1,-3.050250769E0
7.800317665E2,3.038884640E0,-1.125882912E1,-1.256231871E-2
7.805317665E2,9.960722923E0,-1.134796143E1,9.607182741E-1
7.810317665E2,4.066602230E0,-1.114397335E1,4.666004330E-2
7.815317665E2,9.403793335E0,-1.010608673E1,-8.183453679E-1
7.820317665E2,6.034698486E0,-1.133599758E1,9.732806087E-1
7.825317665E2,9.690931320E0,-6.023332596E0,-2.965903759E0
7.830317665E2,9.073583603E0,-8.653642654E0,8.165507317E-1
7.835317665E2,9.619147301E0,-6.466603279E0,-2.294118643E0
7.840317665E2,9.544371605E0,-5.535196781E0,-1.704886079E0
7.845317665E2,5.617151260E0,-6.371488571E0,5.060819983E-1
7.850317665E2,4.099503517E0,-5.626124382E0,-5.277370453E0
7.855317665E2,4.198805332E0,-6.473781586E0,2.379662037E0
7.860317665E2,4.092923164E0,-5.806782246E0,-1.970489502E0
7.865317665E2,1.504487276E0,-6.081358910E0,-1.986042738E0
7.870317665E2,3.043670416E0,-7.195816040E0,1.038485050E0
7.875317665E2,3.035295486E0,-8.912068367E0,-2.539382935E0
7.880317665E2,4.526023865E0,-9.751948357E0,-7.818548083E-1
7.885317665E2,2.776870728E0,-1.023649502E1,-1.059422255E0
7.890317665E2,3.972085476E0,-1.055115128E1,-8.470591903E-1
7.895317665E2,-3.174079180E0,-1.542892075E1,1.995614052E0
7.900317665E2,5.514259815E0,-1.214477158E1,8.219345808E-1
7.905317665E2,3.573082447E0,-1.120140076E1,1.839482427E0
7.910317665E2,8.225327492E0,-1.194616699E1,-2.908475876E0
7.915317665E2,4.423730850E0,-1.219980621E1,-7.812566161E-1
7.920317665E2,7.429116249E0,-1.070070267E1,-1.260419369E0
7.925317665E2,6.985845566E0,-1.118584728E1,-1.413560033E0
7.930317665E2,7.248457909E0,-8.407182693E0,-2.199602127E0
7.935317665E2,8.149953842E0,-7.904091358E0,-2.719442844E0
7.940317665E2,6.090929985E0,-9.101100922E0,-7.052844763E-1
7.945317665E2,6.143572330E0,-5.871986866E0,-5.252843857E0
7.950317665E2,4.197010994E0,-7.205387115E0,1.245464206E0
7.955317665E2,5.473581791E0,-4.894518852E0,-4.018745422E0
7.960317665E2,3.348157167E0,-6.576673031E0,8.739784956E-1
7.965317665E2,4.291527271E0,-4.176073551E0,-3.930211306E0
7.970317665E2,4.224528313E0,-6.275177479E0,1.189831018E0
7.975317665E2,4.298706055E0,-6.011966705E0,-1.687538147E0
7.980317665E2,2.493321180E0,-8.175078392E0,-1.209571838E0
7.985317665E2,3.064009428E0,-7.696514130E0,-8.003991842E-1
7.990317665E2,2.598605394E0,-9.081958771E0,-1.189831018E0
7.995317665E2,4.737788677E0,-9.660423279E0,1.205982566E0
8.000317665E2,4.442275047E0,-1.041356373E1,-5.982056726E-3
8.005317665E2,6.568896294E0,-1.244447231E1,2.231307030E0
8.010317665E2,4.085146427E0,-1.057328510E1,2.536391914E-1
8.015317665E2,8.135597229E0,-9.667003632E0,1.668993831E0
8.020317665E2,2.716451883E0,-1.129053402E1,3.828516304E-1
8.025317665E2,8.556734085E0,-1.032443142E1,6.795616150E-1
8.030317665E2,-1.040877849E-1,-1.221595764E1,-6.317051649E-1
8.035317665E2,8.416753769E0,-1.080239773E1,-1.013360381E0
8.040317665E2,3.463610888E0,-1.368215942E1,4.630111754E-1
8.045317665E2,8.876175880E0,-8.724231720E0,-2.093719877E-2
8.050317665E2,4.819144726E0,-1.204846001E1,7.034898400E-1
8.055317665E2,9.084949493E0,-8.685946465E0,-1.089332461E0
8.060317665E2,6.580262184E0,-8.009973526E0,-5.228317380E-1
8.065317665E2,4.575077057E0,-9.568299294E0,1.914258115E-2
8.070317665E2,5.264209747E0,-6.634100914E0,-3.131008387E0
8.075317665E2,5.697908878E0,-6.832107067E0,1.049252748E0
8.080317665E2,5.587839127E0,-4.544568539E0,-3.946362734E0
8.085317665E2,4.750949383E0,-7.246663570E0,2.093719840E-1
8.090317665E2,4.879563808E0,-5.845067501E0,-2.451446772E0
8.095317665E2,3.252444267E0,-8.280363083E0,-5.330012441E-1
8.100317665E2,3.585644722E0,-7.861618996E0,-9.631111026E-1
8.105317665E2,4.537988186E0,-9.640084267E0,-4.719842672E-1
8.110317665E2,8.193024635E0,-7.995616913E0,2.164906263E0
8.115317665E2,5.348556995E0,-1.002413273E1,4.863412082E-1
8.120317665E2,8.940781593E0,-8.797810555E0,3.609572887E0
8.125317665E2,3.346362352E0,-1.046441174E1,5.742774606E-1
8.130317665E2,1.116371441E1,-9.488140106E0,5.216353536E-1
8.135317665E2,5.848058701E0,-1.067677498E1,-4.845465720E-1
8.140317665E2,6.658029079E0,-8.130811691E0,1.196411327E-1
8.145317665E2,5.647061348E0,-4.558925152E0,-3.965505362E0
8.150317665E2,4.545166492E0,-6.439683914E0,2.176272154E0
8.155317665E2,4.021736622E0,-4.895715237E0,-2.619542599E0
8.160317665E2,1.925624013E0,-6.564708710E0,-8.614161611E-1
8.165317665E2,3.352942705E0,-6.415755749E0,-1.068993568E0
8.170317665E2,2.879163742E0,-8.768498421E0,-1.362114310E0
8.175317665E2,4.530211449E0,-9.604789734E0,1.974078715E-1
8.180317665E2,3.560520172E0,-9.148359299E0,-4.127619043E-2
8.185317665E2,5.176871777E0,-1.010608673E1,1.020538807E0
8.190317665E2,3.480360508E0,-1.069113159E1,-1.402194023E0
8.195317665E2,6.929614544E0,-1.407458305E1,2.510669231E0
8.200317665E2,2.160120726E0,-1.056191921E1,-6.526423693E-1
8.205317665E2,5.873183250E0,-1.162612724E1,2.767299414E0
8.210317665E2,2.884547710E0,-9.637093544E0,1.519442350E-1
8.215317665E2,8.668000221E0,-9.811769485E0,-3.521038532E0
8.220317665E2,4.614558697E0,-1.189113235E1,-5.682953596E-1
8.225317665E2,9.499505997E0,-7.937591076E0,-2.812762976E0
8.230317665E2,7.688737392E0,-1.040578747E1,6.574280262E-1
8.235317665E2,9.845867157E0,-9.234500885E0,-1.001994491E0
8.240317665E2,7.800601959E0,-1.009412193E1,-2.231905222E0
8.245317665E2,6.083751678E0,-6.889534473E0,3.576671600E0
8.250317665E2,5.179264545E0,-3.739383698E0,-2.932404041E0
8.255317665E2,2.882154942E0,-7.272984505E0,-2.687737942E0
8.260317665E2,3.879961967E0,-5.796612740E0,-4.529015064E0
8.265317665E2,1.863410592E0,-9.440283775E0,-1.992623091E0
8.270317665E2,3.267399311E0,-9.614361763E0,-3.655036688E-1
8.275317665E2,1.451246977E0,-1.098664474E1,-1.555334687E0
8.280317665E2,7.467401028E0,-9.411569595E0,-8.973085135E-2
8.285317665E2,3.547359467E0,-1.097228813E1,8.673982024E-1
8.290317665E2,8.289934158E0,-9.774082184E0,8.727820516E-1
8.295317665E2,1.812563181E0,-1.267837048E1,3.457628787E-1
8.300317665E2,8.364111900E0,-1.139641571E1,-1.730608940E0
8.305317665E2,2.642872572E0,-1.029093170E1,-2.338385820E0
8.310317665E2,8.444869041E0,-1.114457130E1,-2.370090723E0
8.315317665E2,4.123431683E0,-1.117747307E1,-1.017547846E0
8.320317665E2,1.083170986E1,-8.744570732E0,-1.975275040E0
8.325317665E2,7.505686283E0,-8.254041672E0,4.037888348E-1
8.330317665E2,7.358527660E0,-7.682157040E0,1.954337835E0
8.335317665E2,5.559125423E0,-5.932405472E0,-2.919243574E0
8.340317665E2,3.986442566E0,-6.583851337E0,2.270190477E0
8.345317665E2,2.794816732E0,-3.841676712E0,-1.917249203E0
8.350317665E2,3.573082447E0,-5.943771362E0,2.056631088E0
8.355317665E2,3.602394581E0,-5.545366287E0,-1.007976532E0
8.360317665E2,4.265206337E0,-6.213562012E0,-7.848458290E-1
8.365317665E2,4.224528313E0,-5.613562107E0,-1.807179332E0
8.370317665E2,3.346362352E0,-7.533802032E0,-1.789831281E0
8.375317665E2,4.768297195E0,-9.272786140E0,3.170489892E-2
8.380317665E2,3.190230846E0,-9.933803558E0,-6.412764788E-1
8.385317665E2,7.289734364E0,-1.157527924E1,1.891526341E0
8.390317665E2,3.658027649E0,-1.144367409E1,7.399803996E-1
8.395317665E2,8.959924698E0,-1.276630688E1,-2.937189937E-1
8.400317665E2,4.234099865E0,-1.163270760E1,1.375274777E0
8.405317665E2,9.654440880E0,-8.579465866E0,-1.614557028E0
8.410317665E2,6.119643688E0,-1.081555843E1,-9.601200819E-1
8.415317665E2,8.133802414E0,-8.480163574E0,-2.405385017E0
8.420317665E2,6.515058041E0,-8.604590416E0,-1.651047587E0
8.425317665E2,4.468596458E0,-9.287142754E0,1.716850281E0
8.430317665E2,5.758327484E0,-5.166702271E0,-4.999204636E0
8.435317665E2,4.039084435E0,-6.021538258E0,1.246062398E0
8.440317665E2,5.559125423E0,-4.124029636E0,-3.300898790E0
8.445317665E2,2.903690338E0,-6.702894211E0,2.261217386E-1
8.450317665E2,5.206781864E0,-5.999404430E0,-2.174477577E0
8.455317665E2,2.989831924E0,-9.646066666E0,-9.732806087E-1
8.460317665E2,4.585844517E0,-9.032307625E0,1.487139225E0
8.465317665E2,2.624328136E0,-1.073420238E1,-1.678565025E0
8.470317665E2,5.021936417E0,-1.169731331E1,1.598405480E0
8.475317665E2,2.112264156E0,-1.064148045E1,-9.571290612E-1
8.480317665E2,9.096315384E0,-1.127617645E1,1.734198213E0
8.485317665E2,2.140379906E0,-1.147478104E1,-7.914260626E-1
8.490317665E2,1.047458076E1,-9.381659508E0,1.615155339E-1
8.495317665E2,2.435893536E0,-1.031306553E1,1.501496136E-1
8.500317665E2,9.947562218E0,-8.027321815E0,-9.104689956E-1
8.505317665E2,5.495715618E0,-9.993623734E0,1.812563181E0
8.510317665E2,9.480362892E0,-6.535397053E0,1.584048629E0
8.515317665E2,5.657829285E0,-5.012365341E0,-3.932604074E0
8.520317665E2,4.554139614E0,-6.277570248E0,2.274976015E0
8.525317665E2,4.699503899E0,-4.832305431E0,-3.272184849E0
8.530317665E2,2.968296528E0,-8.904889107E0,2.303091764E0
8.535317665E2,2.845664263E0,-6.516852379E0,-2.121835470E0
8.540317665E2,2.335394859E0,-9.450452805E0,2.153540403E-1
8.545317665E2,3.212962627E0,-8.559724808E0,-1.528415442E0
8.550317665E2,2.048256159E0,-1.040518951E1,-1.480558991E0
8.555317665E2,3.152543783E0,-1.148913765E1,6.819544733E-2
8.560317665E2,4.792225361E0,-1.076590729E1,-1.014556766E0
8.565317665E2,7.499105930E0,-1.237747288E1,1.512263894E0
8.570317665E2,4.364508629E0,-1.134497070E1,-5.084748194E-2
8.575317665E2,8.240880966E0,-1.344168091E1,1.325623751E0
8.580317665E2,4.659423828E0,-1.237208939E1,-5.276173949E-1
8.585317665E2,9.708877563E0,-1.174217892E1,-2.383251429E0
8.590317665E2,4.791627407E0,-1.252582836E1,-6.095715761E-1
8.595317665E2,9.009575844E0,-8.299505234E0,-8.919246197E-1
8.600317665E2,4.185645103E0,-7.774878979E0,-1.400997639E0
8.605317665E2,6.105287075E0,-7.305885792E0,-7.094719410E-1
8.610317665E2,4.934000492E0,-4.442873478E0,-4.027718544E0
8.615317665E2,3.781856298E0,-6.991827965E0,1.808973908E0
8.620317665E2,4.385445595E0,-4.956732273E0,-3.049652576E0
8.625317665E2,3.942175388E0,-6.866204739E0,2.524427772E-1
8.630317665E2,4.549354076E0,-5.149354458E0,-2.918047190E0
8.635317665E2,2.051247120E0,-9.424730301E0,-1.289133191E0
8.640317665E2,3.595216036E0,-7.435696602E0,-3.052045345E0
8.645317665E2,2.509472847E0,-1.088076305E1,-9.266205430E-1
8.650317665E2,4.514657974E0,-1.205683517E1,1.438684583E0
8.655317665E2,3.722035646E0,-1.046142101E1,-1.378265858E0
8.660317665E2,9.161520004E0,-1.140299606E1,6.795616150E-1
8.665317665E2,3.846462488E0,-1.170389366E1,-1.086341500E0
8.670317665E2,8.025527000E0,-1.161835003E1,-1.209571838E0
8.675317665E2,4.442873478E0,-1.166919804E1,-7.896314859E-1
8.680317665E2,8.349754333E0,-7.803592682E0,-1.660618901E0
8.685317665E2,4.280161381E0,-1.133420277E1,-1.646261930E0
8.690317665E2,7.548757076E0,-8.062017441E0,1.202991605E0
8.695317665E2,5.460421085E0,-5.744568825E0,-3.296113253E0
8.700317665E2,4.241876125E0,-7.892725468E0,2.167897224E0
8.705317665E2,4.466801643E0,-5.657829285E0,-4.342374802E0
8.710317665E2,3.896711588E0,-6.537191391E0,2.075175524E0
8.715317665E2,4.481158733E0,-5.359922886E0,-4.673780918E0
8.720317665E2,2.633301258E0,-8.176873207E0,-6.161518097E-1
8.725317665E2,4.524229527E0,-6.220142365E0,3.035295486E0
8.730317665E2,3.401397467E0,-1.022213840E1,1.941177368E0
8.735317665E2,3.875176191E0,-9.798010826E0,1.485344648E0
8.740317665E2,3.590430260E0,-1.068634605E1,8.015955985E-2
8.745317665E2,8.137392044E0,-1.053021431E1,-2.949153781E-1
8.750317665E2,5.137988567E0,-1.173559856E1,9.936196208E-1
8.755317665E2,8.443074226E0,-1.167218876E1,6.939185858E-1
8.760317665E2,3.541377544E0,-1.220698452E1,1.328016520E-1
8.765317665E2,8.989236832E0,-1.072343445E1,-3.984049559E-1
8.770317665E2,7.114459991E0,-7.831110477E0,3.954139352E-1
8.775317665E2,9.411569595E0,-6.893123627E0,8.374879137E-3
8.780317665E2,7.803592682E0,-7.381259441E0,-1.539781332E0
8.785317665E2,4.200600147E0,-6.270989895E0,1.800599098E0
8.790317665E2,5.414359570E0,-5.184648514E0,-3.869792461E0
8.795317665E2,4.348356724E0,-4.425525665E0,8.518448472E-1
8.800317665E2,3.844069481E0,-5.376074314E0,-2.261815548E0
8.805317665E2,1.866401672E0,-9.609575272E0,-7.812566161E-1
8.810317665E2,4.308875561E0,-9.400203705E0,6.095715761E-1
8.815317665E2,1.744965911E0,-9.502496719E0,-1.094118118E0
8.820317665E2,6.010770321E0,-1.201854992E1,1.539781332E0
8.825317665E2,2.992822886E0,-1.120319557E1,-7.004988194E-1
8.830317665E2,8.276175499E0,-1.200598717E1,2.136192322E0
8.835317665E2,3.382254839E0,-1.114696407E1,1.089332461E0
8.840317665E2,1.071506023E1,-9.486943245E0,-3.912265003E-1
8.845317665E2,3.324228764E0,-1.095254707E1,5.276173949E-1
8.850317665E2,9.724431038E0,-1.006062317E1,-1.363908887E0
8.855317665E2,5.221138954E0,-1.234337521E1,1.901097536E0
8.860317665E2,7.296912670E0,-8.177471161E0,-4.432703853E-1
8.865317665E2,6.243472576E0,-7.641479015E0,-2.286342144E0
8.870317665E2,6.154339790E0,-9.888339996E0,7.992027402E-1
8.875317665E2,8.400602341E0,-7.093522549E0,-2.860619545E0
8.880317665E2,6.348756790E0,-9.974481583E0,2.027318954E0
8.885317665E2,5.248058319E0,-5.423332691E0,-4.638486862E0
8.890317665E2,3.354737282E0,-8.464610100E0,2.230110645E0
8.895317665E2,5.676971912E0,-5.302495003E0,-3.053241730E0
8.900317665E2,2.242672920E0,-8.411968231E0,2.048256159E0
8.905317665E2,6.109474182E0,-3.984647989E0,-7.776673418E-3
8.910317665E2,2.346162558E0,-8.420941353E0,-7.776673883E-2
8.915317665E2,2.906681299E0,-9.861420631E0,2.153540403E-1
8.920317665E2,7.262216806E-1,-9.096315384E0,-8.003991842E-1
8.925317665E2,3.279363394E0,-9.674779892E0,1.143769264E0
8.930317665E2,-1.063609719E0,-1.186481094E1,3.166302681E0
8.935317665E2,5.589633465E0,-1.213041401E1,2.136192322E0
8.940317665E2,1.240678549E0,-1.174277687E1,8.823533654E-1
8.945317665E2,7.420741081E0,-1.109611702E1,5.629115105E-1
8.950317665E2,1.534397483E0,-1.178824043E1,1.463211060E0
8.955317665E2,9.259027481E0,-9.790233612E0,-8.889335990E-1
8.960317665E2,3.002394199E0,-1.248933792E1,-1.280160099E-1
8.965317665E2,1.018265629E1,-9.520442963E0,-9.080761671E-1
8.970317665E2,8.065607071E0,-1.035434151E1,1.673779488E0
8.975317665E2,8.714659691E0,-1.208076286E1,1.741974831E0
8.980317665E2,1.164646626E1,-6.705885410E0,-3.649054468E-1
8.985317665E2,4.893920422E0,-9.108877182E0,2.930609465E0
8.990317665E2,7.799405575E0,-5.975476265E0,-3.860221148E0
8.995317665E2,4.348356724E0,-8.904889107E0,5.407779217E-1
9.000317665E2,5.021338463E0,-5.717051506E0,-2.630908489E0
9.005317665E2,2.882154942E0,-8.904291153E0,1.850848317E0
9.010317665E2,3.948157310E0,-6.830312252E0,-2.054238319E0
9.015317665E2,1.269392371E0,-9.933204651E0,-1.451845169E0
9.020317665E2,2.887538671E0,-8.438288689E0,-6.855437160E-1
9.025317665E2,1.381855130E0,-1.045364380E1,-2.453241348E0
9.030317665E2,4.712664127E0,-1.088375378E1,7.214360237E-1
9.035317665E2,1.510469317E0,-1.039621639E1,-1.246062398E0
9.040317665E2,5.635695457E0,-1.185224915E1,1.621137381E0
9.045317665E2,2.772084951E0,-1.004028416E1,-1.154536963E0
9.050317665E2,7.999804497E0,-1.458365536E1,2.475973129E0
9.055317665E2,3.967299938E0,-1.364566898E1,1.688136339E0
9.060317665E2,8.476573944E0,-1.303250885E1,-1.160518974E-1
9.065317665E2,3.329612732E0,-1.240439224E1,1.194616675E0
9.070317665E2,8.560322762E0,-9.022137642E0,-4.085744619E-1
9.075317665E2,2.602194548E0,-1.080778122E1,-6.173482537E-1
9.080317665E2,5.416153908E0,-9.093922615E0,1.073180914E0
9.085317665E2,4.625924587E0,-8.020741463E0,-2.094317913E0
9.090317665E2,3.613162279E0,-8.743373871E0,1.191625714E0
9.095317665E2,4.358526230E0,-5.687141418E0,-2.297109842E0
9.100317665E2,2.257030010E0,-6.722635269E0,2.044667006E0
9.105317665E2,3.464807272E0,-5.910272121E0,-1.176072359E0
9.110317665E2,1.901097536E0,-7.704888821E0,5.180460811E-1
9.115317665E2,3.683750391E0,-5.923432350E0,-2.064407825E0
9.120317665E2,2.633301258E0,-9.378668785E0,-1.129412293E0
9.125317665E2,3.133401155E0,-1.003430176E1,1.572682738E0
9.130317665E2,2.257628202E0,-1.011805058E1,-2.041675806E0
9.135317665E2,2.957528830E0,-1.110568810E1,7.238288522E-1
9.140317665E2,2.623729944E0,-1.100399303E1,-1.457827210E0
9.145317665E2,5.526223660E0,-1.340279770E1,1.762313843E0
9.150317665E2,8.979067206E-1,-1.193839073E1,1.169492126E0
9.155317665E2,6.562914371E0,-1.082154083E1,2.585444927E0
9.160317665E2,3.737588882E0,-1.202453232E1,-6.448656917E-1
9.165317665E2,9.610772133E0,-1.030947590E1,-8.632107973E-1
9.170317665E2,5.313860893E0,-1.210469151E1,5.108676553E-1
9.175317665E2,5.190630436E0,-1.198325539E1,1.087537885E0
9.180317665E2,7.232904434E0,-6.141179085E0,-3.219542980E0
9.185317665E2,3.745963812E0,-6.585047722E0,1.801197290E0
9.190317665E2,5.263013363E0,-4.547559261E0,-4.461417675E0
9.195317665E2,4.131806374E0,-6.152545452E0,2.890529871E0
9.200317665E2,3.731008768E0,-6.293123722E0,-1.153340459E0
9.205317665E2,6.777670383E-1,-8.564510345E0,2.812164783E0
9.210317665E2,2.965305567E0,-8.207381248E0,-1.040877849E-1
9.215317665E2,1.878963947E0,-1.010907745E1,5.826523304E-1
9.220317665E2,5.007579803E0,-9.692128181E0,8.027920127E-1
9.225317665E2,2.783450842E0,-1.189831066E1,1.094118118E0
9.230317665E2,8.231309891E0,-1.179003525E1,-7.130611539E-1
9.235317665E2,5.808577061E0,-1.298525047E1,-6.041877344E-2
9.240317665E2,8.989236832E0,-1.089870930E1,-3.662214994E0
9.245317665E2,5.249852657E0,-1.113320541E1,-3.032304525E0
9.250317665E2,7.954938889E0,-1.019521904E1,9.176474810E-1
9.255317665E2,6.175277233E0,-5.343770981E0,-3.369094372E0
9.260317665E2,3.932604074E0,-7.389036179E0,2.726621389E0
9.265317665E2,3.553939819E0,-5.693123341E0,-3.766302824E0
9.270317665E2,3.209971666E0,-6.760920525E0,-2.362912297E-1
9.275317665E2,3.437887907E0,-6.375676155E0,-1.929811478E0
9.280317665E2,1.253839016E0,-8.885746956E0,-1.786242127E0
9.285317665E2,3.153740168E0,-9.402596474E0,2.297109663E-1
9.290317665E2,2.946761131E0,-1.019162941E1,-1.272981644E0
9.295317665E2,4.853840828E0,-1.151785183E1,7.980063558E-1
9.300317665E2,2.971885681E0,-1.144367409E1,-5.760720372E-1
9.305317665E2,7.542177200E0,-1.359900951E1,9.732806087E-1
9.310317665E2,2.522035122E0,-1.274118233E1,-3.750749528E-1
9.315317665E2,9.251849174E0,-1.142333508E1,-3.894318938E-1
9.320317665E2,2.528017044E0,-1.182413292E1,1.316052489E-2
9.325317665E2,1.001156998E1,-6.862615108E0,9.571290575E-3
9.330317665E2,6.569494724E0,-8.306085587E0,-2.557329178E0
9.335317665E2,6.543771744E0,-6.707680225E0,1.389033556E0
9.340317665E2,5.444269657E0,-5.238486767E0,-5.061418056E0
9.345317665E2,3.658027649E0,-6.219544411E0,2.797807932E0
9.350317665E2,4.597808838E0,-3.530609846E0,-3.504288673E0
9.355317665E2,2.604587555E0,-6.811768055E0,2.679961324E-1
9.360317665E2,2.070987940E0,-5.640480995E0,-1.884347796E0
9.365317665E2,6.125625968E-1,-1.001336479E1,-9.936196208E-1
9.370317665E2,9.858429432E-1,-8.154739380E0,2.488535494E-1
9.375317665E2,8.817551732E-1,-9.223134995E0,-1.733600020E0
9.380317665E2,2.880958557E0,-9.362516403E0,1.339980662E-1
9.385317665E2,3.962514400E0,-1.056012440E1,-6.346961856E-1
9.390317665E2,5.206781864E0,-1.191027451E1,3.714857101E-1
9.395317665E2,4.118646145E0,-1.036391354E1,4.175475538E-1
9.400317665E2,7.442874908E0,-1.218245792E1,9.320043921E-1
9.405317665E2,4.761716843E0,-1.257009602E1,3.511467278E-1
9.410317665E2,7.840681553E0,-9.754940033E0,9.744769931E-1
9.415317665E2,6.689135551E0,-9.708877563E0,-5.084748268E-1
9.420317665E2,1.228953743E1,-7.630113125E0,-3.348157167E0
9.425317665E2,4.626522541E0,-9.989436150E0,5.312066078E-1
9.430317665E2,1.176610756E1,-8.027321815E0,-1.390828133E0
9.435317665E2,5.710471153E0,-1.246062374E1,-1.902294010E-1
9.440317665E2,1.204546928E1,-7.378268719E0,-1.925624013E0
9.445317665E2,5.902495384E0,-1.373659706E1,7.812566161E-1
9.450317665E2,8.550153732E0,-8.633303642E0,-1.049850941E0
9.455317665E2,5.603990555E0,-1.189053345E1,1.934597135E0
9.460317665E2,8.216953278E0,-1.036869907E1,1.697707653E0
9.465317665E2,5.534000397E0,-7.271189690E0,-3.831507206E0
9.470317665E2,4.250849247E0,-7.288537979E0,4.589433670E0
9.475317665E2,5.352146149E0,-5.597410202E0,-2.847458839E0
9.480317665E2,2.308475733E0,-6.890132904E0,2.109273195E0
9.485317665E2,4.901697159E0,-4.387240410E0,-2.019542217E0
9.490317665E2,1.906481385E0,-7.148557663E0,1.496710539E0
9.495317665E2,3.235096216E0,-6.619743824E0,-1.592423439E0
9.500317665E2,2.060818434E0,-9.367302895E0,-1.066002488E0
9.505317665E2,4.584648132E0,-9.225527763E0,7.609176040E-1
9.510317665E2,2.310270309E0,-9.501300812E0,-1.040877849E-1
9.515317665E2,4.073780537E0,-1.067019463E1,2.340180635E0
9.520317665E2,5.605186939E0,-1.156331539E1,-8.757730722E-1
9.525317665E2,7.978867054E0,-1.347338581E1,1.196411371E0
9.530317665E2,3.018545866E0,-1.194616699E1,-1.483550072E-1
9.535317665E2,9.276374817E0,-9.816555023E0,1.247258782E0
9.540317665E2,4.970490932E0,-1.079940701E1,-1.214357495E0
9.545317665E2,1.134975624E1,-9.814162254E0,-1.144965649E0
9.550317665E2,5.934200287E0,-1.067019463E1,-1.256830096E0
9.555317665E2,5.032704353E0,-8.866005898E0,2.036890268E0
9.560317665E2,7.564908981E0,-3.902095556E0,-2.906681299E0
9.565317665E2,6.789036274E0,-7.115057945E0,2.696112871E0
9.570317665E2,7.263412952E0,-5.318048477E0,-1.527817249E0
9.575317665E2,-8.548358679E-1,-8.783453941E0,1.804188251E0
9.580317665E2,5.040481091E0,-7.560122967E0,2.068595171E0
9.585317665E2,3.498306751E0,-9.454640388E0,1.537986755E0
9.590317665E2,2.812164783E0,-1.116969585E1,-3.367897868E-1
9.595317665E2,3.172882795E0,-1.088375378E1,-7.645068169E-1
9.600317665E2,5.088935375E0,-1.363071442E1,1.453639746E0
9.605317665E2,1.659422517E0,-1.182532978E1,-4.151547253E-1
9.610317665E2,7.834101200E0,-1.267238903E1,1.239482164E0
9.615317665E2,8.961120844E-1,-1.120140076E1,4.187439755E-2
9.620317665E2,1.006301594E1,-1.085503960E1,-3.553341627E-1
9.625317665E2,5.232504845E0,-1.221655560E1,-1.992024779E-1
9.630317665E2,1.079462147E1,-1.059900761E1,-2.364108801E0
9.635317665E2,7.768897057E0,-1.132283688E1,7.513462901E-1
9.640317665E2,6.345765591E0,-9.652647018E0,-1.034895778E-1
9.645317665E2,6.900900364E0,-1.019521904E1,-2.392822653E-1
9.650317665E2,5.538187981E0,-1.070728302E1,2.054836512E0
9.655317665E2,7.855038643E0,-6.886543751E0,-3.080759048E0
9.660317665E2,4.276572227E0,-9.218947411E0,2.212762833E0
9.665317665E2,6.227321148E0,-5.429912567E0,-1.686341763E0
9.670317665E2,4.523631096E0,-9.602995872E0,8.434699774E-1
9.675317665E2,4.906482697E0,-6.009573936E0,-3.080160856E0
9.680317665E2,1.818545222E0,-1.134855938E1,-1.307677627E0
9.685317665E2,2.257628202E0,-1.055354404E1,-1.580459356E0
9.690317665E2,1.777269006E0,-8.722436905E0,-1.457827210E0
9.695317665E2,2.411965132E0,-8.964710236E0,-9.427721500E-1
9.700317665E2,3.620938778E0,-1.061575794E1,7.627122402E-1
9.705317665E2,5.901896954E0,-9.888339996E0,3.176472187E-1
9.710317665E2,1.744965911E0,-1.085563850E1,1.300499082E0
9.715317665E2,6.601199627E0,-1.071805096E1,1.664208174E0
9.720317665E2,2.496312141E0,-1.421216965E1,1.252044439E0
9.725317665E2,9.683155060E0,-9.232706070E0,2.763710022E-1
9.730317665E2,4.562514782E0,-1.190489101E1,1.854437590E-1
9.735317665E2,8.474181175E0,-1.159262753E1,-1.362712502E0
9.740317665E2,3.027518749E0,-1.221476173E1,6.329016089E-1
9.745317665E2,7.986045361E0,-1.055414295E1,-2.775674343E0
9.750317665E2,3.480958700E0,-1.079162979E1,-2.676970243E0
9.755317665E2,7.985447407E0,-8.856434822E0,-9.110672474E-1
9.760317665E2,5.507081509E0,-9.960722923E0,-5.272584915E0
9.765317665E2,5.808577061E0,-8.904291153E0,4.510470629E-1
9.770317665E2,3.228515863E0,-5.603990555E0,-4.942375183E0
9.775317665E2,1.834098577E0,-9.708279610E0,8.057830334E-1
9.780317665E2,7.392027378E0,-6.122036934E0,-3.051447153E0
9.785317665E2,4.295714855E0,-7.808378696E0,1.416550994E0
9.790317665E2,4.836492538E0,-5.313860893E0,-3.145365477E0
9.795317665E2,3.227319479E0,-8.438887596E0,1.517049551E0
9.800317665E2,2.548954248E0,-7.770691395E0,-1.322632670E0
9.805317665E2,2.897109985E0,-1.045304585E1,8.386843204E-1
9.810317665E2,2.261815548E0,-9.180064201E0,-1.285543919E0
9.815317665E2,2.672184706E0,-9.401998520E0,-1.892124534E0
9.820317665E2,4.311866283E0,-9.333803177E0,1.094118118E0
9.825317665E2,2.746960402E0,-1.024128056E1,-8.452646136E-1
9.830317665E2,3.876372576E0,-1.056311512E1,1.421336651E0
9.835317665E2,3.299104214E0,-1.092861938E1,-1.041476011E0
9.840317665E2,7.775477409E0,-1.302832127E1,1.482353687E0
9.845317665E2,3.665804386E0,-1.253539944E1,-1.089930773E0
9.850317665E2,9.692128181E0,-1.264247799E1,1.676770449E0
9.855317665E2,2.164906263E0,-1.157767200E1,-5.347958803E-1
9.860317665E2,1.077547836E1,-8.976674080E0,-1.652842283E0
9.865317665E2,4.624728203E0,-1.193420315E1,-6.394818425E-1
9.870317665E2,9.686145782E0,-9.842875481E0,-5.820540786E-1
9.875317665E2,9.610772133E0,-7.092326164E0,-4.207778454E0
9.880317665E2,4.983053207E0,-8.289934158E0,2.810370207E0
9.885317665E2,7.256833076E0,-4.201796532E0,-4.104887009E0
9.890317665E2,3.962514400E0,-6.617351055E0,7.531409264E-1
9.895317665E2,4.102494240E0,-5.104488850E0,-2.597409010E0
9.900317665E2,4.057030678E0,-7.154539585E0,2.150549412E0
9.905317665E2,4.661218643E0,-5.284548759E0,-3.226721287E0
9.910317665E2,3.994219303E0,-6.926623344E0,1.188036442E0
9.915317665E2,4.147958279E0,-5.986842155E0,-3.297309637E0
9.920317665E2,4.396811485E0,-6.897909641E0,1.180858016E0
9.925317665E2,4.771288395E0,-5.681757450E0,-1.278963685E0
9.930317665E2,3.673580885E0,-7.629515171E0,1.591825247E0
9.935317665E2,4.045066833E0,-5.478367329E0,-3.072384357E0
9.940317665E2,4.435096741E0,-7.283751965E0,1.969891191E0
9.945317665E2,4.914857864E0,-4.914857864E0,-1.926820397E0
9.950317665E2,5.203791142E0,-6.035895348E0,2.049452543E0
9.955317665E2,6.635895252E0,-5.372485161E0,-1.987837434E0
9.960317665E2,6.830910206E0,-8.802596092E0,-5.168496966E-1
9.965317665E2,5.874977589E0,-8.495717049E0,1.950150430E-1
9.970317665E2,7.427321434E0,-1.190010548E1,-1.136590764E-1
9.975317665E2,4.119244099E0,-1.240439224E1,-3.762713671E-1
9.980317665E2,7.596613884E0,-8.593822479E0,2.141576260E-1
9.985317665E2,6.367899418E0,-5.146363258E0,2.273181438E0
9.990317665E2,3.433102369E0,-3.828516304E-1,6.747759819E0
9.995317665E2,6.472585201E-1,3.754936934E0,8.249256134E0
