"Time (s)","Gyroscope x (rad/s)","Gyroscope y (rad/s)","Gyroscope z (rad/s)"
2.744607870E-1,-3.330740333E-1,1.737910360E-1,9.468403645E-3
7.784873500E-1,-1.954309106E0,-3.122893572E0,2.115577459E0
1.282515370E0,3.246746361E-1,3.558287397E-2,-6.359102130E-1
1.786544433E0,-3.578140438E-1,3.381136656E-1,7.208204269E-2
2.290574277E0,-9.407317638E-2,2.687804960E-2,-4.062250629E-2
2.794604641E0,1.108719558E-1,-3.543015718E-1,2.193004489E-1
3.298635318E0,2.112064958E-1,-3.191768527E-1,-1.175914705E-2
3.802666047E0,-2.845102847E-1,3.384190798E-1,6.108647794E-4
4.306696672E0,3.930914998E-1,-5.430588126E-1,4.091266990E-1
4.810726985E0,-2.477056682E-1,8.707877398E-1,-7.747292519E-1
5.314757037E0,5.619955808E-2,-4.308123887E-1,3.854556680E-1
5.818786829E0,-2.084576041E-1,6.420188546E-1,-4.512763619E-1
6.322816412E0,5.635227636E-2,-2.144135386E-1,-1.110246703E-1
6.826845683E0,-5.635227636E-2,1.751654744E-1,4.630354941E-1
7.330874589E0,7.620538026E-2,-4.295906425E-1,-2.292270064E-1
7.834903131E0,-4.964803457E-1,1.745546162E-1,-1.927278340E-1
8.338931152E0,1.948658675E-1,-4.514290690E-1,3.853029609E-1
8.842958652E0,-2.470948100E-1,3.359756172E-1,-7.192932814E-2
9.346985683E0,4.505127668E-2,-1.899789423E-1,3.265072107E-1
9.851012193E0,-1.664606482E-1,4.851793647E-1,-3.610210717E-1
1.035503824E1,-8.246674202E-3,-5.082395077E-1,3.743073940E-1
1.085906391E1,-1.539379209E-1,4.382954836E-1,-3.755291104E-1
1.136308912E1,-2.666424811E-1,-3.156643808E-1,4.642572403E-1
1.186711386E1,2.367101051E-2,3.484983444E-1,-5.818486959E-2
1.237113813E1,2.779434808E-2,-4.615083337E-1,-2.596175298E-2
1.287516193E1,-1.976147592E-1,3.700313270E-1,1.171333194E-1
1.337918527E1,1.093447953E-1,-4.153880477E-1,3.436114267E-2
1.388320824E1,-2.703076601E-1,4.454731345E-1,2.218966335E-1
1.438723079E1,-6.337722391E-2,-2.846629918E-1,-3.402516842E-1
1.489125292E1,5.192350596E-2,2.774853408E-1,6.188060045E-1
1.539527443E1,-2.021962404E-1,-2.020435184E-1,-6.128500700E-1
1.589929542E1,-6.826414168E-2,2.240346521E-1,7.793107629E-1
1.640331594E1,3.329212964E-2,-1.701258421E-1,-7.276926637E-1
1.690733594E1,5.910116807E-2,1.850920320E-1,3.115410507E-1
1.741135553E1,-1.608101577E-1,-4.120282829E-1,-2.582430840E-1
1.791537474E1,2.047924101E-1,3.368919194E-1,5.830704570E-1
1.841939365E1,-3.359756172E-1,-6.047561392E-2,-7.289143801E-1
1.892341219E1,1.557705253E-1,8.613193035E-2,8.819360137E-1
1.942743037E1,-3.489564955E-1,-4.153880477E-2,-7.060069442E-1
1.993144818E1,1.476765573E-1,-1.130099818E-1,5.714640021E-1
2.043546563E1,-3.387245238E-1,2.203694731E-1,-4.874700904E-1
2.093948271E1,2.776380479E-1,-1.696676910E-1,4.560105503E-1
2.144349943E1,-2.008218020E-1,1.180496216E-1,-4.697550237E-1
2.194751589E1,-7.254019380E-2,-5.497782957E-3,4.179842174E-1
2.245153214E1,-1.603520066E-1,1.069013327E-1,-3.094030023E-1
2.295554818E1,1.540906429E-1,-2.310595959E-1,-3.436114267E-2
2.345956386E1,-3.741546720E-2,1.261435747E-1,1.698204130E-1
2.396357928E1,3.243691921E-1,-4.034761786E-1,-1.328630894E-1
2.446759459E1,9.483675659E-2,6.719512492E-2,2.611446977E-1
2.497160954E1,-1.572976820E-2,-3.049742281E-1,-1.860083193E-1
2.547562422E1,-3.350593448E-1,4.057669342E-1,2.510654330E-1
2.597963860E1,7.024945319E-2,-3.373500705E-1,-6.632464528E-1
2.648365261E1,-1.350011230E-1,5.328267813E-1,4.644099474E-1
2.698766636E1,-1.379027218E-1,-3.981311321E-1,-3.075704277E-1
2.749167975E1,-2.079994529E-1,4.651735425E-1,5.488619804E-1
2.799569292E1,-4.214967042E-2,-3.020726442E-1,-5.751292109E-1
2.849970584E1,5.345067009E-3,2.324340492E-1,6.884446144E-1
2.900371844E1,-1.696676910E-1,-1.821904182E-1,-7.704532146E-1
2.950773084E1,7.009673119E-2,-1.343902480E-2,8.405499458E-1
3.001174292E1,-4.489856213E-2,-1.285870373E-1,-9.998329282E-1
3.051575469E1,4.810560122E-2,-3.726275265E-2,1.028543591E0
3.101976615E1,-3.836230934E-1,1.508836001E-1,-9.242383838E-1
3.152377745E1,7.742711157E-2,-7.773254067E-2,9.981530309E-1
3.202778865E1,-6.001746282E-2,-8.048143238E-2,-9.187406301E-1
3.253179964E1,-1.314886510E-1,-9.437860548E-2,8.135191798E-1
3.303581042E1,1.340848207E-1,-4.062250629E-2,-5.568032265E-1
3.353982089E1,-2.011272311E-1,-4.920515716E-1,3.002400398E-1
3.404383105E1,2.632827163E-1,4.159989059E-1,-2.579376400E-1
3.454784089E1,-1.183550507E-1,-1.970038861E-1,2.002109289E-1
3.505185053E1,-9.529490769E-2,5.056433082E-1,-1.371391416E-1
3.555585995E1,-2.718348242E-2,-3.495673835E-1,-6.841685623E-2
3.605986917E1,-5.537489057E-1,5.650499463E-1,1.424842030E-1
3.656387813E1,5.039634649E-3,-6.258309484E-1,-5.528326333E-2
3.706788688E1,2.993237413E-2,2.015853822E-1,2.057087123E-1
3.757189537E1,2.935205400E-1,-6.696605086E-1,-6.247619390E-1
3.807590365E1,-4.732674956E-1,4.680751264E-1,4.297433794E-1
3.857991172E1,-1.601992846E-1,-2.414443046E-1,-3.275762498E-1
3.908391959E1,-1.853974611E-1,1.279761642E-1,4.057669342E-1
3.958792735E1,3.695731983E-2,-2.657261789E-1,-4.002691507E-1
4.009193490E1,-1.977674663E-1,4.465421438E-1,4.021017551E-1
4.059594219E1,-6.994401664E-2,-7.269290835E-2,-5.687150955E-1
4.109994922E1,1.096502244E-1,-5.161807314E-2,1.058781385E0
4.160395589E1,-2.599229515E-1,-1.789833754E-1,-1.016631722E0
4.210796198E1,-2.554942071E-1,9.117157012E-2,1.527161956E0
4.261196756E1,-1.389717311E-1,-7.009673119E-2,-1.855043650E0
4.311597251E1,5.528326333E-2,-2.997818887E-1,1.549611211E0
4.361997693E1,-1.960875988E-1,1.481347084E-1,-1.425605655E0
4.412398074E1,6.352993846E-2,3.054323897E-4,1.598938584E0
4.462798396E1,-4.294379354E-1,6.093376130E-2,-1.413235664E0
4.513198667E1,-6.795870513E-2,1.244636998E-1,1.445611477E0
4.563598881E1,-1.256854236E-1,-1.510363221E-1,-1.404072642E0
4.613999160E1,7.635809481E-2,5.696314201E-2,1.286328554E0
4.664399285E1,-3.579667509E-1,-5.161807314E-2,-1.048396707E0
4.714799378E1,2.851211429E-1,-1.276707351E-1,9.544762373E-1
4.765199430E1,-4.027126133E-1,4.917461425E-2,-8.739947677E-1
4.815599446E1,2.139553875E-1,-1.899789423E-1,8.234457374E-1
4.865999425E1,-6.780599058E-2,-1.736383140E-1,-6.640099883E-1
4.916399368E1,3.202458620E-1,-3.741546720E-2,6.352993846E-1
4.966799269E1,-5.700895786E-1,-1.366809905E-1,-4.567741454E-1
5.017199139E1,1.018617004E-1,1.704312712E-1,4.995346665E-1
5.067598967E1,-1.637117565E-1,2.290742937E-3,-4.421133697E-1
5.117998764E1,2.996291816E-1,-6.750056148E-2,6.290380359E-1
5.168398550E1,-5.367974043E-1,9.437860548E-2,-6.403390169E-1
5.218798378E1,2.857320011E-1,-2.533561587E-1,6.895136237E-1
5.269198253E1,-5.696314201E-2,7.345648855E-2,-6.571378112E-1
5.319598160E1,3.558287397E-2,-1.009454057E-1,5.882627964E-1
5.369998071E1,2.596175298E-3,-2.275471389E-2,-4.867065251E-1
5.420397988E1,2.887863219E-1,-5.601630211E-1,3.081812859E-1
5.470797894E1,1.763872057E-1,-4.214967042E-2,-5.106829405E-1
5.521197790E1,-1.284343153E-1,-3.028362095E-1,2.661843300E-1
5.571597675E1,6.673697382E-2,8.368847519E-2,-1.519526094E-1
5.621997556E1,-3.115410507E-1,-1.838703007E-1,1.084285006E-1
5.672397420E1,2.417497337E-1,2.345720828E-1,-7.330377400E-2
5.722797259E1,-3.341430426E-1,-1.982256174E-1,1.160643101E-1
5.773197082E1,3.046688139E-1,1.516471803E-1,-1.777616441E-1
5.823596878E1,-3.260490894E-1,-3.500255048E-1,7.742711157E-2
5.873996654E1,-6.093376130E-2,4.524980783E-1,2.571740746E-1
5.924396399E1,-3.955349326E-2,-4.900662601E-1,-3.711003661E-1
5.974796139E1,2.458730713E-2,6.151408553E-1,2.391535640E-1
6.025195852E1,-6.627883017E-2,-2.102901936E-1,-6.339249015E-1
6.075595545E1,-1.110246703E-1,-8.552107029E-3,8.633046746E-1
6.125995212E1,-1.873827726E-1,-5.132791400E-1,-7.079922557E-1
6.176394852E1,1.459966749E-1,4.353938699E-1,6.566796303E-1
6.226794467E1,-1.988364905E-1,-3.106247485E-1,-5.841394663E-1
6.277194056E1,-1.679878123E-2,2.046397030E-1,6.140718460E-1
6.327593618E1,-1.873827726E-1,-2.609919906E-1,-6.097957492E-1
6.377993170E1,2.837466896E-1,1.177441850E-1,6.913462281E-1
6.428392706E1,-4.721984863E-1,-1.117882580E-1,-6.363683939E-1
6.478792212E1,2.174678594E-1,4.260781780E-2,7.408262491E-1
6.529191691E1,-2.987128794E-1,-1.669187993E-1,-8.723149300E-1
6.579591160E1,2.901607752E-1,5.589412898E-2,8.500183225E-1
6.629990618E1,-5.419898033E-1,-1.496618688E-1,-7.089085579E-1
6.680390076E1,5.366446972E-1,-1.104138121E-1,8.636100888E-1
6.730789519E1,-7.994692922E-1,4.485274553E-1,-4.622719288E-1
6.781188946E1,5.578722358E-1,-4.555523992E-1,6.314814687E-1
6.831588352E1,-6.620246768E-1,2.580903657E-2,-8.364266157E-1
6.881987733E1,3.211621642E-1,-1.774562150E-1,1.013424635E0
6.932387092E1,-5.752819180E-1,1.310304999E-1,-7.228057384E-1
6.982786436E1,1.291978955E-1,-2.632827163E-1,6.424770355E-1
7.033185764E1,-1.339320987E-1,6.414080039E-3,-5.250383019E-1
7.083585071E1,-1.542433538E-2,-2.667951882E-1,2.283107042E-1
7.133984358E1,3.237583488E-2,2.513708472E-1,-1.527161896E-1
7.184383623E1,1.001818255E-1,-3.620901108E-1,1.299614757E-1
7.234782858E1,-9.269873053E-2,1.864664704E-1,-1.250745654E-1
7.285182087E1,1.438586563E-1,-3.628536761E-1,8.857539296E-2
7.335581290E1,-1.959348768E-1,3.927860558E-1,-1.679878123E-2
7.385980483E1,-4.347830117E-1,6.612611562E-2,1.649334878E-1
7.436379660E1,3.512472380E-3,4.459312856E-1,-6.459894776E-2
7.486778821E1,-3.836230934E-1,-9.498947114E-2,9.560033679E-2
7.537177962E1,-2.504545636E-2,2.718348205E-1,-2.469420880E-1
7.587577082E1,-1.954767294E-2,-3.019199073E-1,8.445205539E-2
7.637976180E1,8.017600328E-2,2.260199636E-1,2.101374865E-1
7.688375253E1,-3.405571282E-1,-4.114174247E-1,-2.794706449E-2
7.738774306E1,4.211912751E-1,4.845684767E-1,2.034179717E-1
7.789173347E1,-3.341430426E-1,-4.616610706E-1,-5.002982616E-1
7.839572373E1,1.197294965E-1,1.001818255E-1,5.401571989E-1
7.889971384E1,-2.104429156E-1,-2.948949635E-1,-6.698132157E-1
7.940370368E1,-7.788526267E-2,4.463894367E-1,6.840158105E-1
7.990769332E1,-4.810560122E-2,-5.149590373E-1,-4.531089365E-1
8.041168269E1,2.400698513E-1,3.431532979E-1,1.017089859E-1
8.091567180E1,-2.031125426E-1,-4.555523992E-1,-5.543597788E-2
8.141966071E1,1.673769504E-1,2.666424811E-1,-2.217439115E-1
8.192364936E1,-1.169806048E-1,-3.498727977E-1,5.132791400E-1
8.242763769E1,-8.384118974E-2,1.734855920E-1,-2.626718581E-1
8.293162571E1,-2.525925934E-1,6.872228812E-3,3.262017965E-1
8.343561342E1,-1.203403622E-1,2.518289983E-1,-4.050033391E-1
8.393960087E1,-1.249218509E-1,3.069595434E-2,4.596757591E-1
8.444358800E1,-1.050687432E-1,6.719512399E-3,-7.121156454E-1
8.494757483E1,9.514218569E-2,-6.826414168E-2,6.863065958E-1
8.545156144E1,-1.577558219E-1,1.924224012E-2,-7.641918659E-1
8.595554790E1,-3.130681813E-2,-6.872228812E-3,6.850848794E-1
8.645953430E1,3.222311661E-2,-6.988292933E-1,-6.791289449E-1
8.696352056E1,1.440113783E-1,3.301724195E-1,2.254091054E-1
8.746750665E1,6.902772188E-2,-6.540834904E-1,2.124282271E-1
8.797149259E1,-1.667660922E-1,2.745837271E-1,2.107483521E-2
8.847547837E1,-7.483093534E-3,-2.069304436E-1,-2.487746775E-1
8.897946404E1,8.582650125E-2,5.925388336E-1,2.506072819E-1
8.948344946E1,-4.447095692E-1,4.338667095E-1,6.026180983E-1
8.998743477E1,-2.606865466E-1,1.032361463E-1,-5.907062292E-1
9.049141993E1,3.106247485E-1,-7.264709473E-1,4.729620516E-1
9.099540488E1,-3.191768378E-2,-9.224057943E-2,-9.819651246E-1
9.149938962E1,2.530507445E-1,1.065959036E-1,6.769908667E-1
9.200337420E1,-2.183841616E-1,1.235474050E-1,-4.841103405E-2
9.250735858E1,2.090684772E-1,-1.120936871E-1,8.093958721E-3
9.301134274E1,-3.559814394E-1,6.230820715E-2,-2.952004075E-1
9.351532675E1,5.010618567E-1,-4.720457494E-1,1.003345400E-1
9.401931097E1,-2.156352699E-1,2.941313982E-1,1.817322671E-1
9.452329561E1,8.536835015E-2,-3.013090491E-1,7.116574794E-2
9.502728071E1,-1.595884264E-1,4.428769462E-3,-3.749182522E-1
9.553126613E1,3.575085998E-1,-1.795942485E-1,3.512472659E-2
9.603525175E1,-2.842048407E-1,-7.483093441E-2,3.289506733E-1
9.653923748E1,-6.688969582E-2,2.054032832E-1,-1.511890292E-1
9.704322326E1,-2.532034516E-1,2.078467458E-1,2.330449075E-1
9.754720904E1,2.643517256E-1,-3.875937164E-1,-1.328630894E-1
9.805119493E1,-4.902189970E-2,-7.208204269E-2,-2.938259542E-1
9.855518087E1,3.918697536E-1,7.024944760E-3,2.394589931E-1
9.905916686E1,-4.444041252E-1,1.663079411E-1,-4.752528071E-1
9.956315300E1,1.568395346E-1,2.733619884E-2,3.900371492E-1
1.000671393E2,-2.076940238E-1,-1.959348768E-1,-5.094612241E-1
1.005711257E2,8.399390429E-2,1.082757786E-1,5.038107038E-1
1.010751122E2,1.084284950E-2,-3.208567202E-1,-2.858847082E-1
1.015790989E2,1.559232324E-1,2.495382577E-1,3.272708058E-1
1.020830858E2,-5.745183229E-1,-1.212566569E-1,-2.316704690E-1
1.025870728E2,4.182896614E-1,9.590577334E-2,1.151480079E-1
1.030910599E2,1.527161989E-2,-1.087339297E-1,4.896081090E-1
1.035950470E2,1.983783394E-1,1.033888608E-1,-1.404988952E-2
1.040990339E2,-4.599811733E-1,-2.110537887E-1,-3.391826749E-1
1.046030209E2,-9.010255337E-2,3.662134409E-1,4.092794061E-1
1.051070078E2,-2.854265571E-1,-1.608101577E-1,-2.478583902E-1
1.056109946E2,7.040216774E-2,2.437350452E-1,1.795942485E-1
1.061149808E2,-6.383536756E-2,-3.530798554E-1,-2.930623889E-1
1.066189677E2,-5.940660089E-2,3.706422150E-1,3.266599476E-1
1.071229545E2,4.138609022E-2,-2.017380893E-1,-3.804160357E-1
1.076269414E2,2.264781147E-1,9.773836471E-3,-2.092211880E-2
1.081309280E2,-1.009454057E-1,-3.735437989E-1,1.490510106E-1
1.086349146E2,3.726275265E-2,4.631882310E-1,8.292489499E-2
1.091389012E2,-5.451968312E-2,-4.010327160E-1,-2.443459118E-3
1.096428876E2,-1.320995092E-1,4.893026948E-1,-9.498947114E-2
1.101468739E2,-9.407317638E-2,-2.874118686E-1,1.540906429E-1
1.106508601E2,-4.550942779E-2,3.709476292E-1,-4.337139800E-2
1.111548460E2,3.756818548E-2,-5.251910090E-1,5.497783050E-2
1.116588319E2,-2.254091054E-1,4.286743701E-1,-1.200349256E-1
1.121628176E2,-2.825249732E-1,3.941605091E-1,3.645335436E-1
1.126668032E2,-5.488619804E-1,2.672533393E-1,-1.971566081E-1
1.131707887E2,-5.009091273E-2,4.355465770E-1,4.931205809E-1
1.136747741E2,-8.139773458E-2,-1.855501831E-1,-6.327031851E-1
1.141787593E2,-1.145371422E-2,1.970038861E-1,5.876519084E-1
1.146827445E2,-2.330449075E-1,-4.039343297E-1,-7.663298845E-1
1.151867295E2,1.997527778E-1,2.709185183E-1,6.351466775E-1
1.156907144E2,1.324049383E-1,1.221729536E-2,-1.382081509E-1
1.161946992E2,-1.731801629E-1,-7.452550530E-2,-3.359756246E-2
1.166986839E2,-5.207622424E-2,3.294088244E-1,-7.024944760E-3
1.172026685E2,-5.268708616E-2,-1.679878123E-2,1.360701323E-1
1.177066530E2,-5.416843295E-1,4.593703151E-1,3.405570984E-2
1.182106375E2,3.378082216E-1,-4.673115611E-1,7.589995116E-2
1.187146218E2,1.844811589E-1,-3.347539008E-1,-3.436114490E-1
1.192186062E2,-6.261363626E-2,4.657844082E-2,1.339320987E-1
1.197225904E2,-2.299905866E-1,4.555523992E-1,1.404988952E-2
1.202265745E2,8.292489499E-2,1.036942974E-1,1.466075480E-1
1.207305586E2,-1.206457913E-1,-8.109229803E-2,1.527161989E-2
1.212345427E2,-2.580903769E-1,8.933897316E-2,-2.448040545E-1
1.217385267E2,4.387536347E-1,-4.343248606E-1,3.573558852E-2
1.222425107E2,1.131627038E-1,-8.399390429E-2,-1.571449637E-1
1.227464947E2,-3.455967605E-1,4.524980783E-1,2.319758981E-1
1.232504788E2,-1.976147592E-1,5.687150955E-1,2.412915826E-1
1.237544628E2,-2.582430840E-1,1.392771751E-1,-4.885390997E-1
1.242584468E2,1.734855920E-1,-1.259908676E-1,4.627300799E-1
1.247624308E2,2.351829410E-2,-2.641990222E-2,-5.091558099E-1
1.252664148E2,-1.821904182E-1,2.177732885E-1,8.083268404E-1
1.257703989E2,-1.707367003E-1,2.530507445E-1,-6.815723777E-1
1.262743829E2,4.601338804E-1,-4.810560048E-1,5.207622051E-1
1.267783671E2,1.976147592E-1,-2.353356630E-1,-6.033816934E-1
1.272823515E2,-1.188132018E-1,1.614210159E-1,5.529853702E-1
1.277863359E2,-4.184423760E-2,6.872228533E-2,-4.546361268E-1
1.282903205E2,7.788526267E-2,-1.511890292E-1,4.373791814E-1
1.287943052E2,4.306596518E-2,1.605047137E-1,-2.350302190E-1
1.292982900E2,-1.838703007E-1,2.906189263E-1,3.914116025E-1
1.298022749E2,-7.712167501E-2,1.030834317E-1,-2.451094985E-1
1.303062598E2,-2.596175373E-1,3.233001828E-1,-2.559523284E-1
1.308102448E2,4.886918236E-3,-1.893680729E-2,7.351757884E-1
1.313142299E2,-1.304196268E-1,4.327977002E-1,-1.913533956E-1
1.318182150E2,-7.635809598E-4,-4.550942779E-2,2.376264036E-1
1.323222001E2,-2.738201320E-1,6.887500733E-2,-4.063777924E-1
1.328261853E2,3.039052337E-2,1.473711282E-1,3.422369957E-1
1.333301705E2,-1.817322671E-1,-1.762344837E-1,-4.233292937E-1
1.338341557E2,2.481638193E-1,-1.038470119E-1,4.572322965E-1
1.343381409E2,-3.741546720E-2,-3.446804583E-1,-4.932733178E-1
1.348421263E2,4.276053607E-2,1.989891976E-1,2.163988501E-1
1.353461116E2,-3.220784664E-1,-3.207040019E-3,-1.797469556E-1
1.358500969E2,5.273290277E-1,3.802633286E-2,2.588539422E-1
1.363540822E2,-2.214384824E-1,-3.207040206E-2,-4.236347377E-1
1.368580675E2,-9.896009415E-2,2.567159235E-1,4.888445437E-1
1.373620528E2,-2.519817352E-1,-2.096793354E-1,-4.046979249E-1
1.378660381E2,-1.067486182E-1,2.189950198E-1,6.160571575E-1
1.383700234E2,5.589412898E-2,-2.687804997E-1,-6.963858604E-1
1.388740087E2,-2.474002354E-2,1.989891976E-1,6.328558922E-1
1.393779940E2,-1.814268380E-1,-1.853974611E-1,-6.710349321E-1
1.398819792E2,4.062250629E-2,1.177441850E-1,7.203623056E-1
1.403859644E2,1.069013402E-2,-4.334085584E-1,-6.543889046E-1
1.408899496E2,9.941824526E-2,1.853974611E-1,4.680751264E-1
1.413939349E2,-1.270598769E-1,-2.927569449E-1,-3.782780170E-1
1.418979202E2,2.551887631E-1,7.574722916E-2,3.078758419E-1
1.424019054E2,-2.962694131E-2,-3.271180987E-1,-2.735147178E-1
1.429058906E2,1.789833754E-1,1.540906429E-1,1.394298822E-1
1.434098759E2,-3.197877109E-1,-2.341139317E-1,-4.001164436E-2
1.439138610E2,4.002691507E-1,-5.039634556E-2,4.428769648E-2
1.444178463E2,-2.467893660E-1,-1.960875988E-1,-1.463021189E-1
1.449218315E2,2.458730713E-2,3.045161068E-1,1.096502244E-1
1.454258167E2,2.397644334E-2,-4.086685479E-1,2.703076601E-2
1.459298020E2,1.963930279E-1,1.996000707E-1,-1.238528341E-1
1.464337873E2,-5.345067009E-3,-1.024725661E-1,3.174969554E-1
1.469377726E2,-5.894844979E-2,-2.131918073E-1,-3.031416535E-1
1.474417580E2,1.959348768E-1,-1.098029464E-1,-9.468403645E-3
1.479457435E2,1.710421406E-2,-5.658134818E-1,-1.165224537E-1
1.484497290E2,2.052505612E-1,1.182023361E-1,9.819651395E-2
1.489537146E2,3.266599476E-1,-4.141663313E-1,-2.290742844E-2
1.494577003E2,5.543597788E-2,-3.165806830E-1,-3.746128380E-1
1.499616860E2,1.603520066E-1,1.817322709E-2,2.099847645E-1
1.504656717E2,-1.658497900E-1,-2.871064544E-1,-1.591302752E-1
1.509696575E2,-1.029307172E-1,3.882045746E-1,1.293506175E-1
1.514736432E2,2.206749022E-1,-5.424479246E-1,8.567378670E-2
1.519776290E2,1.432477981E-1,1.401934624E-1,-4.271472096E-1
1.524816148E2,3.521635532E-1,-5.340485573E-1,8.720094711E-2
1.529856006E2,3.543015569E-2,9.972367436E-2,1.597411335E-1
1.534895869E2,-1.873827726E-1,2.399171442E-1,-2.976438701E-1
1.539935741E2,-2.982547283E-1,3.129154742E-1,3.301724195E-1
1.544975623E2,-2.825249732E-1,2.489273995E-1,-1.478292793E-1
1.550015518E2,-1.976147592E-1,4.216494262E-1,3.952295184E-1
1.555055424E2,2.183841541E-2,-3.561341763E-1,-1.149952933E-1
1.560095338E2,4.581485875E-3,1.278234571E-1,8.857538924E-3
1.565135255E2,7.635809947E-3,-1.864664704E-1,2.901607752E-2
1.570175175E2,-7.422006875E-2,2.003636509E-1,4.337139800E-2
1.575215100E2,1.780670881E-1,6.078104675E-2,5.129737258E-1
1.580255031E2,-4.980075061E-1,1.724165827E-1,-4.763218164E-1
1.585294969E2,4.292852283E-1,-1.679878100E-3,4.221075773E-1
1.590334914E2,-2.889390290E-1,1.673769504E-1,-7.055488229E-1
1.595374867E2,8.384118974E-2,1.762344837E-1,6.333140731E-1
1.600414824E2,-4.718930274E-2,-1.881463528E-1,-3.393353820E-1
1.605454782E2,-1.215620935E-1,1.690568328E-1,2.252563834E-1
1.610494744E2,-3.781253099E-1,3.054323897E-4,-4.294379354E-1
1.615534710E2,2.605338395E-1,5.115992576E-2,5.601630211E-1
1.620574678E2,-5.572614074E-1,-3.970621154E-2,-4.902189970E-1
1.625614650E2,6.673697382E-2,1.171333194E-1,7.032580972E-1
1.630654626E2,5.177079141E-2,1.527161949E-4,-7.324268818E-1
1.635694609E2,1.641699076E-1,1.718057245E-1,6.574432254E-1
1.640734598E2,-3.588830531E-1,-2.128863782E-1,-5.172497630E-1
1.645774592E2,-6.414080039E-3,2.260199636E-1,3.813323379E-1
1.650814590E2,6.368265301E-2,-5.002982616E-1,-4.702131748E-1
1.655854590E2,3.039052337E-2,2.716821134E-1,5.331322551E-1
1.660894593E2,3.772090003E-2,-2.518289983E-1,-5.317577720E-1
1.665934600E2,-2.241873741E-1,3.898844421E-1,5.348120928E-1
1.670974611E2,-1.182023361E-1,-2.461785078E-1,-5.035052896E-1
1.676014626E2,-2.168569900E-2,4.993819594E-1,4.031707644E-1
1.681054643E2,-2.919933498E-1,-3.262017965E-1,-4.367683083E-2
1.686094663E2,3.665188793E-3,4.115701318E-1,-9.300415963E-2
1.691134687E2,-6.490438432E-2,-4.350884259E-1,7.360920310E-2
1.696174712E2,-1.366809905E-1,4.088212550E-1,1.284343153E-1
1.701214741E2,9.162971983E-4,-4.268417656E-1,-1.841757298E-1
1.706254770E2,-8.857538924E-3,3.077231348E-1,2.394589931E-1
1.711294802E2,1.985310577E-3,-2.881754637E-1,-3.611738086E-1
1.716334837E2,-2.336557768E-2,3.581194878E-1,3.422369957E-1
1.721374876E2,-1.379027218E-1,-1.536324918E-1,-2.489273995E-1
1.726414920E2,-1.146898642E-1,3.422369957E-1,1.495091617E-1
1.731454967E2,-1.241582632E-1,-4.512763619E-1,-7.559451461E-2
1.736495017E2,-4.230238497E-2,4.211912751E-1,4.138609022E-2
1.741535067E2,-2.075413018E-1,-1.049160287E-1,2.032652497E-1
1.746575112E2,9.315688163E-2,2.499964088E-1,-5.726857483E-2
1.751615152E2,-2.131918073E-1,-4.001164436E-2,1.904370934E-1
1.756655186E2,2.153298408E-1,1.237001196E-1,-4.381427765E-1
1.761695212E2,-2.874118686E-1,-9.422589093E-2,6.078104377E-1
1.766735233E2,-9.773836471E-3,3.627009690E-1,-5.349648595E-1
1.771775248E2,-1.666133702E-1,-1.936441362E-1,5.690205693E-1
1.776815259E2,5.894844979E-2,1.241582632E-1,-5.630646348E-1
1.781855263E2,6.047561392E-2,-3.208567202E-1,6.000219584E-1
1.786895263E2,-1.802051067E-2,8.674279600E-2,-6.779071689E-1
1.791935257E2,-4.520399496E-2,-2.591593862E-1,6.688969135E-1
1.796975245E2,-2.099847645E-1,2.405280024E-1,-6.896663308E-1
1.802015227E2,1.748600453E-1,-3.086394370E-1,7.751874328E-1
1.807055207E2,-1.188132018E-1,4.566214234E-2,-6.714931130E-1
1.812095183E2,-1.792888194E-1,-2.504545636E-2,6.071996093E-1
1.817135158E2,-1.377500147E-1,2.138026757E-3,-8.436042666E-1
1.822175134E2,4.607447684E-1,-3.260490894E-1,7.411317229E-1
1.827215109E2,-3.883572817E-1,3.683514595E-1,-5.755873322E-1
1.832255082E2,-1.893680729E-2,2.131918073E-1,7.515164018E-1
1.837295052E2,-3.087921441E-1,-2.362519503E-1,-1.036942959E0
1.842335018E2,1.328630894E-1,3.390299529E-2,9.712749720E-1
1.847374980E2,-1.531743407E-1,-1.527161949E-4,-8.921679854E-1
1.852414938E2,-2.365573794E-1,1.991419196E-1,8.881973624E-1
1.857454893E2,-2.382372692E-2,-1.070540547E-1,-1.067180753E0
1.862494843E2,-2.612974048E-1,1.649334878E-1,1.102916360E0
1.867534793E2,3.481929377E-2,-3.572031856E-1,-1.183855891E0
1.872574740E2,-2.272416949E-1,3.242164850E-1,9.879210591E-1
1.877614684E2,1.754709035E-1,-2.762635946E-1,-8.014546037E-1
1.882654626E2,-3.052796721E-1,3.863719702E-1,6.181951761E-1
1.887694570E2,8.307760954E-2,-3.773617148E-1,-6.372846961E-1
1.892734513E2,-1.853974611E-1,5.062541962E-1,5.068650246E-1
1.897774454E2,-2.871064469E-2,-6.598866582E-1,-3.481929302E-1
1.902814392E2,1.298087686E-1,4.156934917E-1,1.211039424E-1
1.907854325E2,-2.371682525E-1,-4.272999167E-1,-5.009091273E-2
1.912894257E2,8.903354406E-2,4.482220411E-1,1.006399691E-1
1.917934186E2,-2.593120933E-1,-3.152062297E-1,2.573267817E-1
1.922974113E2,2.168570012E-1,1.511890348E-2,-3.162752390E-1
1.928014036E2,-2.893971801E-1,1.328630894E-1,4.601338804E-1
1.933053956E2,-5.803215317E-3,3.069595397E-1,-2.643517256E-1
1.938093872E2,-8.674279600E-2,-1.091920808E-1,4.421133697E-1
1.943133789E2,-6.093376130E-2,9.560033679E-2,-7.687733173E-1
1.948173694E2,-3.420842811E-2,-8.552107215E-2,8.235984445E-1
1.953213602E2,-1.472184062E-1,-9.010255337E-3,-1.111163020E0
1.958253508E2,2.431241870E-1,-3.709476292E-1,1.243415236E0
1.963293412E2,-4.169152081E-1,1.145371497E-1,-1.115897179E0
1.968333312E2,1.907425225E-1,-3.049742281E-1,1.153007269E0
1.973373209E2,-1.849393100E-1,3.324631453E-1,-1.066569924E0
1.978413102E2,-4.062250629E-2,8.032871783E-2,8.700241446E-1
1.983452992E2,-2.588539422E-1,2.393062711E-1,-8.359684348E-1
1.988492879E2,3.817904741E-2,-9.498947114E-2,8.663589954E-1
1.993532764E2,-1.632536054E-1,-8.414662629E-2,-1.088255644E0
1.998572646E2,-6.383536756E-2,5.833758786E-2,1.168278933E0
2.003612525E2,-3.313941360E-1,8.384118974E-2,-1.397658587E0
2.008652402E2,-4.871646687E-2,1.084284950E-2,1.515555501E0
2.013692276E2,6.872228533E-2,-2.228129357E-1,-1.640324593E0
2.018732148E2,-2.571740746E-1,2.777907550E-1,1.638186574E0
2.023772018E2,1.734855920E-1,-4.851793647E-1,-1.390786409E0
2.028811887E2,-3.155116439E-1,3.063486814E-1,1.213330150E0
2.033851756E2,1.600465775E-1,-6.397281289E-1,-1.342833519E0
2.038891622E2,1.970038936E-2,-1.189659163E-1,1.419344306E0
2.043931487E2,-6.062832847E-2,-1.401934624E-1,-1.480430841E0
2.048971349E2,-2.874118686E-1,3.550651670E-1,1.264337420E0
2.054011207E2,1.110246703E-1,-2.478583902E-1,-1.087033868E0
2.059051063E2,-3.593412042E-1,3.770562708E-1,1.067791581E0
2.064090919E2,6.841685623E-2,-3.451386094E-1,-1.159115911E0
2.069130773E2,-1.432477981E-1,2.883281708E-1,1.045342326E0
2.074170624E2,2.845102847E-1,-6.012436748E-1,-9.770781994E-1
2.079210472E2,-1.059850380E-1,2.663370371E-1,5.977311730E-1
2.084250318E2,1.531743407E-1,-3.517054021E-1,-2.553414702E-1
2.089290160E2,-1.966984570E-1,1.105665267E-1,2.744309902E-1
2.094329999E2,-4.702131748E-1,7.024945319E-2,-2.759581506E-1
2.099369835E2,-1.389717404E-2,5.510000587E-1,4.428769648E-1
2.104409668E2,-1.374445707E-1,-5.867356062E-1,-1.944077164E-1
2.109449496E2,1.091920808E-1,6.026180983E-1,2.562577724E-1
2.114489321E2,-2.206749022E-1,-3.998109996E-1,-3.579667509E-1
2.119529143E2,1.701258421E-1,1.461493969E-1,2.240346521E-1
2.124568961E2,-3.139844835E-1,-4.277580678E-1,1.195767820E-1
2.129608776E2,1.637117565E-1,7.195987105E-1,-1.269071549E-1
2.134648589E2,-3.097084463E-1,-3.656025827E-1,8.704823256E-2
2.139688398E2,-1.119409725E-1,2.588539422E-1,4.199695215E-2
2.144728205E2,-2.513708472E-1,9.483675659E-2,-2.884808779E-1
2.149768008E2,5.568032265E-1,-7.040216774E-2,3.591884971E-1
2.154807808E2,3.543015569E-2,-8.058833480E-1,3.390299380E-1
2.159847605E2,-9.621120244E-2,7.895427346E-1,-1.985310577E-2
2.164887398E2,2.231183648E-1,-4.879282415E-1,-1.740964688E-2
2.169927188E2,-5.306887627E-1,6.889027357E-1,-3.306305707E-1
2.174966975E2,-1.069013379E-3,-3.804160357E-1,-6.566796452E-2
2.180006758E2,-1.533270627E-1,4.211912751E-1,-2.748891525E-2
2.185046539E2,-1.484401375E-1,-7.620538026E-2,2.038761228E-1
2.190086317E2,-3.512472380E-3,1.919642538E-1,-5.619955808E-2
2.195126091E2,-1.866191924E-1,2.076940238E-1,4.146244824E-1
2.200165862E2,-1.078176349E-1,2.748891525E-2,-8.816305995E-1
2.205205631E2,-1.517999023E-1,2.150243968E-1,9.969313145E-1
2.210245396E2,-1.111773923E-1,1.204930767E-1,-1.092837095E0
2.215285158E2,-3.313941360E-1,5.036579967E-1,7.290670872E-1
2.220324917E2,-2.428187430E-2,-4.303542376E-1,-5.479456782E-1
2.225364674E2,-5.299251899E-2,2.955058515E-1,7.070759535E-1
2.230404428E2,7.605266571E-2,-6.178897023E-1,-6.304124594E-1
2.235444179E2,-2.871064469E-2,4.091266990E-1,3.477347791E-1
2.240483927E2,-3.184132576E-1,6.398808211E-2,3.394880891E-1
2.245523674E2,-3.115410358E-2,5.294670463E-1,-2.144135386E-1
2.250563418E2,-2.405280024E-1,-2.383899838E-1,1.466075480E-1
2.255603161E2,-7.620538026E-2,2.932150960E-1,-3.333794475E-1
2.260642904E2,-1.073594838E-1,-1.609628648E-1,3.688096106E-1
2.265682645E2,-9.361502528E-2,2.185368687E-1,-1.965457499E-1
2.270722385E2,-3.649916872E-2,-2.626718581E-2,5.771145225E-1
2.275762124E2,-1.933387071E-1,2.590066791E-1,-5.783362389E-1
2.280801862E2,1.606574357E-1,-6.429351866E-2,6.207913160E-1
2.285841597E2,-4.708240330E-1,2.069304436E-1,-6.212494969E-1
2.290881331E2,2.667951882E-1,-6.398808211E-2,7.043271065E-1
2.295921063E2,-4.170679152E-1,-3.355174661E-1,-8.323032856E-1
2.300960793E2,1.168278903E-1,1.733328849E-1,8.249728680E-1
2.306000522E2,-1.203403622E-1,-8.765909821E-2,-7.197514176E-1
2.311040248E2,3.207040206E-2,1.806632578E-1,5.734493136E-1
2.316079974E2,2.681696415E-1,-4.815141559E-1,-1.172860414E-1
2.321119698E2,-3.031416535E-1,1.102152824E0,-5.436696485E-2
2.326159419E2,-5.772672221E-2,-1.440113783E-1,1.742491722E-1
2.331199139E2,-1.136208475E-1,-2.057087123E-1,-9.682206810E-2
2.336238856E2,9.040798992E-2,-1.270598769E-1,-1.702785641E-1
2.341278572E2,2.367101051E-2,-4.566214234E-2,-2.855792828E-2
2.346318285E2,3.512472380E-3,-1.545487940E-1,-4.495964646E-1
2.351357997E2,-1.078176349E-1,2.759581506E-1,4.616610706E-1
2.356397706E2,-1.788306683E-1,-4.428769648E-2,-5.048797131E-1
2.361437413E2,-2.470948100E-1,1.886045039E-1,7.834340930E-1
2.366477118E2,-7.971785218E-2,-2.374736816E-1,-6.391173005E-1
2.371516822E2,-2.023489624E-1,2.090684772E-1,7.385355234E-1
2.376556524E2,-1.588248461E-2,-4.902189970E-1,-9.271399975E-1
2.381596230E2,-2.706131041E-1,3.356702030E-1,1.039386392E0
2.386635943E2,1.907425225E-1,-6.433933377E-1,-9.146173000E-1
2.391675666E2,1.035415828E-1,6.087267399E-1,6.986765862E-1
2.396715395E2,-2.916879356E-1,-3.558287323E-1,-5.377137065E-1
2.401755128E2,6.108647957E-2,3.585776389E-1,5.677987933E-1
2.406794864E2,-1.339320987E-1,-2.919933498E-1,-7.150171995E-1
2.411834600E2,-3.982838392E-1,2.185368687E-1,9.095776677E-1
2.416874337E2,-5.726857483E-2,-6.154462695E-2,-1.251509190E0
2.421914076E2,1.464548260E-1,1.693622619E-1,1.141248107E0
2.426953816E2,7.559451461E-2,-5.258018374E-1,-7.341067195E-1
2.431993556E2,-6.429351866E-2,4.416552484E-1,5.393936038E-1
2.437033296E2,-2.901607659E-3,-2.874118686E-1,-2.325867712E-1
2.442073035E2,-8.826996386E-2,4.092794061E-1,1.267544478E-1
2.447112773E2,-4.413498193E-2,-3.825540543E-1,-3.477347791E-1
2.452152510E2,2.565632164E-1,7.376192510E-2,2.834412456E-1
2.457192247E2,-3.417788446E-1,-3.888154328E-1,-1.403461844E-1
2.462231984E2,8.735366166E-2,3.011563420E-1,2.640463114E-1
2.467271720E2,-1.501200199E-1,-6.165152788E-1,-1.973093301E-1
2.472311457E2,1.774562150E-1,3.897317350E-1,1.692095399E-1
2.477351194E2,-3.242164850E-1,-4.187478125E-1,-1.327103674E-1
2.482390932E2,1.611155868E-1,4.013381600E-1,3.313941509E-2
2.487430669E2,-3.167333901E-1,-4.279107749E-1,-7.712167501E-2
2.492470406E2,-6.582067907E-2,4.912880063E-1,1.482874304E-1
2.497510144E2,-4.963276163E-2,-7.064651251E-1,-2.341139317E-1
2.502549883E2,1.418733448E-1,3.599520624E-1,7.651081681E-2
2.507589621E2,-3.455967605E-1,-1.039997265E-1,9.590577334E-2
2.512629360E2,2.315177470E-1,1.771507859E-1,-3.976729810E-1
2.517669101E2,-2.690859437E-1,-1.015562713E-1,5.418370366E-1
2.522708841E2,2.290742937E-3,-5.864302069E-2,-6.598866582E-1
2.527748580E2,5.384773016E-1,-4.984656572E-1,3.703367710E-1
2.532788319E2,-1.385135949E-1,2.677114904E-1,-1.320995092E-1
2.537828059E2,-6.273581386E-1,6.232348084E-1,1.678351015E-1
2.542867798E2,-3.883572817E-1,2.083048970E-1,3.909534588E-2
2.547907535E2,3.512472659E-2,1.084285006E-1,7.635809481E-2
2.552947269E2,-5.665770918E-2,-1.311832070E-1,-4.277580678E-1
2.557987002E2,-1.915061027E-1,5.024362803E-1,3.281871080E-1
2.563026731E2,3.721693754E-1,-4.610501826E-1,5.192350596E-3
2.568066459E2,-1.362228394E-1,1.375972927E-1,3.970621154E-2
2.573106184E2,2.275471240E-1,-4.210385382E-1,-4.080576599E-1
2.578145907E2,-2.014326602E-1,3.820959330E-1,2.185368687E-1
2.583185628E2,-1.452330947E-1,-2.985601723E-1,-1.432477981E-1
2.588225346E2,-3.857611120E-1,5.917752385E-1,4.211912751E-1
2.593265062E2,2.142608166E-1,-5.720748901E-1,-2.825249732E-1
2.598304776E2,-1.020144150E-1,6.018545032E-1,1.814268380E-1
2.603344488E2,-7.544180006E-2,-6.652317643E-1,-5.818486959E-2
2.608384198E2,-1.434005052E-1,5.856665969E-1,-1.172860414E-1
2.613423905E2,-3.190241456E-1,-1.641699076E-1,9.636391699E-2
2.618463611E2,4.260781780E-2,2.098320574E-1,1.834121495E-1
2.623503315E2,-1.125518382E-1,-4.631882310E-1,-6.643154472E-2
2.628543017E2,6.902772188E-2,1.687513888E-1,1.617264450E-1
2.633582718E2,-7.254019380E-2,-3.057378232E-1,-5.451968312E-2
2.638622416E2,1.594357044E-1,1.334739476E-1,-1.612683088E-1
2.643662114E2,-1.569922417E-1,-3.654498458E-1,1.821904182E-1
2.648701810E2,5.299251899E-2,4.059196413E-1,-1.496618688E-1
2.653741510E2,-2.886336111E-2,-1.774562150E-1,2.669478953E-1
2.658781215E2,-1.467602700E-1,1.771507859E-1,-2.044869810E-1
2.663820923E2,-1.893680841E-1,3.252854943E-2,2.438877672E-1
2.668860634E2,4.306596518E-2,8.781181276E-2,-2.709185183E-1
2.673900345E2,-1.301141977E-1,-2.721402645E-1,4.072940946E-1
2.678940057E2,-2.101374865E-1,9.040798992E-2,-5.519163013E-1
2.683979769E2,1.537852138E-1,-2.800815105E-1,4.129445851E-1
2.689019482E2,-1.817322709E-2,-1.670715213E-1,-3.794997334E-1
2.694059195E2,1.498145908E-1,-6.307178736E-2,3.216203153E-1
2.699098908E2,-1.690568328E-1,5.742128938E-2,-4.905244112E-1
2.704138619E2,-9.330959618E-2,2.194531709E-1,4.780016840E-1
2.709178330E2,1.366809905E-1,-3.597993553E-1,-2.461785078E-1
2.714218039E2,2.947422490E-2,-5.910116807E-2,-9.330959618E-2
2.719257746E2,1.250745654E-1,-3.489564955E-1,-2.121227980E-1
2.724297449E2,-2.374736816E-1,3.917170465E-1,1.821904182E-1
2.729337157E2,-2.675587833E-1,9.392046183E-2,1.705839932E-1
2.734376864E2,1.084285006E-1,2.971857190E-1,1.756236330E-2
2.739416569E2,1.721111536E-1,-4.112647176E-1,1.563813835E-1
2.744456274E2,-9.132428467E-2,-1.177441850E-1,-5.442805290E-1
2.749495978E2,-5.340485573E-1,6.858484149E-1,5.705476999E-1
2.754535680E2,5.054906011E-2,-3.231474757E-1,-6.913462281E-1
2.759575381E2,-1.670715213E-1,9.758564830E-2,4.083631039E-1
2.764615082E2,1.656970680E-1,-7.927497625E-1,-2.440404743E-1
2.769654782E2,2.585485280E-1,9.560033679E-2,-2.932150960E-1
2.774694481E2,-3.207040206E-2,-6.017018110E-2,1.116355360E-1
2.779734180E2,-8.475748450E-2,4.473057389E-1,4.092794061E-1
2.784773877E2,-3.359756246E-2,1.852447391E-1,5.177079141E-2
2.789813572E2,-2.706131041E-1,1.658497900E-1,-2.208276242E-1
2.794853266E2,-3.817904973E-3,9.728021920E-2,2.365573794E-1
2.799892959E2,1.797469556E-1,-5.035052896E-1,-4.749473631E-1
2.804932650E2,-1.345429718E-1,-6.963858753E-2,3.260490894E-1
2.809972340E2,2.438877672E-1,-3.349066079E-1,-3.877464235E-1
2.815012028E2,-1.818849891E-1,5.287034512E-1,3.973675370E-1
2.820051715E2,4.825831577E-2,-1.608101577E-1,1.311832070E-1
2.825091399E2,1.933387071E-1,-1.800523996E-1,-3.581194878E-1
2.830131081E2,3.681987524E-1,-5.131264329E-1,-1.773035079E-1
2.835170764E2,1.175914705E-1,-3.019199073E-1,-1.371391416E-1
2.840210449E2,-9.758564830E-2,1.078176349E-1,3.055851161E-1
2.845250139E2,4.028653204E-1,-6.688969135E-1,-4.011854529E-1
2.850289834E2,-2.107483521E-2,2.327394783E-1,5.879573524E-2
2.855329529E2,6.658425927E-2,-3.051269650E-1,2.947422490E-2
2.860369226E2,-1.866191924E-1,3.065013885E-1,-5.436696485E-2
2.865408925E2,-1.649334840E-2,-4.138609022E-2,2.551887631E-1
2.870448627E2,1.412624866E-1,-1.618791670E-1,-5.816959739E-1
2.875488329E2,-3.252854943E-2,8.109229803E-2,5.199986696E-1
2.880528033E2,4.948004708E-2,-3.628536761E-1,-5.215258002E-1
2.885567740E2,-1.456912458E-1,1.588248461E-1,6.273581386E-1
2.890607451E2,1.041524485E-1,-1.718057245E-1,-9.303470850E-1
2.895647165E2,-2.904661894E-1,2.545779049E-1,9.077450633E-1
2.900686881E2,-1.661552191E-1,-1.001818255E-1,-4.873173833E-1
2.905726600E2,4.132500291E-1,-3.207040206E-2,2.455676347E-1
2.910766322E2,5.068650246E-1,-6.884446144E-1,9.819651395E-2
2.915806045E2,3.481929302E-1,-4.773908257E-1,-1.142317131E-1
2.920845768E2,1.183550507E-1,-1.553123742E-1,-5.329795182E-2
2.925885492E2,1.450803876E-2,-4.474584386E-2,-1.831067204E-1
2.930925220E2,-9.315688163E-2,1.521053314E-1,9.239330143E-2
2.935964950E2,-5.360338464E-2,1.391244531E-1,-2.779434808E-2
2.941004686E2,-5.558869615E-2,3.924806044E-2,-4.535670951E-2
2.946044424E2,3.512472380E-3,1.634063199E-2,4.444041103E-2
2.951084163E2,-2.153298259E-2,2.825249545E-2,-3.695731983E-2
2.956123904E2,-4.306596518E-2,7.315105945E-2,4.230238497E-2
2.961163647E2,1.653916389E-1,-1.447749585E-1,-7.528908551E-2
2.966203392E2,1.098029464E-1,-2.241873741E-1,9.926552884E-3
2.971243137E2,6.688969582E-2,-7.681624591E-2,-2.764163166E-2
2.976282883E2,-2.519817278E-2,5.910116807E-2,1.664606482E-2
2.981322628E2,-2.031125315E-2,3.466657549E-2,-3.084867075E-2
2.986362372E2,-3.023780696E-2,4.169152305E-2,-8.857538924E-3
2.991402115E2,-2.886336111E-2,3.588830680E-2,1.496618707E-2
2.996441856E2,-1.487455666E-1,1.715002805E-1,7.177661173E-3
3.001481597E2,6.520981342E-2,-3.756818548E-2,1.954767294E-2
3.006521336E2,1.472184062E-1,-2.252563834E-1,-1.496618707E-2
3.011561074E2,1.802051067E-2,-5.497782957E-3,-1.114828233E-2
3.016600814E2,-1.908952370E-2,3.069595434E-2,1.435532235E-2
3.021640554E2,1.527161920E-3,2.932151034E-2,-4.734201822E-3
3.026680292E2,-8.277218044E-2,1.131627038E-1,-4.581485991E-4
3.031720029E2,-1.359174103E-1,1.834121495E-1,-8.552107029E-3
3.036759763E2,-9.697478265E-2,6.429351866E-2,6.734783947E-2
3.041799497E2,9.529490769E-2,-3.802633286E-2,-7.696896046E-2
3.046839228E2,4.184423760E-2,-1.435532235E-2,9.926552884E-3
3.051878958E2,1.481347065E-2,-1.221729559E-3,2.443459118E-3
3.056918686E2,-1.527161920E-3,1.298087649E-2,-6.719512399E-3
3.061958415E2,-2.748891525E-2,-3.665188793E-3,1.343902480E-2
3.066998144E2,2.703076601E-2,-7.635809598E-4,-9.453132749E-2
3.072037875E2,-9.514218569E-2,7.773254067E-2,1.049160287E-1
3.077077606E2,2.825249545E-2,-5.192350596E-3,-5.894844979E-2
3.082117336E2,4.474584386E-2,-2.076940238E-2,6.123919412E-2
3.087157066E2,3.130681813E-2,-1.924224012E-2,-3.283398226E-2
3.092196796E2,4.596757516E-2,-4.444041103E-2,1.298087649E-2
3.097236525E2,-2.351829410E-2,2.153298259E-2,-5.345066637E-2
3.102276254E2,-7.605266571E-2,8.643736690E-2,6.368265301E-2
3.107315981E2,5.619955808E-2,-2.718348242E-2,-3.817904973E-3
3.112355707E2,3.466657549E-2,1.802051067E-2,-2.031125315E-2
3.117395433E2,-1.269071549E-1,9.376774728E-2,4.352411628E-2
3.122435161E2,3.772090003E-2,5.085449293E-2,-3.207040206E-2
3.127474890E2,3.588830680E-2,-5.696314201E-2,1.221729559E-3
3.132514620E2,-3.665188793E-3,1.924224012E-2,5.345067009E-3
3.137554352E2,2.641990222E-2,3.512472380E-3,-7.635809598E-4
3.142594087E2,9.621120058E-3,-2.596175298E-2,1.099556591E-2
3.147633824E2,7.024944760E-3,2.474002354E-2,-5.955931731E-3
3.152673562E2,-1.985310577E-3,2.947422490E-2,1.740964688E-2
3.157713300E2,-1.053741761E-2,1.756236330E-2,-3.069595434E-2
3.162753036E2,-7.712167501E-2,4.123337194E-2,1.618791744E-2
3.167792770E2,1.893680729E-2,3.420842811E-2,-1.832594397E-3
3.172832502E2,-4.459312931E-2,3.543015569E-2,1.237001177E-2
3.177872232E2,-5.497782957E-3,3.558287397E-2,3.665188793E-3
3.182911961E2,-3.604102135E-2,4.932733253E-2,2.794706449E-2
3.187951691E2,-1.143844277E-1,-2.153298259E-2,1.443168074E-1
3.192991421E2,-2.521344423E-1,3.512472510E-1,4.627300799E-2
3.198031149E2,-1.953240186E-1,5.939132571E-1,4.413498193E-2
3.203070877E2,-1.360701323E-1,3.344484791E-2,3.802633286E-2
3.208110602E2,1.698204130E-1,-3.924806118E-1,-1.174387559E-1
3.213150325E2,2.889390290E-1,-5.245801210E-1,-2.504545636E-2
3.218190047E2,-5.299251899E-2,3.937023580E-1,-3.504836559E-1
3.223229771E2,-7.009673119E-1,8.109229803E-1,1.136361241E0
3.228269496E2,-1.206457894E-2,-2.266308367E-1,-1.018464327E0
3.233309225E2,-8.414662629E-2,3.133736253E-1,2.486219704E-1
3.238348958E2,2.315177470E-1,-8.981239200E-1,-1.269071549E-1
3.243388692E2,1.298087686E-1,4.474584460E-1,2.127336562E-1
3.248428424E2,-1.372918636E-1,-2.663370371E-1,-3.176496923E-2
3.253468158E2,-3.071122766E-1,3.778198659E-1,-5.477929711E-1
3.258507892E2,-1.069013402E-2,-3.940077871E-2,4.210385382E-1
3.263547625E2,-2.412915789E-2,4.326449931E-1,4.329504073E-1
3.268587358E2,5.575668216E-1,-3.714057803E-1,-7.849612087E-2
3.273627091E2,-5.280926228E-1,1.401934624E-1,-2.214384824E-1
3.278666825E2,2.693913579E-1,-3.097084463E-1,-1.849393100E-1
3.283706561E2,-7.910698652E-2,2.428187430E-1,1.392771751E-1
3.288746298E2,-3.695731983E-2,-3.669770062E-1,-1.553123742E-1
3.293786036E2,-2.025016695E-1,4.230238497E-1,1.195767820E-1
3.298825774E2,-6.307178736E-2,-3.816377819E-1,-3.619373962E-2
3.303865510E2,-4.382954910E-2,3.248273432E-1,4.214967042E-2
3.308905246E2,1.043051630E-1,-6.317868829E-1,-1.487455666E-1
3.313944980E2,-2.018908113E-1,3.955349326E-1,2.295324355E-1
3.318984714E2,1.279761642E-1,-2.982547283E-1,-3.674351573E-1
3.324024448E2,-3.014617562E-1,4.549415410E-1,3.622428179E-1
3.329064183E2,1.496618707E-2,-4.050033391E-1,-2.411388755E-1
3.334103916E2,-2.803869247E-1,5.526798964E-1,4.416552484E-1
3.339143649E2,3.924806044E-2,-3.660607338E-1,-3.709476292E-1
3.344183380E2,5.803215317E-3,1.246164143E-1,5.604684353E-1
3.349223110E2,-2.255618125E-1,-1.033888608E-1,-6.603448391E-1
3.354262838E2,-2.484692484E-1,4.172206521E-1,9.227112532E-1
3.359302568E2,-1.415679157E-1,-2.893971801E-1,-1.079398036E0
3.364342299E2,-2.993237413E-2,-9.468403645E-3,1.186604857E0
3.369382030E2,1.188132018E-1,-3.139844835E-1,-1.280525327E0
3.374421760E2,-9.605848789E-2,3.271180987E-1,1.506698012E0
3.379461490E2,-7.055488229E-2,-2.890917659E-1,-1.747531414E0
3.384501219E2,-7.651081681E-2,9.529490769E-2,1.812435746E0
3.389540946E2,-1.044578776E-1,-6.994401664E-2,-1.585652232E0
3.394580672E2,-1.916588247E-1,3.025307953E-1,1.239139199E0
3.399620396E2,2.663370371E-1,-5.626064539E-1,-1.122922182E0
3.404660118E2,-4.428769648E-2,3.069595397E-1,1.049771070E0
3.409699840E2,-1.846338809E-1,-8.849903345E-1,-8.770490885E-1
3.414739559E2,2.561050653E-1,5.587885380E-1,7.964149714E-1
3.419779278E2,-2.616028488E-1,-2.211330533E-1,-5.992583632E-1
3.424818996E2,-3.729329407E-1,5.279398561E-1,3.707949221E-1
3.429858713E2,-2.672533318E-2,-6.155989766E-1,-6.621774435E-1
3.434898430E2,-9.101885557E-2,2.177732885E-1,6.707295179E-1
3.439938146E2,-1.722638607E-1,-6.487383842E-1,-2.313650399E-1
3.444977860E2,3.970621154E-3,5.083922148E-1,5.910117030E-1
3.450017575E2,-5.199986696E-1,-5.108356476E-1,-7.254019380E-1
3.455057289E2,-3.023780584E-1,6.698132157E-1,6.401863098E-1
3.460097002E2,-3.608683646E-1,-5.334376693E-1,-6.545416117E-1
3.465136716E2,-4.612028971E-2,4.859429300E-1,5.563451052E-1
3.470176430E2,-1.125518382E-1,-6.385064125E-1,-1.023198515E-1
3.475216145E2,-1.288924664E-1,6.311760545E-1,-6.979130208E-2
3.480255858E2,-3.888154328E-1,-4.390590489E-1,1.684459597E-1
3.485295572E2,-8.292489499E-2,4.653262496E-1,-1.324049383E-1
3.490335284E2,-1.065959036E-1,-2.316704690E-1,2.109010667E-1
3.495374997E2,-2.315177470E-1,3.984365463E-1,-2.225074917E-1
3.500414709E2,-3.106247485E-1,-9.621120244E-2,1.513417512E-1
3.505454420E2,-1.177441850E-1,6.284271479E-1,-1.715002805E-1
3.510494130E2,-4.986183643E-1,-6.704241037E-2,4.097375572E-1
3.515533840E2,1.618791744E-2,3.827067912E-1,-4.758636653E-1
3.520573549E2,-9.010255337E-2,-3.820959330E-1,1.976147592E-1
3.525613257E2,1.392771751E-1,1.317940801E-1,-7.742711157E-2
3.530652966E2,-4.121810198E-1,8.949168772E-2,6.154462695E-2
3.535692675E2,3.665188700E-2,2.657261789E-1,1.481347065E-2
3.540732385E2,-2.825249732E-1,-1.435532235E-2,1.014035568E-1
3.545772095E2,-4.596757591E-1,1.241582632E-1,-5.674933791E-1
3.550811806E2,2.838993967E-1,1.310304999E-1,2.420551628E-1
3.555851518E2,-1.473711282E-1,6.123919412E-2,-1.420260668E-1
3.560891231E2,3.457494676E-1,-2.101374865E-1,-3.252854943E-2
3.565930943E2,-7.192932814E-2,1.055268943E-1,-9.483675659E-2
3.570970656E2,-2.066250145E-1,8.781181276E-2,6.719512399E-3
3.576010368E2,-3.405571282E-1,1.192713454E-1,1.084285006E-1
3.581050081E2,-7.757982612E-2,1.230892539E-1,1.157588735E-1
3.586089793E2,7.024944760E-3,-6.200277433E-2,-7.177661359E-2
3.591129505E2,4.123337194E-2,3.008509055E-2,1.151480079E-1
3.596169217E2,-1.824958473E-1,9.376774728E-2,-1.530216336E-1
3.601208928E2,8.704823256E-2,1.339320987E-1,1.058323234E-1
3.606248639E2,-1.905898154E-1,-6.093376130E-2,-1.948658675E-1
3.611288349E2,2.541197538E-1,-2.483165264E-1,6.962331533E-1
3.616328059E2,-1.574503928E-1,-1.545487940E-1,-1.588248461E-2
3.621367768E2,-3.863719851E-2,3.764454126E-1,2.793179154E-1
3.626407477E2,-9.040798992E-2,-9.896009415E-2,-4.989238083E-1
3.631447185E2,1.191186346E-2,-1.020144150E-1,3.043633699E-1
3.636486892E2,-2.903134823E-1,8.277218044E-2,-2.843575478E-1
3.641526600E2,1.174387559E-1,-1.912006736E-1,5.396990180E-1
3.646566306E2,-2.648098767E-1,2.515235841E-1,-7.466294765E-1
3.651606013E2,2.084576041E-1,-1.166751757E-1,3.619373739E-1
3.656645718E2,8.918625861E-2,8.857539296E-2,-1.012508348E-1
3.661685424E2,-3.191768378E-2,-2.393062711E-1,2.475529462E-1
3.666725131E2,-8.185587823E-2,9.376774728E-2,-4.816668928E-1
3.671764839E2,5.039634649E-3,-2.504545450E-1,3.639226854E-1
3.676804547E2,1.908952370E-2,1.586721241E-1,-6.994401664E-2
3.681844255E2,1.273653060E-1,-3.468184769E-1,2.290742844E-2
3.686883965E2,7.742711157E-2,6.643154472E-2,-4.740310609E-1
3.691923675E2,-1.354592592E-1,-1.023198478E-2,1.754709035E-1
3.696963385E2,-2.820668221E-1,3.422369957E-1,2.588539422E-1
3.702003095E2,1.603520103E-2,-3.246746361E-1,7.635809598E-4
3.707042806E2,-4.184423760E-2,3.894262910E-1,1.212566569E-1
3.712082518E2,-1.172860414E-1,-2.700022459E-1,-2.380845547E-1
3.717122233E2,-3.231474757E-1,2.241873741E-1,3.988946974E-1
3.722161946E2,-2.325867712E-1,-3.958403766E-1,-3.882045746E-1
3.727201660E2,-3.530798554E-1,4.656316638E-1,2.026543915E-1
3.732241375E2,2.044869810E-1,-5.589412451E-1,-8.720094711E-2
3.737281090E2,-9.926552884E-3,2.038761228E-1,3.032943606E-1
3.742320805E2,-5.218312144E-1,-2.730565667E-1,2.199113183E-2
3.747360522E2,2.397644222E-1,2.428187430E-1,1.893680841E-1
3.752400239E2,-1.496618688E-1,-3.677406013E-1,-6.933315396E-1
3.757439957E2,7.681624591E-2,3.465130329E-1,3.978256881E-1
3.762479676E2,-3.278816640E-1,1.939495653E-2,4.260781780E-2
3.767519395E2,-1.679878100E-3,2.791652083E-1,1.916588247E-1
3.772559113E2,-7.788526267E-2,-4.902189970E-2,-4.300487936E-1
3.777598833E2,-1.960875988E-1,3.646862805E-1,5.076286197E-1
3.782638551E2,-6.597339362E-2,-3.681987524E-1,-3.929387629E-1
3.787678270E2,-6.032289565E-2,2.736674249E-1,2.287688553E-1
3.792717988E2,-8.368847519E-2,-6.414080262E-1,-1.562286615E-1
3.797757705E2,4.062250629E-2,3.512472659E-2,2.225074917E-1
3.802797422E2,-1.157588735E-1,-2.357937992E-1,-2.324340492E-1
3.807837138E2,1.275180280E-1,5.910116807E-2,3.753764033E-1
3.812876854E2,-1.583666950E-1,-3.549124300E-1,-2.086103261E-1
3.817916570E2,-6.902772188E-2,2.661843300E-1,2.916879356E-1
3.822956284E2,3.604102135E-2,-1.696676910E-1,-4.679224193E-1
3.827995998E2,-3.022253513E-1,1.933387071E-1,4.708240330E-1
3.833035711E2,-2.412915789E-2,-1.340848207E-1,-5.648971796E-1
3.838075423E2,-1.876882017E-1,8.063415438E-2,7.846558094E-1
3.843115135E2,7.009673119E-2,-1.950185746E-1,-6.013963819E-1
3.848154847E2,-1.090393662E-1,2.102901936E-1,6.097957492E-1
3.853194563E2,-5.910116807E-2,-3.045161068E-1,-3.426951468E-1
3.858234285E2,2.854265571E-1,3.515526950E-1,-7.406735420E-2
3.863274014E2,-1.660024971E-1,-1.650862098E-1,-9.330959618E-2
3.868313750E2,-4.688387364E-2,3.101665974E-1,2.672533393E-1
3.873353488E2,-1.082757786E-1,1.153007299E-1,-4.114174247E-1
3.878393229E2,8.292489499E-2,-6.398808211E-2,5.543597937E-1
3.883432970E2,-2.212857604E-1,9.590577334E-2,-6.566796303E-1
3.888472713E2,6.536252797E-2,-1.435532272E-1,8.860593438E-1
3.893512456E2,-1.070540547E-1,-6.246092543E-2,-8.387173414E-1
3.898552201E2,-1.485928595E-1,4.123337194E-2,1.051298261E0
3.903591946E2,-1.893680841E-1,-1.508836001E-1,-9.262236953E-1
3.908631690E2,5.849030241E-2,-1.878409237E-1,8.309288025E-1
3.913671434E2,-4.688387364E-2,4.703658819E-2,-7.480039001E-1
3.918711178E2,-1.461493969E-1,-5.451968312E-2,4.440986812E-1
3.923750921E2,1.091920808E-1,1.427896470E-1,-3.414734006E-1
3.928790665E2,-1.417206228E-1,-2.739728391E-1,1.626427472E-1
3.933830411E2,1.524107605E-1,2.014326602E-1,-2.351829410E-2
3.938870156E2,-1.901316643E-1,-3.283398151E-1,-2.411388755E-1
3.943909902E2,5.925388262E-2,3.141372204E-1,-9.758564830E-2
3.948949649E2,2.075413018E-1,-6.630937457E-1,8.888082206E-2
3.953989396E2,1.824958473E-1,2.898553312E-1,-1.455385387E-1
3.959029143E2,1.218675226E-1,-7.452550530E-2,7.307469845E-1
3.964068892E2,-5.366446972E-1,-6.261364091E-3,-4.656316638E-1
3.969108640E2,3.970621154E-3,-2.524398565E-1,-9.941824526E-2
3.974148388E2,-1.368337125E-1,3.245218992E-1,2.776380479E-1
3.979188137E2,1.322522312E-1,-4.593703151E-1,-3.420842886E-1
3.984227886E2,-1.346956789E-1,3.132209182E-1,3.882045746E-1
3.989267638E2,5.345067009E-3,-7.644972801E-1,-7.403681278E-1
3.994307391E2,-1.010981202E-1,7.947350740E-1,8.431460857E-1
3.999347147E2,-7.162389904E-2,-5.461131334E-1,-4.126391709E-1
4.004386904E2,-7.223475724E-2,2.797760665E-1,4.335612655E-1
4.009426664E2,2.657261863E-2,-3.868301213E-1,-5.406153202E-1
4.014466426E2,-1.200349256E-1,3.471239209E-1,6.592758298E-1
4.019506188E2,-2.571740746E-1,-2.712239623E-1,-1.094669700E0
4.024545950E2,3.813323379E-1,-1.514944583E-1,1.401781917E0
4.029585712E2,-4.899135530E-1,-1.721111536E-1,-1.094058871E0
4.034625473E2,2.151771188E-1,4.550942779E-2,1.100625634E0
4.039665234E2,-4.854847789E-1,-1.185077652E-1,-1.205236197E0
4.044704994E2,5.367974043E-1,-1.986837685E-1,1.225242019E0
4.049744753E2,1.056796089E-1,-2.768744528E-1,-1.229365349E0
4.054784512E2,-1.250745654E-1,5.648971796E-1,8.932369947E-1
4.059824274E2,-3.582721949E-1,-1.467602700E-1,-7.814487815E-1
4.064864034E2,-6.414080039E-3,2.107483447E-1,9.143118858E-1
4.069903793E2,-2.228129357E-1,-2.290742993E-1,-7.411317229E-1
4.074943552E2,-3.145953640E-2,1.218675226E-1,7.589994669E-1
4.079983311E2,-6.765327603E-2,-9.605848789E-2,-9.179770350E-1
4.085023072E2,1.664606482E-2,3.894263133E-2,8.998038173E-1
4.090062833E2,-1.608101577E-1,8.613193035E-2,-7.919861674E-1
4.095102595E2,-1.398880333E-1,8.781181276E-2,7.896954417E-1
4.100142356E2,2.260199748E-2,9.407317638E-2,-7.026472092E-1
4.105182119E2,-6.719512399E-3,-1.620318890E-1,7.260127664E-1
4.110221880E2,7.941242307E-2,-5.436696485E-2,-8.738420606E-1
4.115261641E2,-7.101303339E-2,1.101083755E-1,6.963858604E-1
4.120301402E2,4.780016840E-2,-1.351538301E-1,-3.706422150E-1
4.125341161E2,7.895427197E-2,9.636391699E-2,5.380191803E-1
4.130380919E2,-1.166751757E-1,-1.517999023E-1,-5.832231641E-1
4.135420679E2,2.993237413E-2,-9.666935354E-2,5.120574236E-1
4.140460436E2,-6.652317643E-1,2.345720828E-1,-4.364628792E-1
4.145500194E2,4.169152081E-1,-1.937968582E-1,4.625773430E-1
4.150539952E2,-1.148425788E-1,3.787361458E-2,-5.082395077E-1
4.155579708E2,2.238819450E-1,-1.165224537E-1,3.749182522E-1
4.160619465E2,-4.480693042E-1,1.837175786E-1,-2.467893660E-1
4.165659221E2,1.579085439E-1,-1.391244531E-1,4.751000702E-1
4.170698976E2,-2.945895493E-1,1.204930767E-1,-6.130027771E-1
4.175738731E2,1.406516135E-1,-1.792888194E-1,7.438805699E-1
4.180778486E2,-1.392771751E-1,1.831067204E-1,-5.775726438E-1
4.185818241E2,-6.719512492E-2,-2.357937992E-1,6.354520917E-1
4.190857996E2,-7.422006875E-2,1.637117565E-1,-5.615374446E-1
4.195897750E2,1.551596522E-1,-3.404043913E-1,6.013963819E-1
4.200937504E2,-2.283107042E-1,1.618791670E-1,-3.396408260E-1
4.205977258E2,7.345648855E-2,-9.453132749E-2,1.501200199E-1
4.211017011E2,-2.306014486E-2,1.426369250E-1,-1.285870373E-1
4.216056765E2,-1.027780026E-1,-2.588539422E-1,1.782197952E-1
4.221096517E2,1.069013379E-3,2.489273995E-1,-6.013963819E-1
4.226136270E2,-2.017380893E-1,-3.094030023E-1,4.783071280E-1
4.231176022E2,1.143844277E-1,2.973384261E-1,-4.621191919E-1
4.236215775E2,-2.475529462E-1,-2.217439115E-1,2.979492843E-1
4.241255528E2,1.921169758E-1,2.231183648E-1,-5.497783050E-2
4.246295280E2,-1.644753367E-1,-5.415316224E-1,1.589775532E-1
4.251335033E2,-2.916879393E-2,3.706422150E-1,-5.268708616E-2
4.256374786E2,-3.187187016E-1,-5.513054729E-1,-4.932733253E-2
4.261414540E2,1.473711282E-1,1.716530025E-1,-3.703367710E-1
4.266454296E2,-3.101665974E-1,-4.999928176E-1,2.545779049E-1
4.271494057E2,3.894263133E-2,1.508836001E-1,3.309359848E-1
4.276533826E2,-3.727802336E-1,6.108647794E-4,-5.115992576E-2
4.281573598E2,2.707658112E-1,4.295906425E-1,1.114828214E-1
4.286613375E2,-5.267181396E-1,-1.699731201E-1,-1.015562713E-1
4.291653153E2,2.547306120E-1,1.637117565E-1,1.307250559E-1
4.296692933E2,-3.933969140E-1,-2.845102847E-1,9.040798992E-2
4.301732714E2,-2.128863782E-1,6.162098646E-1,-2.576322258E-1
4.306772498E2,-1.481347084E-1,-5.076286197E-1,-5.757400393E-2
4.311812284E2,-2.626718581E-2,4.189005196E-1,2.463312149E-1
4.316852072E2,-2.735147178E-1,-4.754055142E-1,-3.662134409E-1
4.321891861E2,-9.926552884E-3,5.610793233E-1,3.558287323E-1
4.326931653E2,-4.489856213E-2,-6.046034098E-1,-4.459312856E-1
4.331971444E2,-2.904661894E-1,3.828594983E-1,2.316704690E-1
4.337011238E2,-1.476765573E-1,-4.272999167E-1,-1.670715213E-1
4.342051034E2,-1.023198515E-1,1.432477981E-1,-2.701549530E-1
4.347090835E2,1.524107605E-1,-5.563451052E-1,1.828012913E-1
4.352130641E2,-1.618791744E-2,2.110537887E-1,3.866774142E-1
4.357170452E2,-1.110246703E-1,-2.138026655E-1,-3.912588954E-1
4.362210268E2,2.306014486E-2,3.538434207E-1,2.813032269E-1
4.367250087E2,-3.946186602E-1,-3.051269650E-1,-2.641990222E-2
4.372289907E2,4.637990892E-1,-2.974911332E-1,-5.561923981E-1
4.377329728E2,-5.908589363E-1,-1.420260668E-1,4.828886092E-1
4.382369548E2,1.409570426E-1,5.009090900E-1,-5.192350596E-2
4.387409371E2,-5.230529904E-1,-2.419024557E-1,2.952004075E-1
4.392449193E2,1.279761642E-1,4.637990892E-1,-2.458730713E-2
4.397489015E2,-5.737547278E-1,-2.674060464E-1,2.076940238E-2
4.402528837E2,3.266599476E-1,1.324049383E-1,-2.631300092E-1
4.407568658E2,-4.787652791E-1,-3.660607338E-1,3.501782417E-1
4.412608479E2,4.703658819E-2,4.511236250E-1,-4.550942779E-2
4.417648299E2,-2.254091054E-1,-2.663370371E-1,6.994401664E-2
4.422688120E2,-1.481347065E-2,2.397644222E-1,-1.304196268E-1
4.427727939E2,-5.548179150E-1,9.529490769E-2,6.811141968E-2
4.432767756E2,4.659371078E-1,1.831067204E-1,-2.173151523E-1
4.437807572E2,-4.630354941E-1,-1.473711282E-1,2.919933498E-1
4.442847386E2,1.279761642E-1,1.701258421E-1,-2.530507445E-1
4.447887199E2,-9.193515033E-2,-1.695149690E-1,2.490801066E-1
4.452927011E2,-1.075121984E-1,1.835648715E-1,-3.388772309E-1
4.457966822E2,-3.014617562E-1,1.284343153E-1,3.471239209E-1
4.463006633E2,-3.051269650E-1,3.275762498E-1,-4.882336855E-1
4.468046443E2,-1.038470119E-2,-1.670715213E-1,4.691441655E-1
4.473086254E2,-2.542724609E-1,1.698204130E-1,-6.980656981E-1
4.478126065E2,-1.374445762E-2,-3.711003438E-2,9.074396491E-1
4.483165876E2,-2.419024557E-1,1.673769504E-1,-7.221949100E-1
4.488205687E2,-1.211039424E-1,1.740964688E-2,6.869174242E-1
4.493245498E2,-8.720094711E-2,-2.840521187E-2,-1.008995891E0
4.498285309E2,1.101083755E-1,-3.252854943E-2,1.105970740E0
4.503325121E2,-2.532034516E-1,-1.177441850E-1,-1.154381752E0
4.508364932E2,-1.356119812E-1,-5.207622424E-2,9.978476167E-1
4.513404743E2,6.750056148E-2,-9.086613357E-2,-1.019533277E0
4.518444554E2,9.162971750E-3,9.376774728E-2,1.020602345E0
4.523484364E2,-1.605047137E-1,-1.996000707E-1,-9.308052063E-1
4.528524174E2,-1.024725661E-1,3.575085998E-1,6.713404059E-1
4.533563984E2,7.819069177E-2,-3.115410507E-1,-5.632173419E-1
4.538603794E2,-2.382372618E-1,3.959930837E-1,3.949240744E-1
4.543643603E2,-4.795288667E-2,-4.784598351E-1,-2.194531709E-1
4.548683412E2,-1.568395346E-1,4.583013058E-1,1.308777779E-1
4.553723225E2,-2.976438701E-1,-5.277871490E-1,-7.696896046E-2
4.558763044E2,2.579376400E-1,4.105011225E-1,2.347247899E-1
4.563802868E2,-4.630354941E-1,-5.528326333E-2,1.027780026E-1
4.568842694E2,2.938259542E-1,3.203985691E-1,3.848448023E-2
4.573882523E2,-3.356702030E-1,-1.058323234E-1,2.087630332E-1
4.578922354E2,1.388190240E-1,1.524107605E-1,-3.132209182E-1
4.583962186E2,-4.735729098E-1,-1.847865991E-2,4.352411628E-1
4.589002023E2,2.890917659E-1,3.100138716E-2,-7.334958911E-1
4.594041862E2,-1.841757298E-1,-3.393353820E-1,6.841685772E-1
4.599081703E2,-1.785252392E-1,2.571740746E-1,-5.865828991E-1
4.604121544E2,-1.603520066E-1,-9.560033679E-2,6.003273726E-1
4.609161388E2,1.053741761E-2,-1.634063199E-2,-6.484329700E-1
4.614201233E2,-1.206457913E-1,-1.427896470E-1,6.279689670E-1
4.619241080E2,-1.233946830E-1,1.379027218E-1,-7.018836141E-1
4.624280929E2,-1.771507785E-2,-1.875354946E-1,6.342303753E-1
4.629320778E2,1.718057245E-1,2.426660359E-1,-7.779362798E-1
4.634360631E2,-3.006981909E-1,-2.397644222E-1,6.317868829E-1
4.639400486E2,-2.432768941E-1,4.051560760E-1,-2.109010667E-1
4.644440341E2,7.498364896E-2,-3.617846668E-1,6.139190868E-2
4.649480198E2,-1.618791670E-1,-3.970621154E-3,-4.706713259E-1
4.654520058E2,-1.299614757E-1,-2.629773021E-1,5.053378940E-1
4.659559916E2,1.313359290E-2,2.347247899E-1,-3.992001414E-1
4.664599781E2,-2.267835438E-1,6.230820715E-2,4.715875983E-1
4.669639650E2,1.918115467E-1,9.666935354E-2,-5.532907844E-1
4.674679521E2,-3.481929302E-1,-1.759290546E-1,5.203040838E-1
4.679719395E2,2.612974048E-1,1.131627038E-1,-4.699077308E-1
4.684759269E2,-4.095848203E-1,-2.342666388E-1,4.395172000E-1
4.689799145E2,2.333503515E-1,3.149007857E-1,-4.088212550E-1
4.694839022E2,-3.669770062E-1,-4.268417656E-1,4.970912039E-1
4.699878901E2,-8.124501258E-2,4.515817761E-1,-4.595230222E-1
4.704918779E2,8.063415438E-2,-3.336848915E-1,2.510654330E-1
4.709958658E2,-3.558287397E-2,7.067705393E-1,-4.193586707E-1
4.714998535E2,-4.399753511E-1,-5.787943676E-2,4.396699369E-1
4.720038411E2,-1.191186346E-2,1.896735132E-1,-8.002328873E-2
4.725078287E2,-1.455385387E-1,-5.859720111E-1,2.020435184E-1
4.730118166E2,-1.029307172E-1,1.996000707E-1,-3.149007857E-1
4.735158050E2,2.748891478E-3,-1.927278340E-1,6.812669635E-1
4.740197939E2,-1.168278903E-1,6.750056148E-2,-1.659719586E0
4.745237829E2,-2.565632164E-1,-3.145953640E-2,1.629634500E0
4.750277721E2,-4.706713259E-1,-5.871937871E-1,-1.571907759E0
4.755317613E2,5.403099060E-1,-4.010327160E-1,1.438739300E0
4.760357504E2,-1.751654744E-1,8.445205539E-2,-1.722638726E0
4.765397397E2,-2.521344423E-1,2.121227980E-1,1.434310555E0
4.770437292E2,5.406153202E-2,-1.113301069E-1,-1.339015603E0
4.775477188E2,-3.014617562E-1,2.741255760E-1,1.317024469E0
4.780517084E2,-1.820377111E-1,-3.992001414E-1,-8.932369947E-1
4.785556979E2,-3.987419903E-1,3.552178741E-1,9.419534802E-1
4.790596875E2,-1.487455666E-1,-1.079703495E-1,-6.916516423E-1
4.795636769E2,7.910698652E-2,2.150243968E-1,5.847502947E-1
4.800676664E2,-2.570213675E-1,-6.892082095E-1,-8.532254100E-1
4.805716561E2,5.772672221E-2,2.961167097E-1,6.702713966E-1
4.810756461E2,3.375027776E-1,-5.174024701E-1,-7.738129497E-1
4.815796361E2,-7.055488229E-2,1.069013327E-1,3.208567202E-1
4.820836263E2,-8.353576064E-2,-5.374082923E-1,-4.671588540E-1
4.825876168E2,-3.147480786E-1,4.043924809E-1,7.053961158E-1
4.830916074E2,3.084867001E-1,-7.338013053E-1,-4.780016840E-1
4.835955981E2,-4.123337194E-2,3.727802336E-1,1.255327165E-1
4.840995888E2,9.453132749E-2,-7.451022863E-1,-1.259908676E-1
4.846035799E2,4.337139800E-2,3.266599476E-1,1.443168074E-1
4.851075711E2,1.075121984E-1,-5.858193040E-1,-1.537852138E-1
4.856115624E2,-6.414080411E-2,3.585776389E-1,-6.566796452E-3
4.861155536E2,1.299614757E-1,-6.142245531E-1,-2.893971801E-1
4.866195451E2,-1.301141977E-1,5.048797131E-1,2.623664141E-1
4.871235367E2,2.519817278E-2,-4.964803457E-1,-2.115119249E-1
4.876275284E2,5.864302069E-2,4.442514181E-1,1.227838174E-1
4.881315202E2,-9.498947114E-2,-4.109592736E-1,-2.399171442E-1
4.886355122E2,-2.419024557E-1,5.390881896E-1,3.513999581E-1
4.891395041E2,2.299905866E-1,-6.940951347E-1,-4.954113364E-1
4.896434960E2,-4.114174247E-1,4.573850036E-1,6.823359728E-1
4.901474878E2,6.459894776E-2,-6.093376279E-1,-8.370374441E-1
4.906514794E2,-1.128572673E-1,4.595230222E-1,7.696896195E-1
4.911554707E2,-1.156061590E-1,-3.060432673E-1,-8.042035103E-1
4.916594619E2,-1.730274558E-1,4.463894367E-1,8.057306409E-1
4.921634529E2,-4.337139800E-2,-1.278234571E-1,-7.141009569E-1
4.926674437E2,-4.500546157E-1,2.889390290E-1,8.158099055E-1
4.931714342E2,9.880737960E-2,8.704823442E-3,-1.176220179E0
4.936754247E2,-4.650208056E-1,3.373500705E-1,1.389564633E0
4.941794149E2,2.234237939E-1,1.053741761E-2,-1.758679748E0
4.946834049E2,-1.195615053E0,9.216422439E-1,9.534072280E-1
4.951873948E2,5.700895786E-1,-3.695732057E-1,-4.158461988E-1
4.956913844E2,-6.510291100E-1,3.843866587E-1,6.171261668E-1
4.961953738E2,3.240637779E-1,-9.115629792E-1,-4.751000702E-1
4.966993631E2,-7.073814273E-1,5.856665969E-1,6.792816520E-1
4.972033521E2,8.842267841E-2,-5.619956255E-1,-2.012799382E-1
4.977073410E2,-2.238819450E-1,4.236347377E-1,1.056796089E-1
4.982113296E2,4.169152305E-2,-5.245801210E-1,1.250745654E-1
4.987153181E2,9.896009415E-2,5.282453299E-1,-3.680460155E-2
4.992193063E2,1.756236330E-2,-5.992583632E-1,4.587594569E-1
4.997232944E2,-4.227184355E-1,1.214093715E-1,-3.683514595E-1
5.002272823E2,7.269290835E-2,-1.860083193E-1,6.632464528E-1
5.007312701E2,-4.156934917E-1,-1.609628648E-1,-1.107956052E0
5.012352577E2,2.655734718E-1,1.333212405E-1,5.571087003E-1
5.017392451E2,-4.495964646E-1,3.726275265E-2,-3.080285788E-1
5.022432324E2,1.160643063E-2,3.688096106E-1,6.062833071E-1
5.027472196E2,-2.215912044E-1,-1.970038936E-2,-9.353867173E-1
5.032512072E2,-1.449276656E-1,-9.850194305E-2,5.375609994E-1
5.037551953E2,1.916588247E-1,-3.662134409E-1,-5.361865759E-1
5.042591841E2,6.143772602E-1,-3.781253099E-1,5.804742575E-1
5.047631739E2,3.087921441E-1,-3.353647590E-1,-7.147117853E-1
5.052671645E2,-1.435532272E-1,1.537852138E-1,6.777544618E-1
5.057711559E2,-1.563813835E-1,-8.506292105E-2,-7.422006875E-2
5.062751480E2,1.519526094E-1,-5.522217751E-1,7.788526267E-2
5.067791407E2,-3.132209182E-1,9.392046183E-2,-2.157879770E-1
5.072831336E2,1.105665267E-1,-3.144426346E-1,3.362810612E-1
5.077871265E2,-7.422006875E-2,-6.261363626E-2,-3.349066079E-1
5.082911194E2,1.605047137E-1,-2.782489061E-1,2.606865466E-1
5.087951122E2,1.007926930E-2,1.450803876E-2,-1.583666950E-1
5.092991051E2,-2.626718581E-2,-2.883281708E-1,1.377500147E-1
5.098030982E2,-2.031125315E-2,1.600465775E-1,-1.927278340E-1
5.103070913E2,-5.696314201E-2,-4.192059636E-1,3.804160357E-1
5.108110845E2,-4.413498193E-2,2.061668634E-1,-3.584249020E-1
5.113150776E2,-9.957095981E-2,-3.263545036E-1,4.329504073E-1
5.118190708E2,-1.563813835E-1,1.904370934E-1,-5.059487820E-1
5.123230639E2,3.512472380E-3,-4.100429714E-1,5.855138898E-1
5.128270570E2,-1.437059343E-1,1.365282834E-1,-5.238165259E-1
5.133310502E2,-2.390008420E-1,-2.457203567E-1,3.975202441E-1
5.138350439E2,-5.833758786E-2,3.294088244E-1,-3.269653618E-1
5.143390378E2,-1.559232324E-1,-4.163043499E-1,4.014908671E-1
5.148430319E2,-6.643154472E-2,2.538143098E-1,-2.900080681E-1
5.153470259E2,-1.577558219E-1,-1.870773435E-1,1.882990748E-1
5.158510200E2,7.406735420E-2,3.466657549E-2,-2.276998460E-1
5.163550142E2,-2.220493406E-1,-2.958112657E-1,3.233001828E-1
5.168590083E2,9.957095981E-2,1.704312712E-1,-3.500255048E-1
5.173630023E2,-5.106829405E-1,-1.902843714E-1,3.538434207E-1
5.178669961E2,4.413498193E-2,3.452913165E-1,-2.976438701E-1
5.183709899E2,-1.704312712E-1,-4.813614488E-1,3.544542789E-1
5.188749839E2,3.512472659E-2,1.088866442E-1,-4.103484154E-1
5.193789783E2,-4.373791814E-1,-2.385426909E-1,-5.283980444E-2
5.198829730E2,1.750127524E-1,4.115701318E-1,4.360047281E-1
5.203869678E2,-1.823431402E-1,-2.173151523E-1,-6.429351866E-2
5.208909626E2,-2.025016695E-1,3.207040131E-1,1.939495653E-2
5.213949572E2,-1.629481763E-1,-4.499019086E-1,1.576031148E-1
5.218989519E2,-5.894844979E-2,2.049451321E-1,-5.676460862E-1
5.224029469E2,-2.342666388E-1,-2.367101051E-2,5.687150955E-1
5.229069423E2,2.825249545E-2,2.138026804E-2,-6.139190793E-1
5.234109381E2,-2.047924101E-1,-1.409570426E-1,7.796161771E-1
5.239149340E2,5.543597788E-2,-2.177732885E-1,-9.046907425E-1
5.244189299E2,-6.520981342E-2,-1.658497900E-1,1.021213174E0
5.249229257E2,1.754709035E-1,-2.399171442E-1,-1.030987024E0
5.254269213E2,6.047561169E-1,-4.865537882E-1,-7.116574794E-2
5.259309169E2,-6.977602839E-1,6.287325621E-1,3.681987524E-1
5.264349126E2,-2.962694131E-2,3.689623177E-1,5.798633695E-1
5.269389082E2,-6.157516837E-1,2.948949635E-1,-6.188060045E-1
5.274429040E2,6.658425927E-2,-1.879936308E-1,5.166388750E-1
5.279468997E2,-9.758564830E-2,-1.259908676E-1,-6.363683939E-1
5.284508958E2,9.575305134E-2,6.078104675E-2,6.620246768E-1
5.289548920E2,-3.193295598E-1,-1.090393662E-1,-5.309942365E-1
5.294588885E2,3.266599476E-1,7.941242307E-3,8.749110699E-1
5.299628855E2,-4.317286909E-1,-1.650862098E-1,-1.051450968E0
5.304668826E2,2.805396616E-1,7.635809947E-3,9.489784241E-1
5.309708795E2,-3.553705812E-1,-5.619955808E-2,-8.758273721E-1
5.314748764E2,1.188132018E-1,1.449276656E-1,9.375247359E-1
5.319788729E2,-3.272708058E-1,-2.936732471E-1,-1.001818180E0
5.324828691E2,2.596175298E-3,2.066250145E-1,1.089019179E0
5.329868651E2,-2.078467458E-1,-3.149007857E-1,-1.220813274E0
5.334908607E2,-1.024725661E-1,2.897026241E-1,1.254563570E0
5.339948560E2,-3.352120519E-1,-2.637408674E-1,-1.139873624E0
5.344988511E2,-1.519526094E-1,1.635590494E-1,1.366657257E0
5.350028458E2,-1.139262840E-1,-5.965094566E-1,-1.575725675E0
5.355068402E2,1.403461844E-1,3.170388341E-1,1.421329618E0
5.360108343E2,-3.251327872E-1,-1.061377525E-1,-1.172860384E0
5.365148283E2,-5.986474827E-2,2.932150960E-1,1.013730049E0
5.370188219E2,-9.025526792E-2,-6.566796452E-2,-1.473863959E0
5.375228154E2,6.994401664E-2,1.866191924E-1,1.148883939E0
5.380268127E2,-1.728747338E-1,-5.868883133E-1,-5.160280466E-1
5.385308016E2,-7.956513762E-2,5.632173419E-1,5.172497630E-1
5.390347943E2,-4.871646687E-2,-5.966621637E-1,-4.167625010E-1
5.395387867E2,-1.421787739E-1,4.451677203E-1,2.848156989E-1
5.400427790E2,3.756818548E-2,-4.492910504E-1,-3.043633699E-1
5.405467710E2,-2.454149276E-1,3.497200906E-1,5.801688433E-1
5.410507628E2,2.962694131E-2,-4.740310609E-1,-6.067414284E-1
5.415547544E2,-1.273653060E-1,1.288924664E-1,6.075050235E-1
5.420587457E2,-2.606865466E-1,-8.358157277E-1,-4.479165971E-1
5.425627369E2,1.464548260E-1,3.723220825E-1,6.633991599E-1
5.430667279E2,-1.314886510E-1,3.602575064E-1,-6.388118267E-1
5.435707187E2,-1.950185746E-1,6.359102130E-1,4.506655037E-1
5.440747093E2,2.557996213E-1,-5.820014477E-1,-6.314814687E-1
5.445786997E2,7.635809481E-2,5.801688433E-1,-6.872228812E-3
5.450826901E2,1.012508348E-1,-5.786416531E-1,-7.788525894E-3
5.455866802E2,-2.470948100E-1,8.203914165E-1,-3.842339516E-1
5.460906703E2,-2.370155305E-1,-3.839285076E-1,2.147189677E-1
5.465946602E2,-7.136427760E-1,2.215912044E-1,4.579958618E-1
5.470986504E2,2.134972364E-1,-4.552469850E-1,-2.478583902E-1
5.476026412E2,-4.627300799E-2,1.399643898E0,-4.815141559E-1
5.481066325E2,2.267835438E-1,3.396408260E-1,-1.000291109E-1
5.486106243E2,-1.672242284E-1,-1.154076338E0,7.530435324E-1
5.491146162E2,-8.659008145E-2,-5.874992013E-1,4.714348912E-1
5.496186082E2,3.970621154E-2,3.107774556E-1,-2.863428593E-1
5.501226003E2,6.414080411E-2,-1.185077652E-1,1.459966749E-1
5.506265925E2,-1.525634825E-1,4.014908671E-1,1.134681329E-1
5.511305847E2,6.352993846E-2,-5.586358309E-1,-1.282816082E-1
5.516345771E2,-2.825249732E-1,3.743073940E-1,3.252854943E-2
5.521385695E2,1.800523996E-1,-5.685623884E-1,1.223256737E-1
5.526425619E2,-8.048143238E-2,5.148062706E-1,8.872810751E-2
5.531465542E2,-9.269873053E-2,-3.607156575E-1,-1.493564397E-1
5.536505464E2,-3.828594983E-1,5.842921734E-1,1.434005052E-1
5.541545387E2,-9.896009415E-2,-4.557051361E-1,-3.054323792E-1
5.546585310E2,-2.648098767E-1,5.943714380E-1,4.871646762E-1
5.551625236E2,2.237292230E-1,-6.447677612E-1,-4.408916533E-1
5.556665165E2,-1.120936871E-1,2.930623889E-1,4.831940532E-1
5.561705098E2,2.403752953E-1,-1.664606482E-2,-3.932442069E-1
5.566745034E2,-5.422952175E-1,1.517999023E-1,-1.382081509E-1
5.571784974E2,-9.132428467E-2,2.046396956E-2,2.536616027E-1
5.576824914E2,-1.432477981E-1,3.268126547E-1,3.252854943E-2
5.581864855E2,1.476765573E-1,-5.259546041E-1,1.119409725E-1
5.586904797E2,-1.661552191E-1,7.800742984E-1,-8.353576064E-2
5.591944740E2,2.745837271E-1,-7.652608752E-1,-2.370155305E-1
5.596984684E2,-3.730856776E-1,4.181369543E-1,2.521344423E-1
5.602024628E2,7.544180006E-2,-5.878046155E-1,-8.048143238E-2
5.607064574E2,-4.170679152E-1,4.957167804E-1,3.729329407E-1
5.612104521E2,1.026252806E-1,-5.719221234E-1,-2.706131041E-1
5.617144468E2,-3.581194878E-1,5.311469436E-1,3.014617562E-1
5.622184414E2,4.245510325E-2,-5.233584046E-1,-3.086394370E-1
5.627224360E2,-3.155116439E-1,5.401571989E-1,2.791652083E-1
5.632264305E2,1.513417512E-1,-4.474584460E-1,-3.465130329E-1
5.637304252E2,-3.767508566E-1,4.198168218E-1,6.583595276E-1
5.642344202E2,1.259908676E-1,-8.455895782E-1,-7.556397319E-1
5.647384157E2,-6.643154472E-2,5.395463109E-1,6.827940941E-1
5.652424114E2,2.474002354E-2,-8.668171167E-1,-4.462367296E-1
5.657464072E2,-2.875646055E-1,6.180424690E-1,4.665479660E-1
5.662504031E2,1.160643101E-1,-7.353284955E-1,-4.975493550E-1
5.667543989E2,-5.645917654E-1,4.978547990E-1,5.794052482E-1
5.672583949E2,5.024362728E-2,-4.272999167E-1,-6.119337678E-1
5.677623910E2,-5.006036758E-1,6.365211010E-1,7.898481488E-1
5.682663874E2,1.116355360E-1,-8.304706812E-1,-8.017600179E-1
5.687703839E2,-1.739437431E-1,6.088794470E-1,8.141300082E-1
5.692743807E2,-1.243109852E-1,-6.710349321E-1,-6.319395900E-1
5.697783779E2,-2.868010104E-1,5.849030018E-1,6.870701313E-1
5.702823754E2,-3.878991306E-2,-5.732966065E-1,-7.195987105E-1
5.707863729E2,-1.548542231E-1,4.210385382E-1,6.340776682E-1
5.712903705E2,1.475238502E-1,-6.754637361E-1,-5.395463109E-1
5.717943682E2,-4.886918236E-3,2.916879356E-1,4.906771481E-1
5.722983661E2,-1.682932526E-1,-3.975202441E-1,-4.692968726E-1
5.728023641E2,-2.680169344E-1,5.369501114E-1,2.887863219E-1
5.733063621E2,-9.957095981E-2,-4.259254634E-1,1.855501831E-1
5.738103601E2,-8.750637621E-2,3.275762498E-1,-9.208786488E-2
5.743143581E2,1.261435747E-1,-4.677697122E-1,2.993237413E-2
5.748183564E2,-8.445205539E-2,5.355756879E-1,1.930332631E-1
5.753223550E2,-5.772672221E-2,-6.047561169E-1,-3.529271185E-1
5.758263538E2,-1.771507785E-2,3.940077722E-1,3.219257295E-1
5.763303527E2,2.538143098E-1,-8.895718455E-1,-4.922043085E-1
5.768343517E2,-1.142317131E-1,3.503309488E-1,5.203040838E-1
5.773383507E2,-8.384118974E-2,-5.994110703E-1,-3.517054021E-1
5.778423497E2,-1.140789986E-1,4.146244824E-1,5.306887627E-1
5.783463487E2,5.543597788E-2,-7.585413456E-1,-4.404335022E-1
5.788503477E2,-1.450803876E-2,5.393936038E-1,6.939423680E-1
5.793543470E2,-1.537852138E-1,-9.636391997E-1,-5.199986696E-1
5.798583460E2,1.197294965E-1,5.154171586E-1,9.972367436E-2
5.803623449E2,-3.016144931E-1,-4.013381600E-1,5.314523727E-2
5.808663434E2,-2.561050653E-1,6.366738081E-1,2.105956376E-1
5.813703417E2,-4.123337194E-2,-6.440041661E-1,-2.079994529E-1
5.818743396E2,5.742128938E-2,2.374736816E-1,1.207985133E-1
5.823783372E2,-1.188132018E-1,-3.572031856E-1,-3.039052337E-2
5.828823345E2,2.626718581E-2,4.363101721E-1,2.466366589E-1
5.833863316E2,-4.871646687E-2,-6.078104377E-1,-2.661843300E-1
5.838903283E2,1.420260593E-2,4.210385382E-1,3.263545036E-1
5.843943248E2,1.033888608E-1,-7.131846547E-1,-3.882045746E-1
5.848983211E2,-2.380845547E-1,4.521926641E-1,4.944950342E-1
5.854023171E2,1.466075480E-1,-5.276344419E-1,-6.316341758E-1
5.859063129E2,-4.010327160E-1,4.074468017E-1,1.742491722E-1
5.864103085E2,-7.330377586E-3,-3.596466482E-1,-3.959930837E-1
5.869143038E2,-5.192350596E-2,3.585776389E-1,8.420770764E-1
5.874182988E2,-4.980075061E-1,-4.682278633E-1,-3.920224607E-1
5.879222937E2,2.002109289E-1,3.477347791E-1,4.324922562E-1
5.884262883E2,-2.622137070E-1,-2.177732885E-1,4.810560122E-2
5.889302827E2,-1.797469556E-1,3.956876695E-1,1.009454057E-1
5.894342769E2,-1.136208475E-1,-4.528035223E-1,-1.340848207E-1
5.899382709E2,-8.674279600E-2,3.732383847E-1,2.083048970E-1
5.904422646E2,-1.928805560E-1,-4.405862093E-1,2.061668597E-2
5.909462582E2,2.321286127E-2,5.409207344E-1,-2.121227980E-1
5.914502517E2,-3.969093859E-1,-1.346956789E-1,3.203985691E-1
5.919542451E2,2.046397030E-1,2.437350452E-1,-5.259546041E-1
5.924582385E2,-3.937023580E-1,-4.277580678E-1,4.439459741E-1
5.929622319E2,1.116355360E-1,3.161225095E-2,-4.408916533E-1
5.934662253E2,-1.664606482E-1,-3.543015569E-2,4.798342884E-1
5.939702187E2,-1.375972927E-1,2.915352285E-1,-2.929096520E-1
5.944742119E2,-1.983783394E-1,-2.860374451E-1,5.311469436E-1
5.949782051E2,3.649916872E-2,1.895207912E-1,-2.913824916E-1
5.954821982E2,-3.623955250E-1,-1.908952370E-2,2.035706937E-1
5.959861914E2,8.414662629E-2,2.070831656E-1,-3.712530732E-1
5.964901851E2,-2.330449075E-1,-2.616028488E-1,4.079049528E-1
5.969941792E2,-1.394298822E-1,2.448040545E-1,-3.776671588E-1
5.974981736E2,-2.218966335E-1,-1.644753367E-1,6.004800797E-1
5.980021685E2,-8.460476995E-2,1.290451884E-1,-7.417425513E-1
5.985061639E2,-2.333503515E-1,-7.406735420E-2,1.003345370E0
5.990101598E2,-4.017963111E-1,-1.437059343E-1,-1.059392214E0
5.995141560E2,2.947422490E-2,1.408043355E-1,1.279456258E0
6.000181522E2,-6.829468012E-1,-1.788306683E-1,-1.713933825E0
6.005221485E2,2.805396616E-1,-1.455385387E-1,1.842062712E0
6.010261451E2,-6.143772602E-1,-7.742711157E-2,-2.017991781E0
6.015301419E2,5.714640021E-1,5.543597788E-2,1.967442751E0
6.020341386E2,-9.555452466E-1,-4.619664848E-1,-1.674685836E0
6.025381351E2,2.719875574E-1,1.206457894E-2,1.385288596E0
6.030421316E2,-2.530507445E-1,1.589775532E-1,-1.134070516E0
6.035461283E2,-1.872300506E-1,2.877173126E-1,1.226311088E0
6.040501252E2,-1.898262352E-1,-7.330377400E-2,-1.129794359E0
6.045541225E2,-9.300415963E-2,7.742711157E-2,1.056796074E0
6.050581201E2,-1.522580534E-1,-1.501200199E-1,-1.174540281E0
6.055621176E2,-1.710421406E-2,1.333212405E-1,1.463021159E0
6.060661150E2,-4.111120105E-1,-3.911061883E-1,-1.590691924E0
6.065701129E2,2.322813272E-1,1.771507785E-2,1.618180752E0
6.070741112E2,-2.609919906E-1,-2.286161482E-1,-1.611613989E0
6.075781099E2,-2.715294063E-1,4.802924395E-1,1.508530617E0
6.080821089E2,2.280052751E-1,-3.984365463E-1,-1.164308310E0
6.085861078E2,-2.235765159E-1,3.236056268E-1,7.527381182E-1
6.090901066E2,1.050687432E-1,-6.336194873E-1,-8.234457374E-1
6.095941051E2,-1.689041108E-1,6.354520917E-1,7.896954417E-1
6.100981034E2,2.046396956E-2,-6.566796303E-1,-5.513054729E-1
6.106021016E2,1.818849891E-1,3.863719702E-1,6.608029604E-1
6.111060996E2,-3.588830680E-2,-8.567378670E-2,3.543015569E-2
6.116100973E2,-1.345429718E-1,-3.252854943E-2,-4.218021333E-1
6.121140947E2,-2.515235841E-1,2.478583902E-1,7.389936447E-1
6.126180917E2,-2.437350452E-1,8.216131479E-2,-7.385355234E-1
6.131220882E2,-1.812741160E-1,3.110828996E-1,7.507528067E-1
6.136260842E2,1.572976820E-2,-3.237583488E-2,-7.437278628E-1
6.141300798E2,-3.124573231E-1,7.388409376E-1,5.190823674E-1
6.146340750E2,1.664606482E-1,-6.217076182E-1,-4.793761373E-1
6.151380699E2,-1.229365394E-1,2.906189263E-1,7.050906420E-1
6.156420644E2,-1.634063274E-1,-5.928442478E-1,-1.021976829E0
6.161460586E2,-2.215912044E-1,4.654789567E-1,6.501128674E-1
6.166500524E2,7.177661173E-3,-4.311178327E-1,-2.952004075E-1
6.171540458E2,6.475166976E-2,6.574432254E-1,1.776089370E-1
6.176580390E2,-1.693622619E-1,-3.995055556E-1,4.053087831E-1
6.181620318E2,1.687513888E-1,4.550942481E-1,-5.229002237E-1
6.186660243E2,-1.991419196E-1,-1.104138121E-1,7.110465765E-1
6.191700165E2,-1.332296133E0,7.562506199E-1,-1.126129270E0
6.196740084E2,-1.664606482E-1,1.956294477E-1,2.027460098E0
6.201779999E2,-3.118464649E-1,-9.060651660E-1,-2.704451084E0
6.206819912E2,-1.013730049E0,5.238165259E-1,2.297767878E0
6.211859822E2,2.483165264E-1,-4.550942481E-1,-2.332434416E0
6.216899728E2,-3.878991306E-2,2.454149276E-1,2.116188288E0
6.221939633E2,-1.676823795E-1,-2.017380893E-1,-1.518457174E0
6.226979535E2,-9.941824526E-2,-2.596175298E-3,1.085506678E0
6.232019435E2,-3.126100600E-1,3.174969554E-1,-4.938841760E-1
6.237059332E2,-2.199113183E-2,2.397644334E-2,6.641627550E-1
6.242099227E2,-3.000873327E-1,-1.166751757E-1,-9.529490471E-1
6.247139120E2,1.021671370E-1,-1.302669197E-1,8.600975871E-1
6.252179011E2,-2.901607752E-1,-9.941824526E-2,-9.283617735E-1
6.257218901E2,1.461493969E-1,3.260490894E-1,9.314160943E-1
6.262258795E2,-2.102901936E-1,-1.962403059E-1,-1.171791315E0
6.267298692E2,-1.498145908E-1,4.007273018E-1,9.205732346E-1
6.272338594E2,-1.032361463E-1,-5.097666383E-1,-5.978838801E-1
6.277378498E2,1.580612659E-1,6.233875155E-1,8.251255751E-1
6.282418403E2,-8.628465235E-2,-6.582067907E-2,-5.199986696E-1
6.287458309E2,1.168278903E-1,-4.836521745E-1,2.130390853E-1
6.292498215E2,2.649625838E-1,-5.253437161E-2,-1.976147592E-1
6.297538123E2,-3.014617562E-1,2.901607752E-1,5.401571989E-1
6.302578031E2,-1.950185746E-1,6.244565248E-1,1.695149764E-2
6.307617939E2,-2.281579971E-1,-2.536616027E-1,-9.210313559E-1
6.312657847E2,-1.884517819E-1,2.069304436E-1,1.366199136E0
6.317697754E2,-3.194822669E-1,-5.479456782E-1,-1.465770006E0
6.322737661E2,5.616901517E-1,-1.592829973E-1,1.199280262E0
6.327777568E2,-8.048143238E-2,2.860374451E-1,-5.189296007E-1
6.332817473E2,-1.675296724E-1,-6.734784245E-1,3.072649837E-1
6.337857377E2,-9.010255337E-3,6.669116020E-1,-1.835648715E-1
6.342897281E2,-3.286452591E-1,-5.769617558E-1,-4.538725317E-1
6.347937187E2,-6.163625717E-1,7.593049407E-1,7.521272302E-1
6.352977096E2,-7.055488229E-2,-3.527744114E-1,-8.174898028E-1
6.358017007E2,-3.874409795E-1,8.112284541E-1,1.338252068E0
6.363056918E2,-5.616901517E-1,-6.939423680E-1,-1.059544921E0
6.368096828E2,-1.082757786E-1,2.110537887E-1,1.444695234E0
6.373136739E2,-1.762344837E-1,-2.510654330E-1,-1.392466307E0
6.378176652E2,2.490801066E-1,2.854265571E-1,1.462257624E0
6.383216568E2,-3.652971387E-1,-1.817322671E-1,-1.842368126E0
6.388256486E2,4.499019086E-1,6.291907281E-2,9.213368297E-1
6.393296404E2,-9.992220402E-1,-2.448040545E-1,-8.547525406E-1
6.398336325E2,5.148062706E-1,-1.740964651E-1,1.277623653E0
6.403376247E2,-3.428478539E-1,-8.704823256E-2,-9.120211005E-1
6.408416171E2,-2.368628234E-1,2.397644222E-1,6.757691503E-1
6.413456095E2,1.843284518E-1,-1.075121999E0,-1.214704633E0
6.418496021E2,1.212566569E-1,2.884808779E-1,7.941241860E-1
6.423535948E2,-2.788597643E-1,5.044215918E-1,-1.705839932E-1
6.428575873E2,-9.880737960E-2,-2.886336111E-2,4.798342884E-1
6.433615795E2,-2.018908113E-1,4.966330528E-1,-3.843866587E-1
6.438655715E2,-2.222020626E-1,-7.041743994E-1,-1.343902480E-2
6.443695632E2,5.742128938E-2,3.324631453E-1,-8.292489499E-2
6.448735545E2,-2.131918073E-1,-5.677987933E-1,1.298087686E-1
6.453775455E2,1.026252806E-1,3.465130329E-1,-5.070177838E-2
6.458815362E2,-4.537198246E-1,-4.963276163E-2,9.651663154E-2
6.463855266E2,2.252563834E-1,2.528980076E-1,-3.649916872E-2
6.468895168E2,-3.112356067E-1,-1.893680729E-2,2.848156989E-1
6.473935069E2,-6.765327603E-2,-1.420260668E-1,-6.036871076E-1
6.478974968E2,-1.343902480E-2,1.802051067E-1,4.865537882E-1
6.484014864E2,1.188132018E-1,-2.419024557E-1,-6.033816934E-1
6.489054759E2,-5.451968312E-2,4.230238497E-1,8.190169334E-1
6.494094652E2,9.712749720E-2,-2.718348242E-2,-7.260127664E-1
6.499134543E2,-8.735366166E-2,-4.046979174E-2,5.170970559E-1
6.504174433E2,8.185587823E-2,-8.491020650E-2,-2.263254076E-1
6.509214321E2,-6.001746282E-2,1.188132018E-1,6.856957078E-2
6.514254207E2,-1.256854236E-1,-1.550069451E-1,2.590066791E-1
6.519294090E2,-1.014035568E-1,2.049451321E-1,-2.739728391E-1
6.524333971E2,3.097084463E-1,-3.671297431E-1,2.935205400E-1
6.529373850E2,-4.392117858E-1,-7.147117704E-2,-4.595230222E-1
6.534413726E2,2.434296161E-1,-7.166970968E-1,4.752528071E-1
6.539453600E2,1.550069451E-1,9.636391699E-2,-6.470585465E-1
6.544493471E2,-4.608974755E-1,-1.191186309E-1,2.119700760E-1
6.549533341E2,-2.055560052E-1,5.268708467E-1,-2.889390290E-1
6.554573210E2,1.296102405E0,-2.153603792E0,6.181951761E-1
6.559613075E2,-9.648609161E-1,1.401171088E0,5.158752799E-1
6.564652939E2,-2.849684060E-1,1.264490038E-1,-5.600103140E-1
6.569692800E2,3.546070158E-1,4.993819445E-2,1.186452150E0
6.574732658E2,-1.261893868E0,-1.549153090E0,-6.333140731E-1
6.579772515E2,9.254601598E-1,9.350812435E-1,4.709767401E-1
6.584812369E2,-1.427590966E0,1.033277750E0,-3.759872615E-1
6.589852220E2,2.163988501E-1,4.337139800E-2,4.937314689E-1
6.594892069E2,-1.446222365E-1,-1.829539984E-1,-4.401280880E-1
6.599931916E2,2.457203567E-1,-3.711003661E-1,4.367683232E-1
6.604971760E2,-1.605047137E-1,2.799287736E-1,-1.354592592E-1
6.610011601E2,-1.704312712E-1,-6.719512343E-1,-2.261726856E-1
6.615051440E2,2.444986254E-1,4.944950342E-1,2.625191510E-1
6.620091276E2,-2.099847645E-1,-6.481275558E-1,-6.166679859E-1
6.625131109E2,5.039634556E-2,1.337793916E-1,6.769908667E-1
6.630170940E2,-1.715002805E-1,-4.541779757E-1,-7.133373618E-1
6.635210768E2,1.353065521E-1,-1.470656991E-1,1.160184979E0
6.640250593E2,-9.162971983E-4,-3.656025827E-1,-1.437670231E0
6.645290416E2,1.322522312E-1,6.214022040E-1,1.765246511E0
6.650330237E2,4.503600597E-1,-1.041524410E0,-3.252854943E-1
6.655370055E2,-1.739437431E-1,3.214675784E-1,-1.713475734E-1
6.660409870E2,-5.329795480E-1,-5.406153202E-2,-6.992874742E-1
6.665449684E2,-2.319758981E-1,1.540906429E-1,8.378010392E-1
6.670489495E2,2.012799382E-1,5.726857483E-2,-4.476111531E-1
6.675529305E2,-3.503309488E-1,-6.352993846E-2,2.568686306E-1
6.680569117E2,2.055560052E-1,3.094030023E-1,-1.849393100E-1
6.685608932E2,-3.138317764E-1,-5.508472919E-1,-2.307541668E-1
6.690648753E2,3.955349326E-2,4.462367296E-1,3.361283541E-1
6.695688575E2,-2.432768941E-1,-1.366809905E-1,-5.957458615E-1
6.700728399E2,-1.325576603E-1,5.036579967E-1,6.785180569E-1
6.705768220E2,9.896009415E-2,-3.646862805E-1,-8.581122756E-1
6.710808041E2,-2.704603672E-1,2.916879356E-1,7.756455541E-1
6.715847861E2,-4.489856213E-2,-3.714057803E-1,-7.701478004E-1
6.720887680E2,-1.053741723E-1,2.506072819E-1,9.030108452E-1
6.725927500E2,-1.374445739E-3,-2.900080681E-1,-1.034652233E0
6.730967320E2,-3.527744114E-2,1.782197952E-1,1.442251801E0
6.736007140E2,-7.147117704E-2,-5.797106624E-1,-1.720042467E0
6.741046958E2,3.901898861E-1,-1.386663020E-1,1.640171885E0
6.746086773E2,-2.000582218E-2,-2.886336111E-2,-1.120326042E0
6.751126585E2,-6.887500733E-2,1.027780026E-1,5.981893539E-1
6.756166396E2,-4.827359021E-1,4.506655037E-1,-9.468404204E-2
6.761206206E2,-1.847865991E-2,-2.974911332E-1,-5.390881747E-2
6.766246014E2,1.084284950E-2,2.090684772E-1,6.719512492E-2
6.771285820E2,-1.957821548E-1,-4.584540129E-1,-1.933387071E-1
6.776325626E2,1.939495653E-2,3.335321844E-1,1.835648715E-1
6.781365430E2,-1.876882017E-1,-2.211330533E-1,-5.455022454E-1
6.786405231E2,4.306596518E-2,1.385135949E-1,7.031053901E-1
6.791445030E2,-2.362519503E-1,-3.484983444E-1,-1.087950230E0
6.796484827E2,-3.500255048E-1,4.680751264E-1,1.178052783E0
6.801524624E2,-2.626718581E-2,-3.003927469E-1,-1.352301955E0
6.806564419E2,-3.330740333E-1,2.435823381E-1,1.437364817E0
6.811604214E2,-2.887863219E-1,-3.517054021E-1,-1.143386126E0
6.816644008E2,3.405571282E-1,9.117157012E-2,5.835285783E-1
6.821683800E2,-8.856012225E-1,2.706131041E-1,-4.902189970E-1
6.826723590E2,-1.847865991E-2,2.260199636E-1,2.774853408E-1
6.831763378E2,-5.441278219E-1,1.557705253E-1,1.554650813E-1
6.836803165E2,1.038470119E-2,5.757400393E-2,-1.233946830E-1
6.841842948E2,-1.800523996E-1,4.676169753E-1,1.615737379E-1
6.846882727E2,-2.777907550E-1,-4.627300799E-2,-3.173442483E-1
6.851922500E2,-1.001818255E-1,2.142608166E-1,4.598284662E-1
6.856962268E2,4.337139800E-2,-6.007854939E-1,-2.900080681E-1
6.862002031E2,-3.529271185E-1,5.655080676E-1,4.457785785E-1
6.867041790E2,-1.666133702E-1,-9.008728266E-1,-1.452330947E-1
6.872081545E2,2.328922004E-1,6.615665555E-1,-5.700895786E-1
6.877121297E2,-2.739728391E-1,-3.133736253E-1,2.803869247E-1
6.882161045E2,1.496618688E-1,4.615083337E-1,1.067486167E0
6.887200790E2,-2.921460867E-1,-2.237292230E-1,-5.123628378E-1
6.892240532E2,7.712167501E-2,1.653916389E-1,4.932733253E-2
6.897280270E2,-2.886336148E-1,-4.199695289E-1,-1.194240674E-1
6.902320005E2,4.092794061E-1,-9.056070447E-2,5.711585656E-2
6.907359736E2,-3.260490894E-1,3.229947388E-1,-5.039634556E-2
6.912399464E2,2.672533393E-1,-4.897608459E-1,9.911280870E-2
6.917439188E2,-2.710712552E-1,3.300196826E-1,-3.744601011E-1
6.922478908E2,1.623373181E-1,-3.561341763E-1,2.214384824E-2
6.927518625E2,-4.587594569E-1,2.897026241E-1,8.475748450E-2
6.932558339E2,-6.200277433E-2,-2.145662606E-1,-3.634645343E-1
6.937598049E2,-2.339612097E-1,1.464548260E-1,6.047561169E-1
6.942637756E2,2.861901522E-1,-4.080576599E-1,-8.051197529E-1
6.947677460E2,-1.146898642E-1,3.323104382E-1,9.127846956E-1
6.952717160E2,-4.827359021E-1,-1.843284518E-1,-8.064942360E-1
6.957756857E2,5.540543795E-1,-9.865466505E-2,1.566868186E0
6.962796551E2,-1.044731498E0,4.398226365E-2,-1.725540280E0
6.967836241E2,-5.041161776E-1,6.942478418E-1,1.176067472E0
6.972875928E2,4.112647176E-1,-3.043633699E-1,-7.539598346E-1
6.977915612E2,-1.235474050E-1,4.990765154E-1,-9.850194305E-2
6.982955294E2,1.528689116E-1,-1.236390352E0,7.501419783E-1
6.987994975E2,-4.075995386E-1,3.778198659E-1,6.368265301E-2
6.993034654E2,-8.567378670E-2,-1.438586563E-1,-7.360920310E-2
6.998074331E2,4.983129501E-1,-1.406516135E-1,7.483093441E-2
7.003114008E2,-1.272125840E-1,-8.933897316E-2,-2.307541668E-1
7.008153686E2,6.093376130E-2,-5.606211424E-1,3.790415823E-1
7.013193362E2,-3.324631453E-1,3.553705812E-1,-2.035706937E-1
7.018233038E2,7.101303339E-2,-4.202749729E-1,-1.739437431E-1
7.023272714E2,-5.349648595E-1,4.257727563E-1,7.956513762E-2
7.028312388E2,6.841685623E-2,-5.951350331E-1,-2.652680278E-1
7.033352061E2,-2.240346521E-1,3.101665974E-1,3.711003438E-2
7.038391731E2,2.901607752E-1,-3.894262910E-1,-3.132209182E-1
7.043431401E2,6.154462695E-2,4.130973220E-1,7.082977295E-1
7.048471067E2,-9.621120058E-3,-4.515817761E-1,-6.052142978E-1
7.053510732E2,-8.445205539E-2,2.496909797E-1,7.414371371E-1
7.058550398E2,-2.929096520E-1,-1.246164143E-1,-4.763218164E-1
7.063590058E2,2.196058929E-1,-2.000582218E-1,2.528980076E-1
7.068629716E2,-2.457203567E-1,3.161225319E-1,-3.883572817E-1
7.073669371E2,2.842048407E-1,5.528326333E-2,6.861538887E-1
7.078709025E2,-2.916879356E-1,-2.153298259E-2,-4.555523992E-1
7.083748676E2,3.903425932E-1,-1.470656991E-1,5.451968312E-1
7.088788324E2,-1.603520066E-1,1.217148080E-1,-3.561341763E-1
7.093827970E2,-9.162971750E-3,1.589775532E-1,3.281871080E-1
7.098867613E2,1.004872546E-1,3.069595434E-2,1.105665267E-1
7.103907253E2,-2.122755162E-2,-5.120574236E-1,-1.007926911E-1
7.108946891E2,6.704241037E-2,2.128863782E-1,-1.479819864E-1
7.113986525E2,-2.112064958E-1,-2.814559340E-1,2.733619809E-1
7.119026158E2,2.784016132E-1,-4.949531853E-1,-3.176496923E-1
7.124065788E2,-3.779725730E-1,3.199404180E-1,-3.161225095E-2
7.129105415E2,-2.970330119E-1,5.323686600E-1,2.495382577E-1
7.134145040E2,4.790706933E-1,-7.589994669E-1,-3.167333901E-1
7.139184664E2,5.299251899E-2,1.056796089E-1,2.486219704E-1
7.144224293E2,-4.019490182E-1,4.169152305E-2,1.750127524E-1
7.149263929E2,-1.340848207E-1,6.530144215E-1,-1.776089370E-1
7.154303570E2,-3.481929302E-1,1.817322709E-2,9.056070447E-2
7.159343218E2,-1.721111536E-1,4.021017551E-1,2.440404743E-1
7.164382870E2,2.860374451E-1,-6.499601007E-1,-4.054614902E-1
7.169422525E2,4.179842174E-1,-5.566505194E-1,2.006690800E-1
7.174462181E2,-5.239692926E-1,1.191186346E-2,1.963930279E-1
7.179501838E2,2.557996213E-1,-1.067486182E-1,-1.128572673E-1
7.184541494E2,-4.630354941E-1,-1.084284950E-2,-3.216203153E-1
7.189581147E2,1.305723488E-1,1.308777779E-1,6.766854525E-1
7.194620798E2,-2.977965772E-2,-4.123337194E-2,-2.196058929E-1
7.199660446E2,2.257145345E-1,-2.703076601E-1,3.304778337E-1
7.204700092E2,-4.465421438E-1,3.950767815E-1,7.024944760E-3
7.209739736E2,1.104138121E-1,-4.118755758E-1,1.750127524E-1
7.214779377E2,3.202458620E-1,-1.105665267E-1,-1.988364905E-1
7.219819017E2,-4.331031144E-1,-6.102539301E-1,4.703658819E-1
7.224858657E2,-2.916879393E-2,7.376192212E-1,-5.468766689E-1
7.229898296E2,-4.732674956E-1,-4.607447684E-1,8.781181276E-2
7.234937933E2,-1.739437431E-1,4.958694875E-1,8.552107029E-3
7.239977568E2,-1.093447953E-1,-4.088212550E-1,-8.032871783E-2
7.245017203E2,3.940077871E-2,4.692968726E-1,3.937023580E-1
7.250056835E2,-1.223256737E-1,-3.054323792E-1,-5.998691916E-1
7.255096464E2,-4.593703151E-1,6.078104377E-1,5.677987933E-1
7.260136090E2,2.183841616E-1,-4.239401519E-1,-1.078481793E0
7.265175714E2,-1.925751269E-1,1.379027218E-1,1.066417217E0
7.270215335E2,3.955349326E-2,-2.753472924E-1,-1.030987024E0
7.275254955E2,1.869246215E-1,-6.261364091E-3,1.058323264E0
7.280294573E2,-2.000582218E-1,-7.040216774E-2,-9.037744403E-1
7.285334192E2,9.315688163E-3,-5.070177838E-2,7.985529900E-1
7.290373809E2,3.375028074E-2,-2.032652497E-1,-6.401863098E-1
7.295413425E2,4.612028971E-2,-5.406153202E-2,5.763509274E-1
7.300453039E2,2.779434808E-2,1.030834317E-1,-6.159043908E-1
7.305492651E2,-2.160934210E-1,-1.962403059E-1,6.363683939E-1
7.310532260E2,2.779434621E-1,1.817322671E-1,-5.645917654E-1
7.315571866E2,-4.189005196E-1,-1.114828214E-1,2.661843300E-1
7.320611467E2,4.115701318E-1,2.477056682E-1,-1.375972927E-1
7.325651064E2,-3.150535226E-1,-2.457203567E-1,-2.183841541E-2
7.330690657E2,-2.828303874E-1,-1.288924664E-1,6.154462695E-2
7.335730246E2,3.756818548E-2,-2.693913579E-1,-7.635809947E-3
7.340769831E2,-3.527744114E-2,4.022544622E-1,1.927278340E-1
7.345809411E2,-1.117882580E-1,-3.245218992E-1,-5.894844979E-2
7.350848988E2,-4.088212550E-1,5.832231641E-1,-2.313650399E-1
7.355888562E2,-4.123337101E-3,-2.451094985E-1,9.621120244E-2
7.360928131E2,-3.495673835E-1,4.308123887E-1,4.011854529E-1
7.365967697E2,-2.652680278E-1,-1.554650813E-1,-5.068650246E-1
7.371007260E2,1.291978955E-1,6.750056148E-2,6.502655745E-1
7.376046819E2,-2.629773021E-1,-2.706131041E-1,-6.039925218E-1
7.381086375E2,-1.664606482E-2,1.843284518E-1,6.042979956E-1
7.386125929E2,-3.555232882E-1,-1.006399691E-1,-5.868883133E-1
7.391165480E2,3.138317764E-1,-1.113301069E-1,8.633046746E-1
7.396205029E2,-5.519163013E-1,-1.223256737E-1,-8.445205688E-1
7.401244574E2,6.079631448E-1,-6.017018110E-2,8.681915402E-1
7.406284118E2,-5.856665969E-1,3.359756246E-2,-6.049088240E-1
7.411323658E2,1.252272725E-1,-4.306596518E-2,8.109229803E-1
7.416363196E2,1.525634825E-1,-1.099556591E-2,-6.316341758E-1
7.421402731E2,-8.445205539E-2,-1.782197952E-1,4.711294472E-1
7.426442263E2,-2.748891478E-3,1.336266696E-1,-3.698786199E-1
7.431481792E2,-4.031707719E-2,-5.167915821E-1,2.964221239E-1
7.436521318E2,5.833758786E-2,3.541488647E-1,-3.203985691E-1
7.441560842E2,-4.543306828E-1,-2.646571696E-1,1.237001196E-1
7.446600363E2,-1.469129771E-1,-3.817904973E-3,3.773617148E-1
7.451639882E2,-5.787943676E-2,-2.232710719E-1,-7.211259007E-1
7.456679397E2,-4.592176080E-1,3.486510813E-1,4.552469850E-1
7.461718912E2,8.170316368E-2,-2.955058515E-1,-7.790052891E-1
7.466758431E2,-3.533852696E-1,4.201222658E-1,8.042035103E-1
7.471797957E2,-5.726857483E-2,-2.667951882E-1,-5.896372199E-1
7.476837487E2,7.773254067E-2,1.601992846E-1,8.300125003E-1
7.481877017E2,-1.018617004E-1,-3.414734006E-1,-7.206677198E-1
7.486916546E2,4.315759540E-1,-6.307178736E-2,9.540180564E-1
7.491956074E2,-5.942187309E-1,9.941824526E-2,-8.837686181E-1
7.496995598E2,5.206094980E-1,-2.403752953E-1,1.074358463E0
7.502035120E2,-2.770271897E-1,2.735147178E-1,-9.857830405E-1
7.507074642E2,-1.218675226E-1,-3.556760252E-1,5.618428588E-1
7.512114161E2,1.637117565E-1,1.873827726E-1,-5.455022454E-1
7.517153680E2,-3.492619395E-1,-3.743073940E-1,5.711585879E-1
7.522193196E2,-4.963276163E-2,3.150535226E-1,-4.801397026E-1
7.527232713E2,-2.102901936E-1,-2.414443046E-1,3.382663727E-1
7.532272231E2,-1.342375278E-1,2.087630332E-1,-4.605920315E-1
7.537311753E2,-5.390881747E-2,-9.025526792E-2,8.460476995E-2
7.542351277E2,-3.153589368E-1,1.473711282E-1,1.893680841E-1
7.547390806E2,1.365282834E-1,-5.659661889E-1,-2.368628234E-1
7.552430339E2,-3.176496923E-2,3.878991306E-2,7.466294765E-1
7.557469878E2,-2.197586000E-1,-2.298378795E-1,-7.449495792E-1
7.562509422E2,1.432477981E-1,6.872228533E-2,1.063820958E0
7.567548967E2,5.039634649E-3,-8.504765034E-1,-5.641336441E-1
7.572588511E2,-4.870119393E-1,1.273653030E0,6.276635528E-1
7.577628053E2,1.267544478E-1,3.848448023E-2,-1.805105358E-1
7.582667592E2,-9.957095981E-2,-4.874700904E-1,-7.330377586E-3
7.587707127E2,7.574722916E-2,-3.371973634E-1,-6.826414168E-2
7.592746660E2,1.262962967E-1,-4.201222658E-1,1.044578776E-1
7.597786191E2,-2.579376400E-1,5.354229808E-1,-2.382372692E-2
7.602825719E2,-1.130099818E-1,-4.969384968E-1,7.437278330E-2
7.607865243E2,-1.493564397E-1,5.392408967E-1,-1.036942974E-1
7.612904763E2,3.344484791E-2,-4.013381600E-1,-3.466657698E-1
7.617944280E2,1.224783882E-1,-4.703658819E-2,2.177732885E-1
7.622983793E2,1.655443609E-1,-2.360992432E-1,-4.011854529E-1
7.628023302E2,-7.214313149E-1,5.997164845E-1,2.405280024E-1
7.633062810E2,4.352411628E-2,-1.730274558E-1,-2.046397030E-1
7.638102316E2,-2.660316229E-1,2.669478953E-1,3.730856776E-1
7.643141819E2,6.750056148E-2,-2.620609999E-1,-6.262891293E-1
7.648181318E2,-1.916588247E-1,-1.021671370E-1,6.362156868E-1
7.653220813E2,-1.550069451E-1,1.166751757E-1,-7.788525820E-1
7.658260303E2,1.284343153E-1,-5.390881747E-2,1.118493438E0
7.663299791E2,-4.547888339E-1,-9.468403645E-3,-1.090546370E0
7.668339275E2,4.109592736E-1,-2.267835438E-1,1.103832603E0
7.673378756E2,-4.341721535E-1,1.482874304E-1,-8.348994255E-1
7.678418234E2,1.815795600E-1,-2.761108875E-1,6.438514590E-1
7.683457707E2,-5.864302069E-2,-1.601992846E-1,-5.332849622E-1
7.688497178E2,1.968511790E-1,-7.437278330E-2,3.674351573E-1
7.693536646E2,-1.690568328E-1,2.791652083E-1,-2.451094985E-1
7.698576111E2,-4.581485875E-3,-5.604684353E-1,3.127627671E-1
7.703615571E2,-9.697478265E-2,2.078467458E-1,-2.458730713E-2
7.708655028E2,-1.174387559E-1,-4.247037470E-1,-2.310595959E-1
7.713694481E2,-8.246674389E-2,3.801106215E-1,2.712239623E-1
7.718733931E2,-2.678641975E-1,-6.484329700E-1,-4.732674956E-1
7.723773376E2,-1.979201883E-1,2.217439115E-1,4.233292937E-1
7.728812817E2,-1.267544460E-2,3.726275265E-2,-4.228711426E-1
7.733852255E2,-2.803869247E-1,3.141372204E-1,6.591231227E-1
7.738891688E2,1.496618707E-2,-3.976729810E-1,-8.515455127E-1
7.743931118E2,6.979130208E-2,2.040288299E-1,9.653190970E-1
7.748970544E2,-1.847866029E-1,3.619373962E-2,-9.199623466E-1
7.754009966E2,-1.134681329E-1,1.751654744E-1,8.860593438E-1
7.759049386E2,-1.740964651E-1,-4.616610706E-1,-5.262600183E-1
7.764088801E2,6.154462695E-1,2.557996213E-1,6.491965652E-1
7.769128214E2,-5.891790986E-1,-1.238528341E-1,-4.772381186E-1
7.774167623E2,5.117519498E-1,-1.508836001E-1,7.130318880E-1
7.779207029E2,-5.984947681E-1,-2.820668221E-1,-5.175551772E-1
7.784246432E2,2.664897740E-1,-1.317940801E-1,8.067996502E-1
7.789285832E2,-6.076577306E-1,1.511890292E-1,-8.910989761E-1
7.794325228E2,1.690568328E-1,-4.173733592E-1,1.102458239E0
7.799364621E2,-3.152062297E-1,4.095848203E-1,-7.545707226E-1
7.804404011E2,1.001818255E-1,-3.627009690E-1,1.722638607E-1
7.809443398E2,1.379027218E-1,1.085812151E-1,-4.865537882E-1
7.814482781E2,-1.522580534E-1,-3.918697536E-1,4.170679152E-1
7.819522161E2,-1.501200199E-1,3.735437989E-1,-4.660898149E-1
7.824561538E2,-2.536616027E-1,-4.847212136E-1,1.698204130E-1
7.829600913E2,2.290742937E-3,3.245218992E-1,6.078104675E-2
7.834640284E2,-4.891499579E-1,-1.727220118E-1,-2.244928032E-1
7.839679652E2,1.198822111E-1,2.745837271E-1,6.443096399E-1
7.844719017E2,-2.486219704E-1,-3.425424397E-1,-4.676169753E-1
7.849758380E2,9.300415963E-2,3.094030023E-1,7.020363212E-1
7.854797741E2,-4.741837978E-1,1.832594350E-2,-6.867647171E-1
7.859837099E2,-1.644753367E-1,-3.207040206E-2,9.283617735E-1
7.864876454E2,5.416843295E-1,-2.664897740E-1,-4.415025115E-1
7.869915807E2,-7.466294765E-1,3.714057803E-1,1.612683088E-1
7.874955159E2,-5.064069033E-1,1.243109852E-1,-4.360047281E-1
7.879994510E2,5.002982616E-1,-3.213148713E-1,8.318451047E-1
7.885033862E2,-2.629773021E-1,8.735366166E-2,-3.434587121E-1
7.890073219E2,1.516471803E-1,5.390881747E-2,4.094321132E-1
7.895112580E2,1.398880333E-1,-4.289797843E-1,3.857611120E-1
7.900151941E2,2.321286201E-1,-5.517635942E-1,-6.910407543E-1
7.905191301E2,-2.900080681E-1,4.106538594E-1,-2.338084877E-1
7.910230661E2,-2.397644222E-1,-5.109884143E-1,-4.909825623E-1
7.915270018E2,-3.787361458E-2,5.001455545E-1,1.014951825E0
7.920309375E2,1.655443609E-1,-3.643808365E-1,-7.519745231E-1
7.925348730E2,-3.448331654E-1,4.454731345E-1,5.047270060E-1
7.930388085E2,4.413498193E-2,-3.985892832E-1,-4.201222658E-1
7.935427439E2,-4.366155863E-1,2.548833191E-1,3.816377819E-1
7.940466791E2,1.963930279E-1,-9.193515033E-2,-7.586940527E-1
7.945506141E2,-1.307250559E-1,1.476765573E-1,1.116508126E0
7.950545490E2,-1.461493969E-1,1.863137633E-2,-1.097723961E0
7.955584838E2,-1.980729103E-1,1.617264450E-1,1.219286084E0
7.960624185E2,-7.803797722E-2,-2.428187430E-2,-1.123227596E0
7.965663532E2,1.417206228E-1,6.780599058E-2,1.096960425E0
7.970702879E2,-5.436696410E-1,-8.857539296E-2,-1.155908823E0
7.975742229E2,4.132500291E-1,-3.601047993E-1,1.187979221E0
7.980781587E2,-4.127918780E-1,3.258963525E-1,-9.118683934E-1
7.985820960E2,2.147189677E-1,-2.924515009E-1,6.575959325E-1
7.990860348E2,1.353065521E-1,5.345066786E-1,-4.622719288E-1
7.995899748E2,-5.467239618E-1,-3.200931549E-1,1.892153621E-1
8.000939156E2,4.283689260E-1,3.975202441E-1,4.001164436E-2
8.005978573E2,-4.205803871E-1,-5.279398561E-1,-2.687804960E-2
8.011017996E2,-5.222893879E-2,4.725039005E-1,-1.941022873E-1
8.016057424E2,-3.237583488E-2,-2.542724609E-1,-1.363755614E-1
8.021096856E2,-1.907425225E-1,1.113301069E-1,4.781544209E-1
8.026136293E2,3.512472380E-3,-5.520690680E-1,-8.344413042E-1
8.031175731E2,-6.287325621E-1,5.216785073E-1,9.784526825E-1
8.036215172E2,2.338084877E-1,-3.744601011E-1,-1.160948515E0
8.041254613E2,-5.158752799E-1,5.198459029E-1,1.181870580E0
8.046294055E2,2.732092738E-1,-4.728093445E-1,-1.384372354E0
8.051333498E2,-4.780016840E-1,1.977674663E-1,1.335197687E0
8.056372941E2,1.136208475E-1,-2.422078848E-1,-1.341459036E0
8.061412386E2,-4.631882310E-1,1.333212405E-1,1.586415887E0
8.066451831E2,9.010255337E-3,-3.100138716E-2,-1.375667453E0
8.071491280E2,-3.124573231E-1,1.997527778E-1,9.152281284E-1
8.076530730E2,-1.977674663E-1,1.163697392E-1,-1.367573500E0
8.081570181E2,2.356410921E-1,-5.542070866E-1,1.348942161E0
8.086609634E2,6.780599058E-2,2.153298259E-2,-6.637045741E-1
8.091649088E2,-2.565632164E-1,-3.052796721E-1,4.731147587E-1
8.096688545E2,3.373500705E-1,1.153007299E-1,-5.835285783E-1
8.101728004E2,-3.439168632E-1,-4.109592736E-1,1.838703007E-1
8.106767464E2,6.536252797E-2,7.539598346E-1,-6.464476585E-1
8.111806926E2,1.718057245E-1,-8.443678617E-1,7.391463965E-2
8.116846387E2,-6.394227147E-1,3.877464235E-1,3.958403766E-1
8.121885849E2,3.824013472E-1,-4.642572403E-1,-4.805978537E-1
8.126925312E2,-7.785471678E-1,3.840812445E-1,5.473348498E-1
8.131964775E2,3.874409795E-1,-5.216785073E-1,-6.766854525E-1
8.137004238E2,-2.764163166E-2,-2.168569900E-2,1.111010313E0
8.142043702E2,-2.793179154E-1,5.650499091E-2,-7.229584455E-1
8.147083165E2,3.355174661E-1,-5.270236135E-1,8.167262077E-1
8.152122627E2,-5.077813268E-1,2.400698513E-1,-5.473348498E-1
8.157162088E2,2.747364342E-1,-4.996874034E-1,2.648098767E-1
8.162201548E2,6.566796452E-2,4.268417656E-1,-1.479819864E-1
8.167241007E2,-6.551524997E-2,-5.575668216E-1,-1.409570426E-1
8.172280464E2,1.554650813E-1,3.497200906E-1,-6.017018110E-2
8.177319919E2,-4.437932670E-1,1.165224537E-1,-4.576904476E-1
8.182359373E2,-3.770562708E-1,2.893971801E-1,7.501419783E-1
8.187398824E2,-1.456912458E-1,-3.723220825E-1,-7.951932549E-1
8.192438273E2,-5.036579967E-1,5.019781590E-1,9.167553186E-1
8.197477721E2,-6.261363626E-2,-3.300196826E-1,-1.082910538E0
8.202517167E2,-3.546070158E-1,1.243109852E-1,1.258381486E0
8.207556613E2,-7.895427197E-2,-4.046979249E-1,-1.058934093E0
8.212596057E2,1.459966749E-1,4.413498193E-2,1.330310822E0
8.217635501E2,-4.248564541E-1,-1.285870373E-1,-1.419649720E0
8.222674943E2,3.498727977E-1,-1.018617004E-1,1.395520568E0
8.227714383E2,-5.031998754E-1,1.478292793E-1,-1.060613990E0
8.232753821E2,1.820377111E-1,-4.291325063E-2,8.118392825E-1
8.237793257E2,-1.945604384E-1,-1.163697392E-1,-5.204567909E-1
8.242832692E2,1.107192412E-1,-6.585122347E-1,6.910407543E-1
8.247872126E2,-6.436987519E-1,4.961749315E-1,-1.255327165E-1
8.252911561E2,-5.299251899E-2,-6.953168511E-1,-8.617774844E-1
8.257950992E2,-6.108647794E-4,4.182896614E-1,7.531962991E-1
8.262990428E2,9.834922850E-2,-3.646862805E-1,-8.975130916E-1
8.268029864E2,-2.157879770E-1,5.253437161E-1,8.206968307E-1
8.273069301E2,-1.930332631E-1,-4.233292937E-1,-5.809323788E-1
8.278108738E2,3.268126547E-1,3.830122054E-1,3.523162603E-1
8.283148175E2,-1.230892539E-1,-3.365865052E-1,-2.718348205E-1
8.288187614E2,-6.918043643E-2,5.645917654E-1,4.098902643E-1
8.293227054E2,-1.046105921E-1,-2.580903769E-1,-3.526217043E-1
8.298266498E2,-2.367101051E-2,7.299833745E-2,6.039925218E-1
8.303305948E2,-4.448622763E-1,-2.333503515E-1,-7.869465351E-1
8.308345404E2,2.474002391E-1,1.495091617E-1,1.060613990E0
8.313384866E2,-2.583957911E-1,1.430950761E-1,-8.652899861E-1
8.318424335E2,2.973384261E-1,-4.408916533E-1,4.445568323E-1
8.323463810E2,-6.368265301E-2,1.495091617E-1,-9.306524992E-1
8.328503292E2,-1.838703007E-1,-3.176496923E-1,6.362156868E-1
8.333542781E2,9.651663154E-2,1.595884264E-1,-1.907425225E-1
8.338582274E2,-4.590648711E-1,-3.072649837E-1,1.863137633E-1
8.343621772E2,1.461493969E-1,3.678933084E-1,-1.175914705E-1
8.348661274E2,-7.192932814E-2,-4.482220411E-1,-1.316413581E-1
8.353700778E2,-3.072649837E-1,3.419315517E-1,-2.761108875E-1
8.358740283E2,-9.162971983E-4,-2.098320574E-1,6.093376130E-2
8.363779790E2,-3.092502952E-1,8.338304609E-2,4.943423271E-1
8.368819297E2,4.001164436E-2,-1.566868126E-1,-8.387173414E-1
8.373858802E2,-5.665770918E-2,1.527161989E-2,1.140179157E0
8.378898305E2,-2.773326039E-1,2.993237413E-2,-1.075427413E0
8.383937806E2,-1.149952933E-1,1.841757298E-1,1.242193580E0
8.388977302E2,-2.397644334E-2,-8.231402934E-2,-8.961386085E-1
8.394016796E2,1.336266696E-1,-2.293797284E-1,7.417425513E-1
8.399056288E2,1.261435747E-1,1.487455666E-1,-4.402807951E-1
8.404095779E2,-1.918115467E-1,-3.849975169E-1,2.751945853E-1
8.409135267E2,-4.657844082E-2,2.510654330E-1,-1.667660922E-1
8.414174754E2,-1.681405306E-1,-4.387536347E-1,1.699731201E-1
8.419214239E2,-1.780670881E-1,5.009090900E-1,8.613193035E-2
8.424253721E2,-1.472184062E-1,-5.232056975E-1,-4.063777924E-1
8.429293202E2,-1.637117565E-1,3.263545036E-1,1.288924664E-1
8.434332680E2,-6.398808211E-2,-2.533561587E-1,-6.004800797E-1
8.439372157E2,-1.339320987E-1,2.064722925E-1,7.611374855E-1
8.444411632E2,-9.972367436E-2,-2.162461281E-1,-8.703296185E-1
8.449451106E2,-2.490801066E-1,3.089448512E-1,1.020755053E0
8.454490578E2,-1.417206228E-1,-4.398226365E-2,-1.088713765E0
8.459530046E2,-6.246092543E-2,2.672533318E-2,1.348942161E0
8.464569514E2,-1.319467872E-1,-1.211039424E-1,-1.270904183E0
8.469608982E2,-8.017600328E-2,-1.027780026E-1,1.363908291E0
8.474648449E2,-1.392771751E-1,4.520399496E-2,-1.210275888E0
8.479687917E2,-1.540906429E-1,-1.195767820E-1,7.186824083E-1
8.484727384E2,1.725693047E-1,1.411097646E-1,-4.343248606E-1
8.489766850E2,-3.298669755E-1,-2.153298408E-1,1.508836001E-1
8.494806316E2,1.606574357E-1,1.137735620E-1,-1.664606482E-2
8.499845779E2,-1.153007299E-1,-6.217076182E-1,-4.060723484E-1
8.504885240E2,1.698204130E-1,2.466366589E-1,2.715294063E-1
8.509924699E2,-2.498437017E-1,-2.692386508E-1,-3.750709891E-1
8.514964158E2,-3.081812859E-1,3.095557392E-1,5.215258002E-1
8.520003617E2,-1.715002805E-1,-1.114828214E-1,-5.632173419E-1
8.525043075E2,-4.260781705E-1,2.684750557E-1,1.067486167E0
8.530082532E2,3.911061883E-1,-5.671879649E-1,-7.690787315E-1
8.535121987E2,-3.849975169E-1,1.540906429E-1,1.056796074E0
8.540161442E2,-1.162170246E-1,-5.803215504E-2,-1.318551660E0
8.545200895E2,-4.673115537E-2,-2.687804960E-2,1.284495950E0
8.550240347E2,-3.116937578E-1,-1.597411335E-1,-1.344360709E0
8.555279800E2,1.540906429E-1,-2.084576041E-1,1.183397770E0
8.560319254E2,-3.078758419E-1,-1.385135949E-1,-1.057406902E0
8.565358708E2,2.034179717E-1,-4.288270772E-1,6.922625303E-1
8.570398162E2,3.199404180E-1,3.283398226E-2,-3.544542789E-1
8.575437615E2,-6.000219584E-1,-8.078686893E-2,5.146535859E-2
8.580477068E2,-2.475529462E-1,4.308123887E-1,-1.099556591E-2
8.585516521E2,1.514944583E-1,-4.300487936E-1,-9.239330143E-2
8.590555974E2,-2.883281708E-1,4.179842174E-1,3.084867001E-1
8.595595427E2,3.457494676E-1,-8.538362384E-1,-2.664897740E-1
8.600634880E2,-6.203331947E-1,4.766272306E-1,4.839576185E-1
8.605674331E2,-1.107192412E-1,-1.620318890E-1,-7.919861674E-1
8.610713782E2,-5.833758786E-2,3.772090003E-2,8.400917649E-1
8.615753231E2,-2.593120933E-1,6.383536756E-2,-9.514219165E-1
8.620792679E2,7.589995116E-2,6.750056148E-2,1.150869250E0
8.625832125E2,-4.271472096E-1,1.834121495E-1,-1.114217401E0
8.630871571E2,8.323032409E-2,-1.432477981E-1,1.171333194E0
8.635911016E2,-1.931859851E-1,-4.483747482E-1,-9.195042253E-1
8.640950459E2,3.460549116E-1,-2.452622056E-1,7.469348907E-1
8.645989901E2,2.886336111E-2,1.685986817E-1,-5.790998340E-1
8.651029342E2,-9.758564830E-2,-3.866774142E-1,2.081521749E-1
8.656068780E2,-3.359756200E-3,7.101303339E-2,-2.800815105E-1
8.661108216E2,-5.719221234E-1,-1.253799945E-1,-1.091920808E-1
8.666147649E2,3.849975169E-1,2.215912044E-1,8.174898028E-1
8.671187082E2,-6.337722391E-2,-7.313578725E-1,-1.134223223E0
8.676226512E2,9.529490769E-2,4.138608873E-1,1.168126225E0
8.681265942E2,-2.950477004E-1,-8.713986278E-1,-9.958623052E-1
8.686305369E2,-2.354883701E-1,9.550870657E-1,1.180038095E0
8.691344793E2,-1.412624866E-1,-7.376192510E-2,-9.159917235E-1
8.696384212E2,3.656025827E-1,-1.418733448E-1,1.343597054E0
8.701423627E2,-6.566796303E-1,9.392046183E-2,-1.116202712E0
8.706463035E2,2.719875574E-1,-2.675587833E-1,1.085048556E0
8.711502439E2,-5.122101307E-1,-7.819069177E-2,-1.096196890E0
8.716541837E2,5.335903764E-1,-6.383537054E-1,6.415607333E-1
8.721581230E2,-2.150243968E-1,6.543889046E-1,-3.481929302E-1
8.726620619E2,3.701840639E-1,-2.846629918E-1,1.218675226E-1
8.731660003E2,-3.853029609E-1,2.519817278E-2,6.169734150E-2
8.736699385E2,-1.023198478E-2,-3.335321844E-1,2.565632015E-2
8.741738771E2,-4.721984863E-1,3.407098353E-1,-5.222893879E-2
8.746778158E2,3.023780696E-2,-1.392771751E-1,-3.371973634E-1
8.751817544E2,-1.192713454E-1,2.974911332E-1,4.749473631E-1
8.756856929E2,9.575305134E-2,-4.013381600E-1,-2.686277926E-1
8.761896311E2,-3.513999581E-1,4.187478125E-1,6.049088240E-1
8.766935690E2,-3.144426346E-1,-2.185368687E-1,-7.751874328E-1
8.771975066E2,1.463021189E-1,-1.142317131E-1,7.101303339E-1
8.777014440E2,-5.027416945E-1,1.931859851E-1,-4.989238083E-1
8.782053812E2,5.189296007E-1,-1.572976857E-1,6.685914993E-1
8.787093185E2,-3.489564955E-1,4.581485689E-2,-4.828886092E-1
8.792132560E2,-5.375609919E-2,-3.831649423E-1,2.043342739E-1
8.797171935E2,3.242164850E-1,5.606211424E-1,-9.330959618E-2
8.802211308E2,-4.944950342E-1,-3.723220825E-1,-2.663370371E-1
8.807250680E2,-1.253799945E-1,4.060723484E-1,5.670352578E-1
8.812290049E2,8.613193035E-2,-7.026472092E-1,-1.074816585E0
8.817329418E2,-2.134972364E-1,2.663370371E-1,7.771727443E-1
8.822368786E2,-1.130099818E-1,-3.063486814E-1,-6.768381596E-1
8.827408153E2,-1.534797698E-1,3.680460155E-1,8.895718455E-1
8.832447517E2,-1.441640854E-1,-1.611155868E-1,-8.205441236E-1
8.837486878E2,-1.450803876E-2,2.550360374E-2,8.927788734E-1
8.842526237E2,-2.634354234E-1,3.711003438E-2,-1.003192663E0
8.847565595E2,3.497200832E-2,3.039052337E-2,1.255021691E0
8.852604953E2,-4.156934917E-1,2.596175298E-3,-1.287702918E0
8.857644320E2,3.443750143E-1,-4.599811733E-1,1.535255909E0
8.862683673E2,-4.731147587E-1,1.687513888E-1,-1.118340731E0
8.867723026E2,1.664606482E-2,-1.521053314E-1,8.391754627E-1
8.872762380E2,-1.835648715E-1,3.588830680E-2,-6.401863098E-1
8.877801734E2,-1.994473487E-1,-2.388481349E-1,5.783362389E-1
8.882841088E2,2.043342739E-1,2.336557768E-2,-7.153226733E-1
8.887880442E2,-4.584540129E-1,-1.524107605E-1,2.472475171E-1
8.892919795E2,2.000582218E-1,3.917170465E-1,7.254019380E-2
8.897959147E2,-5.838339925E-1,3.420842811E-2,-2.689332068E-1
8.902998498E2,5.320632458E-1,2.431241870E-1,1.912006736E-1
8.908037850E2,-2.823722363E-1,-5.221366882E-1,-7.447968721E-1
8.913077202E2,-8.610138893E-1,5.682569742E-1,8.614720702E-1
8.918116554E2,6.643154472E-2,-8.341358304E-1,-1.284495950E0
8.923155906E2,-2.858847082E-1,5.613847375E-1,1.593135357E0
8.928195257E2,1.195767820E-1,-6.493492723E-1,-7.898481488E-1
8.933234608E2,-4.077522457E-2,1.435532235E-2,9.964731932E-1
8.938273958E2,-4.616610706E-1,5.726857483E-2,-1.353218198E0
8.943313307E2,2.426660359E-1,-1.837175786E-1,1.407890558E0
8.948352655E2,-7.985529900E-1,-4.199695215E-2,-1.556330800E0
8.953392002E2,3.808741868E-1,-3.576613367E-1,1.409570456E0
8.958431350E2,-4.566214085E-1,2.452622056E-1,-1.051756382E0
8.963470696E2,-1.224783882E-1,-1.592829973E-1,6.921098232E-1
8.968510041E2,-1.588248461E-2,2.377791107E-1,-2.124282271E-1
8.973549386E2,-1.056796089E-1,-5.619955808E-2,-5.786416531E-1
8.978588729E2,-2.280052751E-1,4.257727563E-1,1.514944583E-1
8.983628071E2,-2.200640440E-1,-5.502364635E-1,-5.424479246E-1
8.988667412E2,-4.430296719E-1,2.721402645E-1,6.983711720E-1
8.993706760E2,2.483165264E-1,-7.087558508E-1,-1.045953274E0
8.998746111E2,-1.547015011E-1,3.300196826E-1,1.266475439E0
9.003785465E2,-3.405570984E-2,-6.145299673E-1,-1.134070516E0
9.008824821E2,-1.511890292E-1,4.413498044E-1,1.129947066E0
9.013864176E2,-1.609628648E-1,-2.930623889E-1,-1.309235930E0
9.018903532E2,-1.151480079E-1,1.763872057E-1,1.407585144E0
9.023942888E2,-2.498437017E-1,-2.703076601E-2,-1.582597971E0
9.028982246E2,7.925970852E-2,6.429351866E-2,1.854279995E0
9.034021608E2,-4.075995386E-1,-1.516471803E-1,-1.685223222E0
9.039060976E2,8.109229803E-2,4.169152305E-2,1.475238442E0
9.044100349E2,-3.796524704E-1,3.132209182E-1,-1.191949844E0
9.049139727E2,-3.802633286E-2,2.993237413E-2,1.189353704E0
9.054179110E2,5.910116807E-2,-4.390590489E-1,-9.231693745E-1
9.059218498E2,-2.225074917E-1,-1.644753367E-1,4.627300799E-1
9.064257890E2,2.408334464E-1,4.738783538E-1,-1.437059343E-1
9.069297283E2,-3.543015718E-1,-3.407098353E-1,-4.062250629E-2
9.074336676E2,3.116937578E-1,2.745837271E-1,-9.193515033E-2
9.079376070E2,-2.434296161E-1,-6.585122347E-1,-2.185368687E-1
9.084415463E2,-9.422589093E-2,4.647153914E-1,4.555523992E-1
9.089454859E2,-6.963858753E-2,-6.669116020E-1,-5.994110703E-1
9.094494255E2,-9.208786488E-2,5.557342172E-1,4.926624298E-1
9.099533651E2,-2.318231910E-1,-6.114756465E-1,-4.091266990E-1
9.104573046E2,-7.330377586E-3,3.130682111E-1,5.673406720E-1
9.109612440E2,-2.721402645E-1,-3.061959743E-1,-8.365793228E-1
9.114651834E2,-2.535088919E-2,2.021962404E-1,9.758564830E-1
9.119691225E2,-2.420551628E-1,-2.212857604E-1,-9.952514172E-1
9.124730615E2,3.439168632E-1,1.046105921E-1,1.201570988E0
9.129770005E2,-3.933969140E-1,-1.840230078E-1,-8.524618149E-1
9.134809394E2,3.346011937E-1,-7.467821985E-2,8.028290272E-1
9.139848782E2,-5.016726851E-1,5.833758786E-2,-6.026180983E-1
9.144888168E2,1.983783394E-1,-3.327685893E-1,5.135845542E-1
9.149927553E2,-1.142317131E-1,-1.947131455E-1,-6.012436748E-1
9.154966937E2,-2.057087123E-1,1.375972927E-1,4.987711012E-1
9.160006320E2,8.491020650E-2,5.100721121E-1,-3.431532979E-1
9.165045703E2,-2.573267817E-1,-2.428187430E-1,-1.473711282E-1
9.170085087E2,1.554650813E-1,9.040798992E-2,3.300196826E-1
9.175124470E2,-1.829539984E-1,-6.091849208E-1,-8.442151546E-1
9.180163854E2,-9.285144508E-2,3.098611534E-1,4.970912039E-1
9.185203237E2,-6.795870513E-2,-4.085158110E-1,-4.476111531E-1
9.190242620E2,-4.963276163E-2,3.869828284E-1,5.574141145E-1
9.195282002E2,-3.999637067E-1,2.533561587E-1,-8.947641850E-1
9.200321385E2,4.334085584E-1,-3.178023994E-1,1.556025267E0
9.205360767E2,-4.272999167E-1,-4.425715208E-1,-1.081688762E0
9.210400150E2,2.901607752E-1,3.848448023E-2,7.017309070E-1
9.215439532E2,-2.741255760E-1,2.306014486E-2,-4.834994674E-1
9.220478912E2,2.916879393E-2,-2.203694731E-1,4.024071693E-1
9.225518292E2,-1.221729559E-3,9.071341902E-2,-7.895427197E-2
9.230557674E2,-1.414151937E-1,-2.542724609E-1,-6.475166976E-2
9.235597057E2,-7.437278330E-2,4.358520210E-1,1.230892539E-1
9.240636443E2,-2.851211429E-1,-3.779725730E-1,-3.813323379E-1
9.245675833E2,1.371391416E-1,2.861901522E-1,3.597993553E-1
9.250715223E2,-3.596466482E-1,-5.115992576E-2,-5.971203446E-1
9.255754613E2,-1.351538301E-1,9.834922850E-2,1.215468168E0
9.260794002E2,-3.332267404E-1,-2.202167511E-1,-1.103985429E0
9.265833391E2,1.977674663E-1,-1.142317131E-1,9.589049816E-1
9.270872780E2,-2.793179154E-1,-2.550360374E-2,-9.773836732E-1
9.275912170E2,2.290742993E-1,-2.267835438E-1,9.634864926E-1
9.280951558E2,-8.231402934E-2,-1.679878123E-2,-6.015490890E-1
9.285990947E2,-1.728747338E-1,-1.789833754E-1,2.936732471E-1
9.291030337E2,1.004872546E-1,1.166751757E-1,-2.023489624E-1
9.296069727E2,-1.556178033E-1,-3.219257295E-1,1.832594397E-3
9.301109117E2,-3.558287397E-2,3.005454838E-1,1.253799945E-1
9.306148508E2,-7.544180006E-2,-4.193586707E-1,-3.932442069E-1
9.311187897E2,-2.516762912E-1,4.891499579E-1,2.822195292E-1
9.316227285E2,-7.803797722E-2,-4.955640435E-1,-3.646862805E-1
9.321266672E2,-4.323395491E-1,4.702131748E-1,4.346303046E-1
9.326306057E2,-4.046979174E-2,-2.993237376E-1,-4.360047281E-1
9.331345440E2,5.267181396E-1,-5.345067009E-3,6.351466775E-1
9.336384822E2,-7.788525820E-1,1.469129771E-1,-6.391173005E-1
9.341424202E2,4.963276386E-1,-1.227838174E-1,9.072869420E-1
9.346463582E2,-4.211912751E-1,5.619955808E-2,-8.289434910E-1
9.351502960E2,-8.261945844E-2,-2.360992432E-1,1.054199934E0
9.356542337E2,-1.882990748E-1,1.705839932E-1,-8.037453294E-1
9.361581712E2,-2.229656465E-2,-4.769326746E-1,4.828886092E-1
9.366621085E2,-5.635227636E-2,4.175260663E-1,-4.192059636E-1
9.371660455E2,8.277218044E-2,-6.128500700E-1,-3.054323979E-2
9.376699824E2,-2.524398565E-1,7.895427197E-2,-1.237001177E-2
9.381739192E2,-2.535088919E-2,-5.018253922E-1,-2.309068888E-1
9.386778559E2,2.290742844E-2,4.728093445E-1,1.950185746E-1
9.391817924E2,-1.369864196E-1,-3.680460155E-1,-3.666715920E-1
9.396857287E2,-2.915352285E-1,4.315759540E-1,4.479165971E-1
9.401896648E2,2.267835438E-1,-7.958040833E-1,-7.321214676E-1
9.406936008E2,-3.321577311E-1,6.667588949E-1,7.457131743E-1
9.411975366E2,-1.815795600E-1,-3.794997334E-1,-8.297070861E-1
9.417014722E2,-7.008146048E-1,3.799578846E-1,5.584831238E-1
9.422054078E2,5.589412898E-2,-3.649916872E-2,-1.332296133E0
9.427093433E2,-1.437059343E-1,2.857320011E-1,1.774409413E0
9.432132787E2,1.128572673E-1,-1.977674663E-1,-1.645516992E0
9.437172141E2,-2.761108875E-1,3.724747896E-1,1.745087981E0
9.442211493E2,-4.841103405E-2,-4.422661066E-1,-1.746004224E0
9.447250843E2,7.483093534E-3,6.856957078E-2,1.927736521E0
9.452290191E2,-1.600465775E-1,-2.396117151E-1,-1.243720651E0
9.457329532E2,8.842267841E-2,2.090684772E-1,1.115744472E0
9.462368876E2,-1.858556122E-1,-7.635809481E-2,-9.735657573E-1
9.467408218E2,5.650499370E-3,-3.371973634E-1,7.108938694E-1
9.472447558E2,-1.220202371E-1,-1.904370934E-1,-2.738201320E-1
9.477486897E2,-1.123991162E-1,-4.943423271E-1,-6.108647794E-4
9.482526233E2,1.389717311E-1,1.666133702E-1,3.069595397E-1
9.487565568E2,-5.558869615E-2,-3.219257295E-1,-4.602866173E-1
9.492604904E2,-3.054323897E-4,6.200277433E-2,-1.513417512E-1
9.497644243E2,1.096502244E-1,1.375972927E-1,-1.623373181E-1
9.502683586E2,-6.540834904E-1,6.852375865E-1,6.914989352E-1
9.507722929E2,5.477929711E-1,-7.831286192E-1,-7.137954831E-1
9.512762271E2,-6.974548697E-1,4.992292523E-1,5.685623884E-1
9.517801614E2,-1.766926348E-1,-3.552178741E-1,-8.978185058E-1
9.522840956E2,-5.354229808E-1,2.011272311E-1,9.637919068E-1
9.527880297E2,1.362228394E-1,-2.698495090E-1,-9.859357476E-1
9.532919640E2,-1.450803876E-1,1.540906429E-1,1.286939383E0
9.537958985E2,-1.527161989E-2,-1.391244531E-1,-1.178969026E0
9.542998332E2,-1.348484010E-1,2.947422490E-2,1.080467105E0
9.548037679E2,-1.893680729E-2,-2.322813272E-1,-6.649262905E-1
9.553077025E2,1.142317131E-1,-3.101665974E-1,9.743293375E-2
9.558116369E2,-4.810560122E-2,4.845684767E-1,1.336266696E-1
9.563155712E2,-2.046396956E-2,-7.608320713E-1,-1.855501831E-1
9.568195052E2,-3.283398226E-2,4.628827870E-1,8.970549107E-1
9.573234393E2,2.199113220E-1,-7.880155742E-2,-6.366738081E-1
9.578273733E2,-7.492256761E-1,6.062833071E-1,-7.910698652E-2
9.583313071E2,5.592467189E-1,-9.045380354E-1,-6.311760545E-1
9.588352408E2,-8.588758707E-1,1.704312712E-1,8.216131330E-1
9.593391743E2,2.309068888E-1,-4.488328993E-1,-9.964731932E-1
9.598431076E2,1.565341055E-1,1.679878086E-1,1.241277218E0
9.603470406E2,-6.375901103E-1,2.640463114E-1,-1.129641652E0
9.608509735E2,2.012799382E-1,-7.773254067E-2,1.377652764E0
9.613549064E2,-2.625191510E-1,-4.459312931E-2,-1.352301955E0
9.618588391E2,1.036942974E-1,-3.164279461E-1,8.791871071E-1
9.623627715E2,-1.453858167E-1,2.028071135E-1,-5.656607747E-1
9.628667039E2,-1.241582632E-1,-3.184132576E-1,4.089739621E-1
9.633706359E2,1.690568328E-1,1.753181964E-1,-3.477347791E-1
9.638745679E2,-2.779434621E-1,-3.191768527E-1,1.511890348E-2
9.643784998E2,-7.376192510E-2,1.724165827E-1,1.728747338E-1
9.648824316E2,-1.716530025E-1,-5.102248192E-1,-6.296488643E-1
9.653863633E2,-2.096793354E-1,4.237874448E-1,6.432406306E-1
9.658902948E2,-8.414662629E-2,-3.010036349E-1,-9.451605082E-1
9.663942263E2,-3.234528899E-1,4.317286909E-1,1.010675788E0
9.668981577E2,-3.527744114E-2,-2.822195292E-1,-1.354745388E0
9.674020891E2,-3.028362095E-1,2.753472924E-1,1.262199402E0
9.679060205E2,-1.247691289E-1,-1.195004225E0,-1.139415503E0
9.684099522E2,4.428769648E-2,7.228057384E-1,1.500742078E0
9.689138841E2,-3.813323379E-1,-6.597339362E-2,-1.210123181E0
9.694178162E2,5.450441241E-1,-1.788306683E-1,8.694133162E-1
9.699217483E2,-4.463894367E-1,3.246746361E-1,-6.107120514E-1
9.704256805E2,1.715002805E-1,-9.178243577E-2,7.695369124E-1
9.709296128E2,2.163988501E-1,-3.420842811E-2,-2.510654330E-1
9.714335450E2,-1.539379209E-1,1.473711282E-1,2.280052751E-1
9.719374770E2,-2.814559340E-1,-3.506363928E-1,-1.435532272E-1
9.724414090E2,3.400989771E-1,-1.508836001E-1,-4.276053309E-1
9.729453408E2,-4.053087831E-1,-5.406153202E-2,2.454149276E-1
9.734492724E2,1.925751269E-1,-4.520399272E-1,3.639226854E-1
9.739532038E2,-1.330158114E-1,3.544542789E-1,-8.307760954E-2
9.744571354E2,-3.304778337E-1,-3.646862805E-1,-1.472184062E-1
9.749610673E2,-2.107483521E-2,5.664243698E-1,1.296560466E-1
9.754649996E2,-1.229365394E-1,-3.732383847E-1,9.162971983E-4
9.759689320E2,-4.917461425E-2,4.179842174E-1,-1.985310577E-2
9.764728645E2,1.134681329E-1,-4.769326746E-1,-3.054323792E-1
9.769767969E2,-2.553414702E-1,1.794415265E-1,8.428406715E-1
9.774807291E2,8.338304609E-2,-2.974911332E-1,-1.059239507E0
9.779846612E2,-6.948586702E-1,6.175842881E-1,8.287907839E-1
9.784885935E2,2.312123179E-1,-5.966621637E-1,-1.115439057E0
9.789925263E2,-2.825249732E-1,1.557705253E-1,1.151938200E0
9.794964594E2,8.048143238E-2,-6.905826330E-1,-1.004872561E0
9.800003929E2,-3.535379767E-1,6.265945435E-1,1.513112068E0
9.805043263E2,-2.678641975E-1,-2.509126961E-1,-1.649945736E0
9.810082596E2,-4.948004708E-2,5.589412898E-2,1.553123713E0
9.815121927E2,-2.503018379E-1,2.386954129E-1,-1.359326839E0
9.820161257E2,2.580903657E-2,2.168569900E-2,1.046869516E0
9.825200585E2,-2.959639728E-1,5.665770918E-2,-7.799215913E-1
9.830239912E2,-2.871064469E-2,-3.414734006E-1,5.743656158E-1
9.835279357E2,-4.138609022E-2,-2.290742844E-2,-5.274817348E-1
9.840318556E2,-1.325576603E-1,-3.958403766E-1,4.447095692E-1
9.845357875E2,1.032361463E-1,4.393644929E-1,-4.813614488E-1
9.850397191E2,-3.950767815E-1,-2.360992432E-1,2.368628234E-1
9.855436506E2,5.238165334E-2,3.355174661E-1,-2.269362658E-1
9.860475819E2,-2.493855506E-1,-3.003927469E-1,-3.633118272E-1
9.865515131E2,-2.461785078E-1,3.436114267E-2,5.983420610E-1
9.870554442E2,8.552107215E-2,-2.380845547E-1,-9.640973210E-1
9.875593754E2,-6.230820715E-2,3.759872615E-1,1.028390884E0
9.880633066E2,-1.498145908E-1,-4.233292937E-1,-9.616538882E-1
9.885672376E2,-4.146244824E-1,-1.015562713E-1,1.055574298E0
9.890711685E2,7.177661173E-3,-2.306014486E-2,-1.033430457E0
9.895750994E2,3.171915412E-1,-2.058614343E-1,1.156214356E0
9.900790302E2,-5.299251676E-1,-1.142317131E-1,-1.156672478E0
9.905829607E2,8.307760954E-2,-9.437860548E-2,1.316108227E0
9.910868911E2,-3.262017965E-1,3.711003438E-2,-1.222951293E0
9.915908213E2,1.064431891E-1,9.651663154E-2,1.169347882E0
9.920947513E2,-3.736965358E-1,1.053741723E-1,-1.296560526E0
9.925986811E2,-2.397644334E-2,1.033888608E-1,1.425605655E0
9.931026108E2,-3.014617562E-1,1.298087649E-2,-1.320842385E0
9.936065404E2,-3.257436454E-1,2.871064544E-1,1.143080711E0
9.941104700E2,6.673697382E-2,-1.664606482E-2,-1.226311088E0
9.946143994E2,-1.191186346E-2,8.200860023E-2,2.426660359E-1
9.951183288E2,-7.681624591E-2,-2.199113220E-1,-4.046979174E-2
9.956222580E2,-2.916879393E-2,1.731801629E-1,5.975784659E-1
9.961261872E2,1.313359290E-2,-7.060069442E-1,-6.667588949E-1
9.966301163E2,9.162971983E-4,2.264781147E-1,6.438514590E-1
9.971340452E2,1.954767294E-2,-4.344775677E-1,-3.918697536E-1
9.976379741E2,-3.711003661E-1,5.997164845E-1,1.797469556E-1
9.981419028E2,1.464548260E-1,4.288270772E-1,-9.424116611E-1
9.986458315E2,1.162170291E0,1.519373417E0,-6.633991599E-1
