"Time (s)","Linear Acceleration x (m/s^2)","Linear Acceleration y (m/s^2)","Linear Acceleration z (m/s^2)"
3.362563080E-1,0.000000000E0,0.000000000E0,0.000000000E0
5.378666200E-1,-1.353772521E0,8.540406227E-1,3.588476181E-1
1.037866620E0,3.573335648E0,-2.795390129E0,2.136300802E0
1.537866620E0,-2.238594055E0,-3.400497437E-1,-2.943268061E0
2.037866620E0,-7.597618103E-1,-2.088953495E0,-1.550843239E0
2.537866620E0,-9.779415131E-1,-8.145012856E-1,-1.536143541E0
3.037866620E0,-9.687242508E-1,-2.190828323E-2,-4.910347462E-1
3.537866620E0,-5.558013916E-2,-2.702263355E0,-1.817679286E0
4.037866620E0,8.449506760E-2,-9.906101227E-1,-4.644063711E-1
4.537866620E0,1.368361950E0,-1.436043739E0,-1.223339558E0
5.037866620E0,-1.013924122E0,-2.887501240E0,-2.383991718E0
5.537866620E0,1.768640995E0,-3.270463943E-1,-1.335351467E-1
6.037866620E0,-2.002786160E0,-2.208433628E0,-1.948717952E0
6.537866620E0,1.962488651E0,-1.540255070E0,-7.299699783E-1
7.037866620E0,-5.434350967E-1,-1.372471809E0,-2.417988777E0
7.537866620E0,2.845527172E0,-1.189372540E0,-1.324384212E-1
8.037866620E0,-3.082003593E-1,-1.939952850E0,-2.138788700E-1
8.537866620E0,4.763940811E0,-4.924745560E-1,1.857986450E-1
9.037866620E0,3.516159058E-1,-1.690156937E0,-8.414938450E-1
9.537866620E0,3.459895134E0,-1.336089134E0,5.423437357E-1
1.003786662E1,2.275466919E-2,-1.331494808E0,-2.270935774E-1
1.053786662E1,3.376539230E0,-1.052120209E0,8.492623568E-1
1.103786662E1,-3.345069885E-1,-2.030595303E0,-6.836713552E-1
1.153786662E1,3.291123867E0,-1.245275497E0,1.093405247E0
1.203786662E1,6.473922729E-2,-1.119101048E0,-7.599421740E-1
1.253786662E1,2.355880260E0,-1.211196899E0,3.995667696E-1
1.303786662E1,8.313841820E-1,-1.547959328E0,-5.125854015E-1
1.353786662E1,2.588218212E0,-1.507421494E0,5.970789194E-1
1.403786662E1,-1.320016861E0,-1.153753281E0,7.157872915E-1
1.453786662E1,2.820289135E0,-1.924225807E0,5.785338879E-1
1.503786662E1,-6.481871605E-1,-1.363098145E0,-1.239719987E0
1.553786662E1,2.066781044E0,-1.634267807E0,6.675856113E-1
1.603786662E1,3.568019867E-1,-1.251739502E0,-9.313063622E-1
1.653786662E1,1.168845177E0,-1.598588943E0,4.037842751E-1
1.703786662E1,-1.092916012E0,-2.460486412E0,-1.292109966E0
1.753786662E1,2.522089958E0,-3.481783867E-1,6.316664219E-1
1.803786662E1,-7.842936516E-1,-2.026756287E0,-6.305461526E-1
1.853786662E1,3.269600868E-1,-1.643956184E0,8.120876551E-1
1.903786662E1,-1.796684265E-1,-1.028511047E0,3.257513046E-1
1.953786662E1,-5.026340485E-2,-7.925786972E-1,1.620975018E0
2.003786662E1,-5.462374687E-1,-1.009062767E0,-8.113089800E-1
2.053786662E1,-1.481288910E0,-3.484206200E-1,1.441754818E0
2.103786662E1,1.257077694E0,6.135601997E-1,-3.181059361E-1
2.153786662E1,-1.577341080E0,-1.007556915E0,1.476893663E0
2.203786662E1,1.835509777E0,1.525112629E0,-6.128221750E-1
2.253786662E1,-1.925938606E0,1.657767296E-1,1.173155546E0
2.303786662E1,9.933137894E-2,1.928050041E0,-7.928352356E-1
2.353786662E1,-1.808478832E0,-3.738522530E-1,3.934669495E-2
2.403786662E1,1.398067713E0,2.539389610E0,-7.888891697E-1
2.453786662E1,1.724872589E-1,-1.181066513E0,-6.106660962E-1
2.503786662E1,6.065673828E-1,1.266334057E0,2.248916626E-1
2.553786662E1,-6.077771187E-1,-3.166407585E0,1.921818256E-1
2.603786662E1,2.311338902E0,-6.260986328E-1,9.158457518E-1
2.653786662E1,-2.451186419E0,-3.116273880E-1,1.526279449E0
2.703786662E1,1.876679420E0,-1.454687119E0,1.281721711E0
2.753786662E1,-1.890960932E0,-3.168635368E-1,1.137359023E0
2.803786662E1,2.253387451E0,-2.201242447E0,1.007674217E0
2.853786662E1,-2.143407345E0,-8.323278427E-1,8.592191935E-1
2.903786662E1,2.291026115E0,-1.660449028E0,4.098334312E-1
2.953786662E1,-1.428262234E0,-1.026157379E0,-7.300974131E-1
3.003786662E1,2.945607185E0,-1.804407597E0,8.045219183E-1
3.053786662E1,-1.633494616E0,-1.714300156E0,-7.036397457E-1
3.103786662E1,2.231655598E0,-1.304058075E0,5.107443333E-1
3.153786662E1,-1.487412214E0,-1.859127998E0,-7.503881454E-1
3.203786662E1,1.531168461E0,-1.936230183E0,6.945039034E-1
3.253786662E1,-1.935081244E0,-2.794719219E0,1.096120715E0
3.303786662E1,1.005997658E-1,-3.732995987E-1,1.256330132E0
3.353786662E1,-5.393090248E-1,-3.165569305E-1,-4.051315784E-1
3.403786662E1,-1.294766426E0,1.450748444E-1,1.423117518E0
3.453786662E1,7.883167267E-2,4.637279510E-1,-1.462594151E0
3.503786662E1,-2.666958332E0,4.856443405E-2,1.939865828E0
3.553786662E1,6.165261269E-1,2.715517044E0,-6.494011879E-1
3.603786662E1,-2.773480177E0,-5.803837776E-1,7.738429308E-1
3.653786662E1,2.376438618E0,3.397724628E0,7.200832367E-1
3.703786662E1,-1.624414682E0,-1.138238907E0,-2.763806581E-1
3.753786662E1,2.361875057E0,2.991076946E0,-2.265988827E0
3.803786662E1,-2.400302887E0,-9.607620239E-1,-2.641561031E-1
3.853786662E1,1.623017311E0,3.095987320E0,-1.040340066E0
3.903786662E1,-1.919216633E0,-2.590136528E-1,3.385729790E0
3.953786662E1,8.374924660E-1,1.172426701E0,3.144302368E-1
4.003786662E1,-3.017396927E0,-3.433589935E-1,1.624692917E0
4.053786662E1,2.528332233E0,9.443011284E-1,1.869646549E0
4.103786662E1,-1.845379829E0,-1.749372482E-2,1.032179594E0
4.153786662E1,1.844027996E0,-1.392924309E0,1.761539459E0
4.203786662E1,-2.765201569E0,-6.551909447E-1,1.850426197E0
4.253786662E1,1.768199444E0,-2.341931343E0,2.557894468E0
4.303786662E1,-3.300815105E0,-1.767504215E0,6.226609945E-1
4.353786662E1,4.309802055E0,-1.170613289E0,1.765607119E0
4.403786662E1,-2.312865496E0,-1.188755989E0,9.099277854E-1
4.453786662E1,2.638066292E0,-1.596478462E0,2.165109873E0
4.503786662E1,-2.677103519E0,-8.866906166E-1,6.908073425E-1
4.553786662E1,3.031220198E0,-1.107585907E0,1.951017380E0
4.603786662E1,-2.756465197E0,-1.211829185E0,1.775151014E0
4.653786662E1,2.826738834E0,-1.857415199E0,2.094252110E0
4.703786662E1,-2.595223188E0,-5.093612671E-1,9.606006145E-1
4.753786662E1,2.826436520E0,-1.868967056E0,1.407072783E0
4.803786662E1,-8.970041275E-1,3.118295670E-1,1.190691471E0
4.853786662E1,1.664266586E0,-9.293718338E-1,1.227199912E0
4.903786662E1,-1.580837011E0,3.577642441E-1,1.570702076E0
4.953786662E1,1.296849728E0,-2.593518257E0,1.098216295E0
5.003786662E1,-1.035487413E0,2.540798187E-1,1.435294628E0
5.053786662E1,1.969420910E0,-1.732823372E0,5.801653862E-1
5.103786662E1,-6.662662029E-1,-1.396026611E-1,-3.191753626E-1
5.153786662E1,1.374522686E0,2.857138157E0,-6.099017859E-1
5.203786662E1,-7.553415298E-1,-9.489793777E-1,-4.041781425E-1
5.253786662E1,1.187432528E0,2.310327053E0,-8.038306236E-2
5.303786662E1,-1.014123440E0,-1.493377686E0,-2.307510376E-1
5.353786662E1,1.274127245E0,8.896446228E-1,5.728459358E-2
5.403786662E1,-3.793492317E-1,-1.193861961E0,-1.908695698E-1
5.453786662E1,9.622626305E-1,8.394775391E-1,1.446917057E-1
5.503786662E1,1.344141960E0,-1.828623772E0,-3.091105819E-1
5.553786662E1,1.271971703E0,-8.295469284E-1,1.146633506E0
5.603786662E1,9.708671570E-1,-1.503962517E0,1.555538177E-2
5.653786662E1,1.797525883E0,-2.031752586E0,1.046784163E0
5.703786662E1,1.701130867E-1,-1.241505623E0,-1.014650345E0
5.753786662E1,2.425425529E0,-2.249513626E0,-6.536316872E-2
5.803786662E1,7.767248154E-2,-1.345373154E0,-1.193451166E0
5.853786662E1,3.138842583E0,-2.070214272E0,3.951253891E-1
5.903786662E1,9.341013432E-1,5.583963394E-1,-9.017682076E-1
5.953786662E1,1.999995708E0,-2.867383003E0,-8.735346794E-2
6.003786662E1,8.546555042E-1,2.279850006E0,-1.425368547E0
6.053786662E1,7.464466095E-1,-2.670365810E0,4.345968962E-1
6.103786662E1,2.469952106E0,3.146761894E0,-1.753744960E0
6.153786662E1,-5.332088470E-1,-7.914552689E-1,2.767201900E0
6.203786662E1,1.682690859E0,3.026607037E0,-1.943245292E0
6.253786662E1,-7.368540764E-1,-2.143154144E-1,2.549973011E0
6.303786662E1,1.449679613E0,2.734380245E0,-5.111924410E-1
6.353786662E1,-4.960341454E-1,-2.619137764E-1,2.278985500E0
6.403786662E1,5.099277496E-1,-3.602495193E-1,-2.970274687E-1
6.453786662E1,-1.465170383E0,-8.556041718E-1,2.963710308E0
6.503786662E1,9.916710854E-1,4.248714447E-1,-4.691708088E-1
6.553786662E1,-1.687232494E0,-1.180777550E0,2.477018118E0
6.603786662E1,1.057097435E0,3.463811874E-1,-1.606593132E-1
6.653786662E1,-1.459423542E0,-7.151389122E-1,3.402418375E0
6.703786662E1,1.019510269E0,1.536497593E0,-1.744250774E0
6.753786662E1,-1.958555937E0,2.073812485E-2,2.868936062E0
6.803786662E1,1.271271467E0,2.665084839E0,-1.418733120E0
6.853786662E1,-2.319384336E0,-1.476472855E0,2.082037926E0
6.903786662E1,3.424868107E0,2.784602165E0,-9.247305393E-1
6.953786662E1,-1.588891506E0,-1.738825321E0,1.845998883E0
7.003786662E1,2.324288607E0,2.480055332E0,-5.859925747E-1
7.053786662E1,-1.496374607E0,-1.570327759E0,8.885940313E-1
7.103786662E1,1.368520021E0,2.044260502E0,-1.273132086E0
7.153786662E1,-4.519710541E-1,-1.043315887E0,5.362536907E-1
7.203786662E1,7.259857655E-1,2.418588161E0,1.347463131E-1
7.253786662E1,-5.374598503E-1,-1.709903717E0,3.778573275E-1
7.303786662E1,4.331693649E-1,1.934577942E0,-3.734153509E-1
7.353786662E1,-5.111737251E-1,-1.292811394E0,-4.708247185E-1
7.403786662E1,3.491642475E-1,2.043944359E0,1.463479996E-1
7.453786662E1,-9.492897987E-1,-1.953864098E0,-4.415291548E-1
7.503786662E1,2.285625696E0,3.240871429E-2,1.198030949E0
7.553786662E1,-1.466585636E0,-2.524100780E0,8.676540852E-1
7.603786662E1,1.976077557E0,-7.189598083E-1,6.817831993E-1
7.653786662E1,-2.301954031E0,-3.505663872E-1,2.011995077E0
7.703786662E1,1.556990385E0,-1.423132896E0,1.602177382E0
7.753786662E1,-2.252919674E0,5.859270096E-1,1.809014440E0
7.803786662E1,7.493653297E-1,-1.292205811E0,2.727571487E0
7.853786662E1,-3.334786415E0,8.983078003E-1,2.495148182E0
7.903786662E1,5.260810852E-1,-1.094611168E0,1.255007625E0
7.953786662E1,-3.101999998E0,-5.163402557E-1,2.648505449E0
8.003786662E1,1.212088108E0,-3.751630783E-1,1.614685774E0
8.053786662E1,-3.387620211E0,-1.152054787E0,1.849530697E0
8.103786662E1,1.687321901E0,-1.147594452E-1,-3.892564774E-1
8.153786662E1,-2.878126621E0,-2.314158916E0,2.005472183E0
8.203786662E1,1.734387159E0,1.757575989E0,-3.922181726E-1
8.253786662E1,-2.813281059E0,-1.860985279E0,1.779244423E0
8.303786662E1,1.783174276E0,1.497981548E0,5.356972218E-1
8.353786662E1,-1.562799931E0,-1.664204597E0,1.603981495E0
8.403786662E1,7.891075611E-1,1.690977573E0,-7.689206600E-1
8.453786662E1,-6.465148926E-2,-8.693289757E-1,6.995964050E-1
8.503786662E1,1.577349186E0,1.475952625E0,-1.476927996E0
8.553786662E1,4.712653160E-1,-1.368347645E0,5.943448544E-1
8.603786662E1,1.584253311E0,1.139229774E0,9.239172935E-2
8.653786662E1,2.543859482E0,-8.947057724E-1,-1.265552044E-1
8.703786662E1,-7.197999954E-1,-1.559651852E0,-5.237351656E-1
8.753786662E1,1.591220617E0,1.183336258E0,-1.734856367E-1
8.803786662E1,-1.741780281E0,-1.250184059E0,-2.679936886E-1
8.853786662E1,7.255997658E-1,1.512058735E0,9.827566147E-2
8.903786662E1,-1.328458786E0,-3.391251564E-1,7.272232771E-1
8.953786662E1,7.165479660E-2,9.818773270E-1,-2.008440733E0
9.003786662E1,4.341667175E0,3.511047363E-1,2.225153923E0
9.053786662E1,-1.121092558E0,-1.714636803E0,-1.136047602E0
9.103786662E1,2.657395840E0,-1.302421570E0,6.515643597E-1
9.153786662E1,-1.104197502E-1,-2.094974518E-1,-1.629209518E0
9.203786662E1,1.595649719E0,-8.026676178E-1,3.413522243E-1
9.253786662E1,3.694057465E-2,-4.587650299E-2,-1.720549583E0
9.303786662E1,1.371796608E0,-4.943437576E-1,2.836039066E-1
9.353786662E1,-3.366971016E-1,3.281126022E-1,-2.586133480E-1
9.403786662E1,2.415981293E-1,-8.506231308E-1,7.053775787E-1
9.453786662E1,1.142156124E0,1.139065266E0,-1.104467869E0
9.503786662E1,1.378291607E0,-1.032061577E0,-9.602136612E-1
9.553786662E1,4.784097672E-1,1.264397144E0,-1.202310801E0
9.603786662E1,3.815355301E-1,-2.311714649E0,-2.420752048E-1
9.653786662E1,1.178804398E0,2.483501434E-1,-6.434085369E-1
9.703786662E1,6.811351776E-1,-1.426978111E0,-1.085757017E0
9.753786662E1,9.060816765E-1,7.935419083E-1,-8.763074875E-1
9.803786662E1,1.580673695E0,-1.523317337E0,-2.783665657E-1
9.853786662E1,-2.807803154E-1,9.000544548E-1,-1.466214657E0
9.903786662E1,1.177754879E0,-1.473391533E0,-1.008335352E0
9.953786662E1,6.346025467E-1,-6.781210899E-1,-1.426384568E0
1.000378666E2,1.024615765E0,-9.083633423E-1,6.615607738E-1
1.005378666E2,-1.027641296E-1,-8.904757500E-1,-9.422917366E-1
1.010378666E2,1.641587973E0,6.608991623E-1,2.173025608E-1
1.015378666E2,-2.123300076E0,-3.470897675E-1,1.737509012E0
1.020378666E2,2.715537071E0,2.911005020E-1,1.198172569E-1
1.025378666E2,-1.815913200E0,-5.895390511E-1,2.877826214E0
1.030378666E2,6.660523415E-1,6.858100891E-1,-2.362585068E-1
1.035378666E2,1.272203207E0,2.678448677E0,2.328891993E0
1.040378666E2,-5.430035591E-1,1.183605194E-2,6.140881777E-1
1.045378666E2,-2.090706587E0,3.879232407E-1,3.215346336E0
1.050378666E2,7.238225937E-1,4.522762299E-1,2.714674473E-1
1.055378666E2,-2.186445713E0,-3.900623322E-2,2.419456244E0
1.060378666E2,1.021117926E0,1.135182381E0,-4.422280788E-1
1.065378666E2,-1.466986179E0,-8.020043373E-1,2.133790731E0
1.070378666E2,2.340402603E-1,1.769910812E0,1.243131161E-1
1.075378666E2,-8.894290924E-1,-3.959331512E-1,8.633577824E-1
1.080378666E2,-5.760428905E-1,1.748629570E0,-1.584314346E0
1.085378666E2,2.936043739E-1,-3.195290565E-1,7.975332737E-1
1.090378666E2,8.819775581E-1,2.127432346E0,-1.727667570E0
1.095378666E2,5.193762779E-1,-1.116072178E0,9.734938145E-1
1.100378666E2,3.400650024E-1,2.204956532E0,-1.573837757E0
1.105378666E2,1.156698704E0,-1.398481846E0,9.407793283E-1
1.110378666E2,1.528015375E0,2.236472607E0,-9.512495995E-1
1.115378666E2,1.485322952E0,-1.231420517E0,1.263301373E-1
1.120378666E2,9.171438217E-1,-6.943588257E-1,-1.810835600E-1
1.125378666E2,2.034742832E0,-1.366220474E0,2.966467142E-1
1.130378666E2,2.916398048E-1,-2.062870979E0,-1.700651646E-1
1.135378666E2,1.180058479E0,-6.471252441E-2,5.963833928E-1
1.140378666E2,-1.857834816E0,-9.207448959E-1,1.581805587E0
1.145378666E2,6.219646931E-1,8.943262100E-1,3.187123537E-1
1.150378666E2,-1.425012112E0,-2.213068008E0,1.723344922E0
1.155378666E2,1.825422287E0,4.854764938E-1,-1.186464429E0
1.160378666E2,6.235399246E-1,2.011241913E-1,-7.674535513E-1
1.165378666E2,-2.563099861E-1,2.780914307E-3,1.015119553E-1
1.170378666E2,-2.309517860E-1,9.860606194E-1,-8.382614851E-1
1.175378666E2,5.003805161E-1,-1.574391842E0,8.635582924E-1
1.180378666E2,-1.612114191E0,-5.136108398E-2,4.840809107E-1
1.185378666E2,-4.667129517E-1,4.933958054E-1,-2.185328007E-1
1.190378666E2,-1.817278147E0,-6.642723083E-1,1.215579391E0
1.195378666E2,6.792926788E-2,-7.197604179E-1,-2.451181412E-2
1.200378666E2,-1.086611271E0,-1.354284286E-1,-4.288271666E-1
1.205378666E2,6.761646271E-1,-3.688259125E-1,3.421099186E-1
1.210378666E2,-9.052896500E-2,6.793498993E-2,1.512031198E0
1.215378666E2,-4.449701309E-2,3.354516029E-1,5.314487219E-1
1.220378666E2,3.377180099E-1,3.428778648E-1,-2.355422974E-1
1.225378666E2,-7.126250267E-1,-3.276772499E-1,-7.390856743E-1
1.230378666E2,2.204813957E-1,2.535967827E-1,7.477665544E-1
1.235378666E2,1.299017906E0,2.446241379E-1,1.727428436E-1
1.240378666E2,-1.232160568E0,-5.472145081E-1,2.965440750E-1
1.245378666E2,1.264455318E0,1.063712597E0,-1.038071275E0
1.250378666E2,-8.929357529E-1,-1.359972954E0,-4.256728888E-1
1.255378666E2,1.953522205E0,4.757490158E-1,2.107028961E-1
1.260378666E2,-1.432661533E0,-5.337376595E-1,7.481873035E-2
1.265378666E2,1.387970924E0,1.007967949E0,-1.057638645E0
1.270378666E2,-1.138953686E0,-1.291526318E0,1.015032530E-1
1.275378666E2,7.281827927E-1,5.659999847E-1,5.612094402E-1
1.280378666E2,-1.041288853E0,-5.170679092E-1,3.166891932E-1
1.285378666E2,4.123034477E-1,2.923774719E-1,-1.606620789E0
1.290378666E2,-7.521233559E-1,-3.116760254E-1,-5.708945990E-1
1.295378666E2,1.058343410E0,5.451145172E-1,-7.232624292E-1
1.300378666E2,-4.218659401E-1,2.590227127E-1,4.171704054E-1
1.305378666E2,7.013320923E-1,-1.296230316E0,-3.562681675E-1
1.310378666E2,2.020835638E0,-2.441825867E-1,-9.884030819E-1
1.315378666E2,-9.841852188E-1,-2.028999329E-1,2.134731531E0
1.320378666E2,-1.720564365E-1,1.042249680E0,-4.271775484E-1
1.325378666E2,-4.513034821E-1,3.986835480E-2,5.261751413E-1
1.330378666E2,-5.553917885E-1,2.159499645E0,-9.677660465E-1
1.335378666E2,8.835110664E-1,-2.542457581E-1,6.815654039E-1
1.340378666E2,6.122002602E-1,2.541860580E0,-1.599430919E0
1.345378666E2,9.438838959E-1,-7.519154549E-1,-2.074408531E-1
1.350378666E2,-2.797837257E-1,1.923773289E0,-1.940981984E0
1.355378666E2,1.254958630E0,-2.766098976E-1,9.195064306E-1
1.360378666E2,-2.841658592E-1,2.612923622E0,-2.216025352E0
1.365378666E2,9.584784508E-1,-9.777693748E-1,-9.111833572E-2
1.370378666E2,8.969559669E-1,2.388636589E0,-1.132345676E0
1.375378666E2,1.738597870E0,-7.520408630E-1,3.390626907E-1
1.380378666E2,4.993724823E-1,2.189515114E0,-1.472224474E0
1.385378666E2,1.269456387E0,-4.956636429E-1,7.380923033E-1
1.390378666E2,1.179427862E0,2.222313404E0,-1.886460781E0
1.395378666E2,1.546917439E0,-1.421539783E0,2.626264095E-1
1.400378666E2,-7.157115936E-1,-1.442291260E0,-4.284178019E-1
1.405378666E2,8.707661629E-1,-8.136954308E-1,1.206667185E0
1.410378666E2,-5.941538811E-1,-1.564351082E0,-7.669321299E-1
1.415378666E2,1.096948624E0,-4.002046585E-1,8.477380276E-1
1.420378666E2,-6.655101776E-1,-1.627354622E0,-9.728794098E-1
1.425378666E2,1.619955063E0,-7.469415665E-2,1.241621971E-1
1.430378666E2,-9.455013275E-1,-2.215112686E0,-5.118082166E-1
1.435378666E2,1.746118546E0,-4.543247223E-1,1.182415843E0
1.440378666E2,-6.370029449E-1,-1.529377937E0,-2.916927338E-1
1.445378666E2,8.909363747E-1,-7.797431946E-1,6.344790459E-1
1.450378666E2,-2.985291481E-1,-1.012168884E0,-7.172025442E-1
1.455378666E2,1.524012089E0,-7.915210724E-1,-4.698293209E-1
1.460378666E2,-4.217019081E-1,1.046714783E-1,2.339903593E0
1.465378666E2,-3.460128307E-1,1.017870426E0,4.954398870E-1
1.470378666E2,5.896878242E-1,2.221970558E-1,7.117338181E-1
1.475378666E2,-4.955925941E-1,4.776020050E-1,-8.375642300E-1
1.480378666E2,1.915717602E0,8.917665482E-1,-1.077147245E0
1.485378666E2,-3.113918304E-1,-1.028213501E-1,4.640482664E-1
1.490378666E2,2.589311600E-1,1.005539894E0,-6.874762774E-1
1.495378666E2,-9.842457771E-1,-6.400632858E-1,8.861410618E-1
1.500378666E2,2.044186592E-1,-3.910703659E-1,-2.799253464E-1
1.505378666E2,9.200944901E-1,-7.522802353E-1,-5.516958237E-2
1.510378666E2,4.045820236E-2,2.297244072E-1,8.127804995E-1
1.515378666E2,9.928021431E-1,1.119571209E0,-1.089500785E0
1.520378666E2,-1.640819550E0,-7.848644257E-1,1.552430630E0
1.525378666E2,-6.076140404E-1,5.408949852E-1,-1.702047825E0
1.530378666E2,-1.924032688E0,-3.528375626E-1,6.008096933E-1
1.535378666E2,5.340428352E-1,-7.931165695E-1,-8.407762051E-1
1.540378666E2,-8.508024216E-1,6.201753616E-1,7.606020570E-1
1.545378666E2,7.340331078E-1,1.369889736E0,-6.012748480E-1
1.550378666E2,-1.804036379E0,1.868629456E-2,1.980769396E0
1.555378666E2,7.882170677E-1,8.067898750E-1,-1.212422609E0
1.560378666E2,-1.063130379E0,1.671695709E-2,1.795961976E0
1.565378666E2,9.164743423E-1,-2.076969147E-1,-7.842476368E-1
1.570378666E2,-9.786529541E-1,-1.645088196E-3,9.807941914E-1
1.575378666E2,6.001029015E-1,2.763748169E-3,-4.432641268E-1
1.580378666E2,-2.098975182E-1,-2.729845047E-1,1.206418157E0
1.585378666E2,-3.769121170E-1,-1.154477119E0,-7.559741735E-1
1.590378666E2,-2.725939751E-1,-7.435646057E-1,8.661175370E-1
1.595378666E2,-7.568945885E-1,-1.660094261E0,-1.060673952E0
1.600378666E2,1.272748947E0,-4.447212219E-1,1.582455635E-1
1.605378666E2,-8.920023441E-1,-1.685507774E0,3.084005713E-1
1.610378666E2,1.889593124E0,-1.115764141E0,6.893503666E-1
1.615378666E2,-6.370120049E-1,-2.114361286E0,4.843901992E-1
1.620378666E2,3.287993431E0,-3.382081985E-1,1.423039436E-1
1.625378666E2,-1.200972080E0,-1.873789787E0,-4.237951040E-1
1.630378666E2,1.996934891E0,-1.186147213E0,2.966418266E-1
1.635378666E2,-1.448652506E0,-1.657097816E0,-1.622080684E0
1.640378666E2,2.543294430E0,-2.703288078E0,8.261216879E-1
1.645378666E2,-1.699415445E0,-6.718215942E-1,7.742273808E-2
1.650378666E2,7.190353870E-1,2.149017811E0,4.069300890E-1
1.655378666E2,-1.374457359E0,-8.398733139E-1,6.764696240E-1
1.660378666E2,1.038915873E0,2.846800327E0,-7.886312008E-1
1.665378666E2,-1.987681627E0,-2.175159454E-1,7.935097218E-1
1.670378666E2,1.624321938E0,2.678016186E0,-1.159114957E0
1.675378666E2,-1.136471272E0,-1.596870422E-1,1.620960593E0
1.680378666E2,7.367446423E-1,2.253551006E0,-1.500240445E0
1.685378666E2,-1.501684904E0,3.089966774E-1,2.107185364E0
1.690378666E2,3.324780464E-1,1.727285862E0,-1.887226820E0
1.695378666E2,-2.142476797E0,5.000195503E-1,1.848474979E0
1.700378666E2,9.981951714E-1,1.599828720E0,-1.240436792E0
1.705378666E2,-2.445885658E0,-5.228233337E-1,1.796701193E0
1.710378666E2,1.303549767E0,1.667846680E0,-1.231591940E0
1.715378666E2,-3.040793419E0,-1.463729858E0,1.795308590E0
1.720378666E2,2.012462616E0,7.246127129E-1,-1.044507265E0
1.725378666E2,-1.964849472E0,-8.421096802E-1,9.434962273E-1
1.730378666E2,9.731025696E-1,3.910856247E-1,-1.011181116E0
1.735378666E2,-1.591864586E0,-1.279654503E0,1.610980272E0
1.740378666E2,5.921292305E-1,-1.240396500E-1,-1.171886444E0
1.745378666E2,-7.089233398E-2,-6.361303329E-1,5.150885582E-1
1.750378666E2,-5.155925751E-1,-8.478822708E-1,-5.021312237E-1
1.755378666E2,5.830726624E-1,-9.371695518E-1,2.993435860E-1
1.760378666E2,-6.126694679E-1,-8.959493637E-1,-1.974725962E0
1.765378666E2,1.324219227E0,-9.494786263E-1,1.438215137E0
1.770378666E2,-1.027546883E0,-1.843700886E0,-8.145836592E-1
1.775378666E2,1.477381468E0,-8.590221405E-2,5.361453295E-1
1.780378666E2,-1.102774143E0,-1.567432404E0,-6.761405468E-1
1.785378666E2,1.699211597E0,1.045510292E0,-2.788906097E-1
1.790378666E2,-1.588646889E0,-1.777735710E0,-8.112193942E-1
1.795378666E2,1.512155294E0,1.258414745E0,6.099048853E-1
1.800378666E2,-8.900542259E-1,-1.231390953E0,-3.971055746E-1
1.805378666E2,1.799782276E0,1.447720528E0,-1.466190815E-1
1.810378666E2,-1.257400036E0,-1.283720016E0,-2.109260559E-1
1.815378666E2,9.511394501E-1,1.568991661E0,9.065243006E-1
1.820378666E2,-1.410125732E0,-1.522589684E0,-6.142318249E-1
1.825378666E2,9.393115044E-1,2.095716476E0,-1.124929786E0
1.830378666E2,-1.024245262E0,-3.987407684E-2,-5.644112229E-1
1.835378666E2,6.513481140E-1,2.356515408E0,4.750717878E-1
1.840378666E2,-2.056197882E0,-1.114541054E0,9.558342695E-1
1.845378666E2,2.116083384E0,2.570239544E0,-1.052276015E0
1.850378666E2,-2.651956797E0,-9.447107315E-1,1.444997787E0
1.855378666E2,2.115213394E0,2.703865528E0,-9.689214230E-1
1.860378666E2,-3.224257708E0,-9.471936226E-1,1.354833245E0
1.865378666E2,2.932540417E0,2.299406528E0,-8.032655716E-1
1.870378666E2,-3.452761889E0,-1.746274471E0,1.787598848E0
1.875378666E2,2.634331465E0,1.924747467E0,-1.071183681E0
1.880378666E2,-2.938575268E0,-1.501454830E0,6.811311245E-1
1.885378666E2,9.218554497E-1,9.400954247E-1,-9.504888058E-1
1.890378666E2,-1.869058609E0,-1.483769894E0,1.000416636E0
1.895378666E2,9.006433487E-1,-4.662179947E-1,-6.262745857E-1
1.900378666E2,2.447568417E0,-1.355861664E0,1.811119914E0
1.905378666E2,-5.840015411E-1,-1.167814255E0,-1.200940371E0
1.910378666E2,2.279531479E0,-4.705772400E-1,9.913010597E-1
1.915378666E2,-1.005538940E0,-1.203158379E0,-1.162864923E0
1.920378666E2,2.026502371E0,7.885122299E-1,3.786740303E-1
1.925378666E2,-1.593710661E0,-1.683669090E0,-2.534608841E-1
1.930378666E2,2.629406452E0,1.472188950E0,3.198653460E-1
1.935378666E2,-1.707505226E0,-4.659996033E-1,-5.073258877E-1
1.940378666E2,1.880666256E0,2.367908001E0,1.064642668E-1
1.945378666E2,-2.619664907E0,-7.098140717E-1,6.951111555E-1
1.950378666E2,2.712565184E0,2.878715515E0,-7.182762623E-1
1.955378666E2,-2.750278473E0,-1.293549538E0,1.156731486E0
1.960378666E2,2.620397806E0,3.153436184E0,-1.260956287E0
1.965378666E2,-3.149379969E0,-1.209429741E0,9.064605236E-1
1.970378666E2,5.015756607E0,1.753690720E0,-5.002812147E-1
1.975378666E2,-3.452834129E0,-2.969570160E-1,3.769977689E-1
1.980378666E2,3.256301165E0,2.998816967E0,-1.354958296E0
1.985378666E2,-2.841722727E0,-2.181682587E-1,1.340883374E0
1.990378666E2,3.215027571E0,2.587007999E0,-1.807266831E0
1.995378666E2,-3.076092005E0,-9.089751244E-1,1.683558226E0
2.000378666E2,3.416659832E0,2.247454643E0,-7.047988176E-1
2.005378666E2,-4.003846169E0,-2.341530323E0,1.466261744E0
2.010378666E2,3.782245874E0,1.737971306E0,-6.124079227E-2
2.015378666E2,-3.898190498E0,-3.685856342E0,1.521070838E0
2.020378666E2,3.005971432E0,9.531059265E-1,4.737949371E-2
2.025378666E2,2.849372864E0,-1.107464790E0,1.219654679E-1
2.030378666E2,2.402443409E0,6.595306396E-1,6.556129456E-2
2.035378666E2,1.833439350E0,-1.570250511E0,1.367027760E0
2.040378666E2,2.796836376E0,1.985168457E-2,3.152462244E-1
2.045378666E2,1.977914333E0,-1.428540230E0,7.940887213E-1
2.050378666E2,1.909737349E0,-6.840991974E-1,-3.946793079E-2
2.055378666E2,1.345992088E0,-1.458047867E0,1.205231428E0
2.060378666E2,1.280928135E0,-1.244318008E0,4.415049553E-1
2.065378666E2,2.142447948E0,-1.385113716E0,1.437699318E0
2.070378666E2,2.183301449E-1,-4.391250610E-1,-7.698015571E-1
2.075378666E2,1.056375504E0,6.403160095E-2,4.064098001E-1
2.080378666E2,1.386847496E-1,-9.472169876E-1,-9.349430799E-1
2.085378666E2,1.256334305E0,2.322053909E-1,-3.279246390E-1
2.090378666E2,-3.333854675E-1,-1.066114426E0,1.084926128E-1
2.095378666E2,1.160815239E0,5.836677551E-1,-6.965495348E-1
2.100378666E2,-4.203028679E-1,-7.000436783E-1,-1.719578028E0
2.105378666E2,1.719894409E0,1.448475838E0,2.320685387E-1
2.110378666E2,-9.563925266E-1,-6.491365433E-1,-5.617851019E-2
2.115378666E2,2.161028862E0,2.253517628E0,-1.477563381E-1
2.120378666E2,-1.910885811E0,-5.937032700E-1,-5.487564802E-1
2.125378666E2,2.173683882E0,2.539700985E0,-7.046782374E-1
2.130378666E2,-1.288948536E0,-7.321786880E-1,5.466085672E-1
2.135378666E2,1.988897324E0,3.112476826E0,-1.042508721E0
2.140378666E2,-2.287581682E0,-6.473951340E-1,5.225707293E-1
2.145378666E2,1.364066362E0,2.711147308E0,-3.709716797E-1
2.150378666E2,-2.129066944E0,-1.046521187E0,1.307187080E0
2.155378666E2,1.374028683E0,2.211204052E0,5.611282587E-1
2.160378666E2,1.828999519E0,1.805865765E0,2.721073151E0
2.165378666E2,-2.636237144E-1,1.346781731E0,-2.790236771E-1
2.170378666E2,-1.719686747E0,6.188449860E-1,2.669970512E0
2.175378666E2,-3.120584488E-1,1.007015228E0,3.094485700E-1
2.180378666E2,-1.294655800E0,-7.134099007E-1,1.887247682E0
2.185378666E2,1.153125525E0,2.119688988E0,-7.475885749E-1
2.190378666E2,6.728649139E-3,-6.449756622E-1,8.348608613E-1
2.195378666E2,1.495037079E0,1.678081989E0,-8.818917274E-1
2.200378666E2,1.293554306E0,-8.482961655E-1,1.150965095E0
2.205378666E2,3.483729362E-1,-3.273534775E-1,-1.347707272E0
2.210378666E2,2.812493801E0,-1.153802872E0,8.229100704E-1
2.215378666E2,9.313750267E-1,-1.201028824E0,-9.851096869E-1
2.220378666E2,7.661712170E-1,1.538195133E0,7.177667022E-1
2.225378666E2,-1.331352711E0,-8.143997192E-2,5.175244212E-1
2.230378666E2,1.694919109E0,2.302571297E0,-1.478761435E-1
2.235378666E2,-1.432409048E0,7.877650261E-1,1.782955527E0
2.240378666E2,1.710226059E0,2.220902443E0,-2.579086781E0
2.245378666E2,-1.856360912E0,-8.613109589E-3,2.177239895E0
2.250378666E2,4.069876671E-1,9.900565147E-1,-1.092723489E0
2.255378666E2,-2.340311050E0,-1.181193352E0,1.771116495E0
2.260378666E2,5.379891396E-1,8.184618950E-1,-6.395349503E-1
2.265378666E2,-7.398223877E-2,2.354497910E-1,2.994362831E0
2.270378666E2,3.690085411E-1,-8.044052124E-2,-7.506022453E-1
2.275378666E2,5.925312042E-1,-9.211153984E-1,1.107739925E0
2.280378666E2,5.535573959E-1,-1.271320343E0,-2.605962753E-2
2.285378666E2,1.032039642E0,-8.838729858E-1,8.523935080E-1
2.290378666E2,5.072321892E-1,-1.085846901E0,1.228760481E-1
2.295378666E2,7.231354713E-1,-3.576421738E-1,1.017307520E0
2.300378666E2,-7.818074226E-1,-1.558333397E0,-6.280785799E-2
2.305378666E2,1.838837862E0,2.332143784E-1,7.618308067E-2
2.310378666E2,-7.004261017E-1,-1.617909431E0,-4.550744295E-1
2.315378666E2,1.216852427E0,1.338547230E0,6.155502796E-2
2.320378666E2,-1.019726992E0,-1.760098457E0,3.520159721E-1
2.325378666E2,7.599020004E-2,1.040675640E0,-1.127114773E0
2.330378666E2,2.698771954E-1,-4.889888763E-1,4.164020419E-1
2.335378666E2,-5.805194378E-1,1.222093582E0,1.136171818E-2
2.340378666E2,-9.708499908E-2,-6.377439499E-1,5.578633547E-1
2.345378666E2,-5.394685268E-1,1.478248119E0,-1.228592277E0
2.350378666E2,-1.721655846E0,-7.591876984E-1,1.447424293E-1
2.355378666E2,-1.723415852E-1,2.365984917E0,-8.402050734E-1
2.360378666E2,-1.407497168E0,-2.752876282E-2,3.619745970E-1
2.365378666E2,2.129290342E0,3.108275890E0,-4.910979271E-1
2.370378666E2,-1.585859537E0,-8.702487946E-1,2.497876883E0
2.375378666E2,2.282875061E0,2.942243576E0,-1.913293123E0
2.380378666E2,-2.360165834E0,9.297466278E-2,8.604141474E-1
2.385378666E2,3.041537285E0,2.707969189E0,-1.395935535E0
2.390378666E2,-2.770726919E0,-1.046638012E0,1.847449780E0
2.395378666E2,2.027174234E0,2.564265728E0,-2.262920380E0
2.400378666E2,-2.329933167E0,-1.465204239E0,1.498828888E0
2.405378666E2,2.111620426E0,2.408386230E0,-1.966591835E0
2.410378666E2,7.581806183E-2,-1.814290047E0,1.000555396E0
2.415378666E2,1.986352682E0,3.338253021E0,-1.564190745E0
2.420378666E2,-5.719113350E-1,-3.816535473E0,4.256496429E-1
2.425378666E2,4.600588322E0,1.986416340E0,-9.081156254E-1
2.430378666E2,5.828504562E-1,-1.266294003E0,8.330110312E-1
2.435378666E2,1.881139278E0,1.293015957E0,-5.059034824E-1
2.440378666E2,1.347939014E0,-1.115700722E0,8.556995392E-1
2.445378666E2,1.652181149E0,-6.968660355E-1,9.140682220E-2
2.450378666E2,2.126665115E0,-2.038976192E0,1.018627286E0
2.455378666E2,1.233067989E0,-1.222448349E-1,-5.429021120E-1
2.460378666E2,2.260362148E0,-2.104123116E0,1.829429030E0
2.465378666E2,8.280982971E-1,-7.329082489E-2,-7.572674751E-1
2.470378666E2,2.032753944E0,-1.993473053E0,1.442449689E0
2.475378666E2,8.451402187E-1,-3.914737701E-2,-8.078297377E-1
2.480378666E2,2.870841026E0,-2.252097130E0,1.790018559E0
2.485378666E2,5.735650063E-1,-2.662944794E-2,-7.181316614E-1
2.490378666E2,2.518242836E0,-1.108583450E0,1.229317307E0
2.495378666E2,1.398013592E0,-4.145288467E-1,3.174567223E-2
2.500378666E2,2.642899036E0,-1.535454750E0,1.962850332E0
2.505378666E2,6.819453239E-1,-5.089874268E-1,4.684925079E-3
2.510378666E2,2.592194080E0,-4.580774307E-1,1.300430894E0
2.515378666E2,-1.117789268E0,-1.083937645E0,-1.005738378E0
2.520378666E2,1.963078499E0,1.385334492E0,1.333639622E0
2.525378666E2,-1.333867550E0,-1.093909264E0,-3.909895420E-1
2.530378666E2,1.732258320E0,2.214193821E0,-6.473104358E-1
2.535378666E2,-1.618863583E0,2.238559723E-1,2.424516231E-1
2.540378666E2,-1.835733175E0,6.352901459E-1,-4.708755016E-2
2.545378666E2,2.393050671E0,5.714235306E-1,1.045915008E0
2.550378666E2,-6.283755302E-1,1.705272198E0,-1.180631876E0
2.555378666E2,1.781147957E0,-9.469528198E-1,1.537024975E-1
2.560378666E2,1.092187405E0,2.000178814E0,-1.671579242E0
2.565378666E2,2.728560925E0,-1.331396103E-1,6.577746868E-1
2.570378666E2,5.964040756E-1,8.127293587E-1,-6.146324277E-1
2.575378666E2,1.579188347E0,-1.404335022E0,1.408002973E-1
2.580378666E2,1.005574703E0,-1.716499329E-1,-9.897091985E-1
2.585378666E2,2.270782471E0,-1.316267490E0,-1.336240768E-2
2.590378666E2,1.241716385E0,-1.090742111E0,-2.422033548E-1
2.595378666E2,2.068697929E0,-1.128457069E0,1.661021233E0
2.600378666E2,-2.869539261E-1,-1.348728180E0,-3.979406953E-1
2.605378666E2,1.605792999E0,-4.205198288E-1,1.711237431E0
2.610378666E2,-8.259329796E-1,-1.959084511E0,-8.594933748E-1
2.615378666E2,4.895110130E-1,-3.747844696E-2,1.218840957E0
2.620378666E2,-4.469656944E-1,-1.820668221E0,-2.727234364E-1
2.625378666E2,8.253569603E-1,-3.346824646E-2,6.077300310E-1
2.630378666E2,-1.013393164E0,-1.589485168E0,-2.570021152E-1
2.635378666E2,8.171153069E-2,-1.322841644E-2,1.635873318E-2
2.640378666E2,-1.401724577E0,-1.849298477E0,-1.410596371E-1
2.645378666E2,2.140161991E-1,5.503616333E-1,5.967358351E-1
2.650378666E2,-1.171633244E0,-1.628547668E0,-2.904453278E-1
2.655378666E2,8.989789486E-1,1.557773113E0,-2.384656668E-1
2.660378666E2,-1.279335499E0,-1.271083832E0,1.718358278E0
2.665378666E2,-2.585227489E-1,2.341650009E0,-3.446739912E-1
2.670378666E2,-5.030035973E-1,-2.607755661E-1,1.682794929E0
2.675378666E2,1.487646103E-1,2.046549797E0,-2.629175186E-1
2.680378666E2,-4.078726768E-1,-3.583741188E-1,9.466456175E-1
2.685378666E2,1.521229029E0,2.741952419E0,-8.002731800E-1
2.690378666E2,-6.144719124E-1,-6.094226837E-1,1.023912191E0
2.695378666E2,4.192965031E-1,1.878603935E0,-1.072260022E0
2.700378666E2,4.664525986E-1,-7.967848778E-1,2.457339764E-1
2.705378666E2,1.422223568E0,1.365281105E0,-7.076747417E-1
2.710378666E2,2.450859070E0,-7.493896484E-1,3.660082817E-1
2.715378666E2,-4.506559372E-1,-4.815773964E-1,-5.076539516E-1
2.720378666E2,1.252609730E0,-5.185728073E-1,2.484207153E-1
2.725378666E2,2.090334892E-1,-1.199617386E0,-1.064982414E-1
2.730378666E2,7.904424667E-1,1.116957188E0,-1.064506650E0
2.735378666E2,3.566741943E-2,4.877147675E-1,7.393551469E-1
2.740378666E2,-3.270864487E-2,1.069347858E0,-7.204039097E-1
2.745378666E2,-1.027699471E0,-9.137458801E-1,2.052499533E0
2.750378666E2,6.045331955E-1,-1.221159458E0,-2.193943501E0
2.755378666E2,3.101388931E0,-1.994695663E-1,5.984556675E-1
2.760378666E2,-2.249063015E0,-1.674775124E0,-5.017671585E-1
2.765378666E2,3.971991539E0,-7.736740112E-1,8.803987503E-1
2.770378666E2,-1.363526344E0,-1.155959606E0,1.644466877E0
2.775378666E2,7.496371269E-1,6.872496605E-1,-1.098182201E-1
2.780378666E2,-8.950562477E-1,-4.125289917E-1,2.036897659E0
2.785378666E2,5.977048874E-1,3.276991844E-1,-1.672339320E0
2.790378666E2,1.542275906E0,-1.237077713E-1,-1.828262806E-1
2.795378666E2,-8.740043640E-1,-1.613103867E0,-9.724639654E-1
2.800378666E2,2.245616436E0,-1.124722004E0,1.073791027E0
2.805378666E2,-1.147415876E0,3.135099411E-1,3.595750332E-1
2.810378666E2,6.951417923E-1,1.064809799E0,2.082109451E-2
2.815378666E2,-1.259891987E0,-2.686195374E-1,8.259314299E-1
2.820378666E2,-9.426379204E-2,1.073160172E0,9.585940838E-2
2.825378666E2,1.464267254E0,-6.786351204E-1,6.547765732E-1
2.830378666E2,1.549057961E-1,3.485221863E-1,-1.220561743E0
2.835378666E2,1.689186096E-1,-1.004724503E-1,-9.316952229E-1
2.840378666E2,1.430401325E0,-2.585954666E-1,-1.206947565E0
2.845378666E2,2.080678940E-1,1.290496826E0,3.909310102E-1
2.850378666E2,-1.017916679E0,3.021345139E-1,1.933519959E0
2.855378666E2,2.127008438E-1,1.242486000E0,-1.555203676E0
2.860378666E2,-1.643834114E-1,4.672183990E-1,1.394114017E0
2.865378666E2,1.786355972E-1,-9.750151634E-1,-8.658486605E-1
2.870378666E2,1.364044189E0,-7.080078125E-1,2.051854134E-1
2.875378666E2,-9.591999054E-1,-1.717475891E0,-1.054481030E0
2.880378666E2,1.958995819E0,-1.568562508E0,6.621512175E-1
2.885378666E2,-1.473632336E0,-3.856415749E-1,1.814256907E-1
2.890378666E2,1.526016235E0,-1.733653545E0,6.743899584E-1
2.895378666E2,-2.603389025E0,-7.104120255E-1,-1.403210163E-1
2.900378666E2,5.240430832E-1,1.044534206E0,-1.204140186E-1
2.905378666E2,-2.403641939E0,-6.166620255E-1,6.121656895E-1
2.910378666E2,1.340982914E-1,4.804916382E-1,-8.323312402E-1
2.915378666E2,-5.682110786E-1,-2.462806702E-1,-1.427857280E-1
2.920378666E2,-3.302659988E-1,5.520439148E-2,-9.966764450E-1
2.925378666E2,-4.298830032E-1,-2.053985596E-1,-2.409472615E-1
2.930378666E2,-5.149450302E-1,-1.532850266E-1,-7.499563694E-2
2.935378666E2,2.866554260E-2,6.402492523E-2,-1.881813705E-1
2.940378666E2,-6.941318512E-2,-1.033878326E-2,4.241940379E-2
2.945378666E2,-7.888269424E-2,3.427410126E-2,1.445378810E-1
2.950378666E2,2.356576920E-2,1.351928711E-2,-7.460412383E-2
2.955378666E2,6.311893463E-3,-1.572608948E-3,-2.121001482E-2
2.960378666E2,1.453113556E-1,1.517286301E-1,-4.658448696E-2
2.965378666E2,-1.897830963E-1,-9.188461304E-2,-9.147962928E-2
2.970378666E2,4.473018646E-2,-1.414299011E-3,9.447947145E-2
2.975378666E2,-5.915784836E-2,-2.882099152E-2,-4.693543911E-2
2.980378666E2,7.687187195E-2,-4.264831543E-3,-3.352585435E-2
2.985378666E2,-1.073360443E-3,-6.043434143E-3,-5.203321576E-2
2.990378666E2,-4.560422897E-2,-3.896236420E-2,1.453062892E-2
2.995378666E2,-1.785755157E-3,-2.717161179E-2,-3.343397379E-2
3.000378666E2,1.024389267E-2,6.111049652E-2,4.925054312E-2
3.005378666E2,-6.281089783E-2,-1.645274162E-1,-1.013061404E-1
3.010378666E2,-1.098394394E-1,1.534843445E-2,3.762769699E-2
3.015378666E2,-1.415052414E-1,-2.641010284E-2,-6.466901302E-2
3.020378666E2,3.376722336E-2,2.175331116E-3,4.891884327E-2
3.025378666E2,7.881641388E-3,-4.680633545E-3,-4.957884550E-2
3.030378666E2,2.378940582E-2,1.889228821E-2,-7.156795263E-2
3.035378666E2,4.443120956E-2,7.605552673E-3,-1.116591692E-2
3.040378666E2,1.639428139E-1,1.036729813E-1,4.874950647E-2
3.045378666E2,-2.601847649E-1,-1.213531494E-1,-1.932657957E-1
3.050378666E2,6.276416779E-2,2.712011337E-2,-1.014837027E-1
3.055378666E2,-2.222299576E-2,-1.229286194E-3,4.967772961E-2
3.060378666E2,-2.106332779E-2,-8.822917938E-3,-3.588795662E-2
3.065378666E2,8.119964600E-2,2.870130539E-2,-3.275096416E-2
3.070378666E2,-2.489328384E-2,-1.277122498E-1,-1.441332102E-1
3.075378666E2,5.505228043E-2,1.019268036E-1,5.109071732E-3
3.080378666E2,-9.234237671E-2,-3.509521484E-3,-3.942084312E-2
3.085378666E2,7.429170609E-2,9.317922592E-2,-4.743421078E-2
3.090378666E2,-6.621646881E-2,-8.145523071E-2,1.403653026E-1
3.095378666E2,-4.090833664E-2,1.015210152E-1,-3.611689806E-2
3.100378666E2,-1.593761444E-1,-2.307033539E-2,8.263301849E-2
3.105378666E2,3.007655144E-1,1.552748680E-1,-9.956729412E-2
3.110378666E2,8.770942688E-3,-1.315927505E-2,-6.999099255E-2
3.115378666E2,-1.240711212E-1,-7.932376862E-2,-1.295522451E-1
3.120378666E2,-3.914117813E-2,7.238292694E-2,1.480866075E-1
3.125378666E2,3.023195267E-2,-2.421855927E-3,-1.631231308E-1
3.130378666E2,1.044321060E-2,-5.137443542E-3,4.235297441E-2
3.135378666E2,-2.173471451E-2,2.628517151E-2,-7.833504677E-2
3.140378666E2,-6.838798523E-3,-1.286697388E-2,-2.395552397E-2
3.145378666E2,3.340196609E-2,2.539253235E-2,6.995499134E-3
3.150378666E2,-5.689430237E-2,-1.679420471E-2,-2.084678411E-2
3.155378666E2,4.526853561E-2,-4.083633423E-3,-2.386713028E-2
3.160378666E2,-4.037284851E-2,-4.086017609E-2,1.595205069E-2
3.165378666E2,3.959798813E-2,5.313301086E-2,5.135446787E-2
3.170378666E2,-5.672264099E-2,1.508283615E-2,-1.119339466E-1
3.175378666E2,-2.665042877E-2,7.694721222E-3,4.249447584E-2
3.180378666E2,-4.147386551E-2,-1.219654083E-2,-8.287996054E-2
3.185378666E2,-2.559995651E-2,-1.354503632E-2,-1.181584597E-2
3.190378666E2,4.889345169E-2,1.915283203E-1,-1.109611988E-1
3.195378666E2,-5.687847137E-1,6.900787354E-2,-3.262943029E-1
3.200378666E2,6.655702591E-1,-1.841545105E-2,1.003741741E0
3.205378666E2,-1.386051178E-1,2.472019196E-1,-3.826060295E-1
3.210378666E2,2.064828873E-1,1.557121277E-1,-8.802448511E-1
3.215378666E2,2.181072235E-1,-1.207971573E-1,4.911917448E-1
3.220378666E2,-1.614362240E0,-1.363601685E0,-1.317199945E0
3.225378666E2,3.573604107E0,6.390810013E-1,1.203132391E0
3.230378666E2,1.509975433E0,-7.983207703E-1,3.103952408E-1
3.235378666E2,1.078303814E0,-1.269582748E0,-1.011226177E0
3.240378666E2,6.202139854E-1,1.099075794E0,2.042506933E-1
3.245378666E2,-3.072547913E-2,-1.248252869E0,-1.684889317E0
3.250378666E2,1.731842041E0,4.239435196E-1,1.150418520E0
3.255378666E2,-2.137370586E0,-2.611797810E0,1.560398340E-1
3.260378666E2,2.824969292E-1,1.500619411E0,-2.074545383E0
3.265378666E2,6.064896584E-1,-7.014503479E-1,-5.865910053E-1
3.270378666E2,2.900667191E-1,3.145332336E-1,-1.607438326E0
3.275378666E2,-5.594868660E-1,-2.605219364E0,1.424685836E0
3.280378666E2,4.275207520E-1,8.808012009E-1,3.425859213E-1
3.285378666E2,-4.074382782E-2,-1.406776905E0,5.433732867E-1
3.290378666E2,1.310878754E0,5.085420609E-1,2.690515518E-1
3.295378666E2,-2.807155609E0,-6.612591743E-1,1.661979795E0
3.300378666E2,1.793924809E0,6.489872932E-1,9.755563736E-1
3.305378666E2,-2.728939056E0,-8.167929649E-1,9.897036552E-1
3.310378666E2,2.358248711E0,7.266411781E-1,1.326307893E0
3.315378666E2,-2.971339703E0,-6.539106369E-1,8.437837958E-1
3.320378666E2,2.789286613E0,-2.708644867E-1,9.916902781E-1
3.325378666E2,-2.873110056E0,-4.601707458E-1,-4.490880370E-1
3.330378666E2,3.364160538E0,-8.026723862E-1,8.454860449E-1
3.335378666E2,-1.629475594E0,-7.022852898E-1,-4.010469913E-1
3.340378666E2,3.006301403E0,-1.386907578E0,3.590830564E-1
3.345378666E2,-1.145374298E0,-1.805599213E0,-7.858171463E-1
3.350378666E2,2.194271564E0,-2.199644566E0,-6.791591644E-2
3.355378666E2,-1.746244431E-1,-1.025498390E0,-2.547453642E-1
3.360378666E2,1.051026344E0,-2.172206402E0,5.621672869E-1
3.365378666E2,-2.352418900E-1,-1.495285988E0,-3.098735809E-1
3.370378666E2,-1.036154270E0,-3.784601212E0,1.321169496E0
3.375378666E2,1.931882143E0,-9.422254562E-1,-2.030173540E-1
3.380378666E2,-6.841711998E-1,-4.637858391E0,3.228377104E-1
3.385378666E2,-2.689266205E-2,-1.663627625E0,-4.097635746E-1
3.390378666E2,-8.413281441E-1,-3.099133968E0,-1.128371954E-1
3.395378666E2,-6.781063080E-1,-8.507051468E-1,-4.889661670E-1
3.400378666E2,7.215580940E-1,-1.999708652E0,6.793638468E-1
3.405378666E2,-5.255670547E-1,2.935352325E-1,-1.273816228E-1
3.410378666E2,1.752556324E0,-1.649410248E0,6.228681803E-1
3.415378666E2,-3.141465425E0,-1.276806831E0,1.758578777E0
3.420378666E2,4.301311970E0,2.426500320E0,-2.828317881E0
3.425378666E2,-3.005882263E0,-1.012414455E0,1.016739130E0
3.430378666E2,3.255469799E0,3.429400921E0,-1.808309555E0
3.435378666E2,-3.266812801E0,-1.924478531E0,4.435465038E-1
3.440378666E2,5.413464069E0,3.691485882E0,-2.109679461E0
3.445378666E2,-2.836567640E0,-1.088744164E0,2.138835430E0
3.450378666E2,5.250939846E0,3.639475346E0,-1.608626127E0
3.455378666E2,-3.163790941E0,-1.492292404E0,1.118204117E0
3.460378666E2,5.228617668E0,3.455751896E0,-9.621980190E-1
3.465378666E2,-4.204306126E0,-2.072408676E0,2.035903931E0
3.470378666E2,4.747054100E0,2.829765320E0,-1.737490296E0
3.475378666E2,-2.961111069E0,-1.317173481E0,1.239671469E0
3.480378666E2,2.941751719E0,3.042759418E0,-1.060939670E0
3.485378666E2,-3.637105465E0,-4.161460876E0,1.672803640E0
3.490378666E2,3.747949123E0,1.555845261E0,1.754394770E-1
3.495378666E2,-3.081106663E0,-1.722551823E0,1.761031151E0
3.500378666E2,1.839781046E0,2.514089584E0,-1.071735263E0
3.505378666E2,-3.030937910E0,-6.277303696E-1,1.245062828E0
3.510378666E2,1.575521946E0,1.926338673E0,-1.525197983E0
3.515378666E2,-2.192027092E0,-5.652074814E-1,1.021683216E0
3.520378666E2,1.037435055E0,8.700428009E-1,-1.000320911E-1
3.525378666E2,-3.256752968E0,-2.323238373E0,7.164600492E-1
3.530378666E2,1.323173046E0,1.161926746E0,-4.897369146E-1
3.535378666E2,-2.464789867E0,-8.909478188E-1,1.410073519E0
3.540378666E2,1.484803200E0,4.322772026E-1,-5.481480360E-1
3.545378666E2,2.427722454E0,-1.501066685E0,1.208897948E0
3.550378666E2,-2.622447014E-1,-6.217422485E-1,-1.047003746E0
3.555378666E2,2.929935932E0,7.118296623E-1,-7.575825453E-1
3.560378666E2,9.300541878E-1,-9.777212143E-1,1.160883904E-2
3.565378666E2,1.890925884E0,-4.485678673E-1,2.734326720E-1
3.570378666E2,1.016284943E0,-1.177596092E0,2.731891274E-1
3.575378666E2,1.225402355E0,-4.276657104E-1,5.364168882E-1
3.580378666E2,6.851129532E-1,-8.646221161E-1,5.049014091E-2
3.585378666E2,1.204955101E0,3.273973465E-1,4.804555476E-1
3.590378666E2,4.995894432E-1,-1.593823433E0,-9.207341075E-2
3.595378666E2,3.239965439E-1,4.109516144E-1,1.781375408E-1
3.600378666E2,6.361451149E-1,-1.611103058E0,1.128242612E-1
3.605378666E2,3.955512047E-1,7.668352127E-1,2.195072472E-1
3.610378666E2,1.145072460E0,-5.106363297E-1,-2.370205820E-1
3.615378666E2,1.102938652E0,9.928550720E-1,4.784643650E-1
3.620378666E2,-9.761199951E-1,-1.972194672E0,9.323776364E-1
3.625378666E2,5.876116753E-1,1.844625473E-1,-3.832805157E-2
3.630378666E2,-3.030815125E-1,-2.095800400E0,-9.618905187E-2
3.635378666E2,9.551963806E-1,-3.841590881E-1,7.126395106E-1
3.640378666E2,2.931041718E-1,-1.642269135E0,4.731190801E-1
3.645378666E2,1.988304615E0,-5.305681229E-1,1.988153458E-1
3.650378666E2,-1.433603287E0,-3.124947071E0,-3.271684647E-1
3.655378666E2,2.538775921E0,8.764972687E-1,-2.715163231E-1
3.660378666E2,1.388253212E0,-1.460920334E0,-9.217375517E-2
3.665378666E2,2.444522381E0,-1.962104797E0,3.550755382E-1
3.670378666E2,9.679465294E-1,4.913764000E-1,-7.982103825E-1
3.675378666E2,3.030232430E0,-8.044242859E-1,3.395905495E-1
3.680378666E2,-1.515615463E0,-3.688526154E-1,2.442122996E-1
3.685378666E2,1.977396011E0,-2.383259773E0,-2.881219387E-1
3.690378666E2,-1.220723629E0,-2.689716816E0,1.971282661E-1
3.695378666E2,2.290675163E0,-1.974318027E0,3.765809536E-1
3.700378666E2,5.644583702E-1,-1.574026108E0,1.625607014E-1
3.705378666E2,1.063566685E0,-7.970743179E-1,-4.611284733E-1
3.710378666E2,-1.961331367E-1,-1.706364632E0,-1.661209911E-1
3.715378666E2,1.332197189E-1,-2.091427326E0,3.552123606E-1
3.720378666E2,6.012778282E-1,-2.207568169E0,6.031881571E-1
3.725378666E2,-1.902446747E-1,-2.652890205E0,3.772401810E-2
3.730378666E2,1.571154594E-1,-1.709476948E0,1.165734053E0
3.735378666E2,1.471772194E-1,-1.376887321E0,7.815963030E-1
3.740378666E2,8.640804291E-1,-1.513290405E0,-5.891472101E-2
3.745378666E2,1.714002609E0,-1.216670990E0,1.780939698E0
3.750378666E2,-1.317729950E-1,-1.918883324E0,-1.780554056E-1
3.755378666E2,1.128852367E0,-2.328396797E0,2.287585735E0
3.760378666E2,7.917013168E-1,-6.641530991E-1,-6.337125897E-1
3.765378666E2,6.071166992E-1,-1.603875160E0,1.541705370E0
3.770378666E2,-3.456125259E-1,-1.400655746E0,-5.098983049E-1
3.775378666E2,2.582659721E-1,-8.052682877E-1,9.824154377E-1
3.780378666E2,3.491287231E-1,-1.068478584E0,-2.661079466E-1
3.785378666E2,-5.531888008E-1,-1.974063873E0,7.261089683E-1
3.790378666E2,2.331261635E-1,-1.056437492E0,-5.661553144E-1
3.795378666E2,-1.814875603E-1,-6.180667877E-1,1.548240542E0
3.800378666E2,2.573447227E-1,-8.702688217E-1,-5.205402374E-1
3.805378666E2,2.414247513E0,-1.465923309E0,8.256708384E-1
3.810378666E2,9.143548012E-1,-3.961057663E-1,-3.238170147E-1
3.815378666E2,2.557323933E0,-1.729756355E0,8.113876581E-1
3.820378666E2,1.019020081E0,-4.251108170E-1,-5.860910416E-1
3.825378666E2,2.519574165E0,-1.220639706E0,3.222125769E-1
3.830378666E2,1.759955883E0,4.928922653E-1,-5.773730278E-1
3.835378666E2,2.361689568E0,-1.923906326E0,1.860568523E-1
3.840378666E2,2.372280121E0,1.181630611E0,-7.663078308E-1
3.845378666E2,1.770549297E0,-1.691018105E0,2.745008469E-2
3.850378666E2,9.359340668E-1,2.007459641E0,-1.891438961E0
3.855378666E2,2.138119221E0,-1.044198513E0,5.257277489E-1
3.860378666E2,-1.040493488E0,1.246030331E0,-2.786906719E0
3.865378666E2,2.033212185E0,-3.630409241E-1,1.304723978E0
3.870378666E2,-7.710838318E-1,2.587263107E0,-1.454394817E0
3.875378666E2,1.251591206E0,-1.667814255E-1,1.032565117E0
3.880378666E2,1.042604446E-2,2.760640621E0,-1.051891208E0
3.885378666E2,-3.341889381E-1,1.639466286E-1,1.502923965E0
3.890378666E2,1.623353243E0,3.289938927E0,-5.218064785E-1
3.895378666E2,-9.922084808E-1,-1.095805168E0,1.171161413E0
3.900378666E2,1.754978180E0,2.804378986E0,3.824318647E-1
3.905378666E2,-1.433709145E0,-7.859201431E-1,1.538224816E0
3.910378666E2,1.597589970E0,2.090875149E0,2.645467520E-1
3.915378666E2,-2.989111423E0,-1.093718529E0,1.498064399E0
3.920378666E2,1.312266827E0,1.127882004E-1,1.172064304E0
3.925378666E2,-2.921197176E0,-2.426095009E-1,1.092405796E0
3.930378666E2,7.214255333E-1,2.520424843E0,-1.634627461E0
3.935378666E2,-2.117195845E0,-1.489548683E-1,3.268386722E-1
3.940378666E2,1.067619801E0,2.901629448E0,-1.351691127E0
3.945378666E2,-2.250200272E0,-8.283271790E-1,-4.696513414E-1
3.950378666E2,1.260994196E0,2.859016895E0,-9.102282524E-1
3.955378666E2,-1.870985985E0,-1.855872154E0,-8.630369902E-1
3.960378666E2,6.196851730E-1,2.081107616E0,-8.324910998E-1
3.965378666E2,-9.188103676E-1,-1.128696442E0,2.970701694E0
3.970378666E2,2.101612091E-2,5.553107262E-1,1.098779440E0
3.975378666E2,-2.336063385E-1,-1.799124718E0,7.464362383E-1
3.980378666E2,1.367455482E0,-2.053203583E-1,7.109030485E-1
3.985378666E2,-4.292449951E-1,-1.577456474E0,4.283607006E-2
3.990378666E2,8.874993324E-1,-1.160765648E0,1.084786296E0
3.995378666E2,5.813918114E-1,-1.457269669E0,-5.466675758E-1
4.000378666E2,1.857913494E0,-6.457347870E-1,1.376231313E0
4.005378666E2,-1.395010948E-1,-1.802548409E0,3.225466311E-1
4.010378666E2,2.321385384E0,-8.981904984E-1,1.607503533E0
4.015378666E2,-1.134319305E-1,-1.509404182E0,-2.277646065E-1
4.020378666E2,2.324592590E0,-1.755334854E0,1.101861000E0
4.025378666E2,2.177423954E0,-1.784276962E-1,-5.359886885E-1
4.030378666E2,3.109901905E0,-2.167640686E0,1.478024960E0
4.035378666E2,1.404079437E0,7.614803314E-2,-3.017033339E-1
4.040378666E2,1.570684433E0,-2.225607872E0,3.356256485E-1
4.045378666E2,2.835614920E0,1.632559299E0,-7.075738907E-1
4.050378666E2,1.293637753E0,-2.161416054E0,-3.917210102E-1
4.055378666E2,-1.147368431E0,-1.000172615E0,-8.188033104E-2
4.060378666E2,2.053024769E0,-9.261374474E-1,4.226796627E-1
4.065378666E2,-7.315182686E-1,-1.075698853E0,6.764478087E-1
4.070378666E2,1.896462440E0,-1.576782227E0,1.329121590E0
4.075378666E2,-1.960406303E-1,-6.322822571E-1,7.520226240E-1
4.080378666E2,1.767941475E0,-1.974474907E0,8.818713427E-1
4.085378666E2,-7.365865707E-1,-1.023556709E0,8.586722612E-2
4.090378666E2,1.552525520E0,-2.370962620E0,1.383438706E0
4.095378666E2,-3.571486473E-1,-1.612108231E0,1.032958627E-1
4.100378666E2,1.300261497E0,-1.390777588E0,1.202069044E0
4.105378666E2,-2.775874138E-1,-1.148575783E0,-6.159043312E-2
4.110378666E2,1.544076443E0,-1.073612690E0,6.130199432E-1
4.115378666E2,-1.387098312E0,-1.691339970E0,-5.016230345E-1
4.120378666E2,7.501678467E-1,-1.169730186E0,3.347531557E-1
4.125378666E2,9.929418564E-2,-1.539085388E0,-8.047239780E-1
4.130378666E2,6.363949776E-1,-2.245992661E0,-3.965246081E-1
4.135378666E2,-2.746949196E-1,-1.458200455E0,1.906711757E-1
4.140378666E2,1.101677418E0,-1.447849751E0,1.005658507E0
4.145378666E2,3.927326202E-2,-1.563158512E0,2.817113698E-1
4.150378666E2,4.691677094E-1,-4.709172249E-1,1.003982782E0
4.155378666E2,3.062715530E-1,-1.762814045E0,1.054397821E-1
4.160378666E2,3.409967422E-1,-2.323288918E-1,6.222789288E-1
4.165378666E2,3.186860085E-1,-1.382982731E0,1.126483917E0
4.170378666E2,1.043747902E0,-1.357434273E0,1.714507699E0
4.175378666E2,-2.710189819E-1,-1.672008514E0,2.882959247E-1
4.180378666E2,1.627678394E0,-1.700181961E-1,9.763654470E-1
4.185378666E2,-4.213032722E-1,-1.281437874E0,3.574089706E-1
4.190378666E2,2.165114403E0,-7.911510468E-1,1.036082506E0
4.195378666E2,9.377670288E-2,-1.562220573E0,1.323390007E-1
4.200378666E2,2.993746758E0,-1.331814766E0,1.240183592E0
4.205378666E2,-8.487033844E-2,-6.612186432E-1,-4.031867981E-1
4.210378666E2,2.555220604E0,-1.579433441E0,7.589938045E-1
4.215378666E2,3.584012985E-1,2.218751907E-1,-3.474501371E-1
4.220378666E2,1.695386887E0,-1.881370544E0,5.099379420E-1
4.225378666E2,7.953014374E-1,3.744115829E-1,-6.207259893E-1
4.230378666E2,2.827594280E0,-1.666198254E0,1.649558783E0
4.235378666E2,8.611817360E-1,3.873348236E-1,-3.262846470E-1
4.240378666E2,3.001148224E0,-6.436843872E-1,6.328850985E-1
4.245378666E2,1.823604584E0,1.103950977E0,-3.720099926E-1
4.250378666E2,2.798427105E0,-1.353486061E0,6.606499553E-1
4.255378666E2,2.194108963E0,1.520124435E0,-1.751726866E-1
4.260378666E2,1.615986347E0,-2.241710663E0,1.533085346E0
4.265378666E2,2.168876648E0,2.161853313E0,-1.060154200E0
4.270378666E2,2.504034996E0,-1.132012367E0,7.774156332E-1
4.275378666E2,2.998112440E0,2.595468998E0,-1.620415330E0
4.280378666E2,1.414015770E0,-1.678719997E0,1.176653028E0
4.285378666E2,2.611578703E0,2.171013355E0,-9.700157642E-1
4.290378666E2,1.454744816E0,-1.032217503E0,1.199647307E0
4.295378666E2,1.875789642E0,2.151576996E0,-1.264548302E-2
4.300378666E2,2.027575016E0,-1.339026928E0,1.437404394E0
4.305378666E2,2.272340059E0,2.452392578E0,-7.266178131E-1
4.310378666E2,1.056861401E0,-1.723837852E0,1.983924866E0
4.315378666E2,-5.413289070E-1,-1.629046440E0,7.295086980E-1
4.320378666E2,4.893689156E-1,-2.250390530E0,1.489894748E0
4.325378666E2,-5.054950714E-3,-1.368508339E0,-3.837821484E-1
4.330378666E2,6.234450340E-1,-2.628499985E0,-4.507052898E-2
4.335378666E2,-1.096535206E0,-1.542051315E0,3.317728639E-1
4.340378666E2,7.371587753E-1,-1.755838871E0,1.300475597E-1
4.345378666E2,-1.531514645E0,-1.731207848E0,1.550794840E-1
4.350378666E2,2.302705288E0,-1.687457085E0,-4.538321495E-2
4.355378666E2,-5.796718597E-1,-8.638982773E-1,-8.387619257E-2
4.360378666E2,6.440649033E-1,-3.164187908E0,2.361336648E-1
4.365378666E2,-1.026175499E0,-9.476642609E-1,-9.700848460E-1
4.370378666E2,2.048204422E0,-1.327915668E0,7.520125508E-1
4.375378666E2,-1.962512016E0,-2.330436230E0,3.869698644E-1
4.380378666E2,2.479408741E0,-2.628461838E0,1.657700896E0
4.385378666E2,-1.337897301E0,-8.667678833E-1,-3.988214731E-1
4.390378666E2,2.066683292E0,-2.088365078E0,2.289628983E0
4.395378666E2,-1.051260710E0,-7.787265778E-1,-7.634557486E-1
4.400378666E2,2.021774292E0,-2.599644661E0,2.622957468E0
4.405378666E2,-1.391942978E0,-1.364670753E0,2.526437044E-1
4.410378666E2,2.249098301E0,-2.414533138E0,2.789392233E0
4.415378666E2,-9.582223892E-1,-9.788961411E-1,-2.253650427E-1
4.420378666E2,1.440055847E0,-2.890930176E0,2.463711977E0
4.425378666E2,-1.358883142E0,-6.620244980E-1,-8.001840115E-2
4.430378666E2,2.090550423E0,-2.402526379E0,3.141132593E0
4.435378666E2,-1.542676926E0,-1.434029579E0,4.032969475E-3
4.440378666E2,2.017579556E0,1.954216480E0,1.064390421E0
4.445378666E2,-1.534981012E0,-8.482437134E-1,4.805907011E-1
4.450378666E2,7.808396816E-1,1.924429893E0,1.159017563E0
4.455378666E2,-1.794351101E0,-2.762517929E-1,6.911982894E-1
4.460378666E2,9.323434830E-1,2.343638420E0,3.620920181E-1
4.465378666E2,-2.292576075E0,-7.736430168E-1,5.206226110E-1
4.470378666E2,1.673986197E0,2.743479729E0,1.848880053E-1
4.475378666E2,-2.614469528E0,-1.531566620E0,1.954805732E0
4.480378666E2,2.046311855E0,2.077775478E0,-9.227375984E-1
4.485378666E2,-2.230582237E0,-4.074249268E-1,1.778058171E0
4.490378666E2,1.991707802E0,1.817878246E0,-3.532226086E-1
4.495378666E2,-2.875538349E0,-1.936028481E0,2.576382399E0
4.500378666E2,1.815863132E0,1.793685436E0,-1.315790057E0
4.505378666E2,-3.163287163E0,-2.340979576E0,2.785241604E0
4.510378666E2,1.412762642E0,1.632984638E0,-1.115063667E0
4.515378666E2,-1.868371487E0,-1.874860764E0,2.068624496E0
4.520378666E2,5.454740524E-1,4.646987915E-1,-7.317051888E-1
4.525378666E2,-1.005351543E0,-1.672234535E0,2.218638659E0
4.530378666E2,-5.025463104E-1,-1.247957230E0,1.145558357E-1
4.535378666E2,1.580619812E-1,-1.148979664E0,1.251679659E0
4.540378666E2,-3.843178749E-1,-1.456068993E0,-3.332471848E-2
4.545378666E2,1.490574360E0,-1.046985149E0,1.062165856E0
4.550378666E2,-1.529388905E0,-1.445878029E0,-4.162241817E-1
4.555378666E2,2.587434292E0,-1.517222881E0,2.152152061E0
4.560378666E2,-1.876594305E0,-1.045649529E0,3.258097172E-2
4.565378666E2,2.696516037E0,2.521486759E0,-2.497193813E-1
4.570378666E2,-1.680980921E0,-3.433208466E-1,5.650562048E-1
4.575378666E2,1.999266386E0,2.542063236E0,6.998443604E-2
4.580378666E2,-2.082724094E0,-5.759592056E-1,2.030331373E0
4.585378666E2,2.321734905E0,2.213850498E0,-6.997816563E-1
4.590378666E2,-2.777774811E0,-1.154572010E0,2.208664179E0
4.595378666E2,1.586593866E0,2.178618908E0,-1.543296218E0
4.600378666E2,-2.756922245E0,-1.299841404E0,2.075337887E0
4.605378666E2,1.911672592E0,1.888920307E0,-9.454352856E-1
4.610378666E2,-2.528615475E0,-9.659380913E-1,1.805722237E0
4.615378666E2,1.597273350E0,1.350014210E0,-8.001923561E-1
4.620378666E2,-2.501518726E0,-7.692060471E-1,1.634039044E0
4.625378666E2,5.729622841E-1,1.128684998E0,-1.130701900E0
4.630378666E2,-2.010803699E0,-5.928382874E-1,1.334943175E0
4.635378666E2,1.041714907E0,1.606153965E0,-9.709012508E-1
4.640378666E2,-3.067988634E0,-1.345283031E0,7.277789712E-1
4.645378666E2,3.580775023E0,1.997609138E0,9.221593142E-1
4.650378666E2,-4.106513977E0,-2.662640572E0,1.400607109E0
4.655378666E2,4.526818275E0,2.457471371E0,-8.748540878E-1
4.660378666E2,-3.587935448E0,-1.782630920E0,2.549578547E-1
4.665378666E2,3.769221783E0,2.198632717E0,1.869732141E-1
4.670378666E2,-3.608025551E0,-1.487185955E0,3.730217516E-1
4.675378666E2,2.755097151E0,2.915925026E0,-1.113427162E0
4.680378666E2,-2.918748379E0,-9.597744942E-1,1.098925233E0
4.685378666E2,2.360980988E0,3.172317028E0,-1.235559940E0
4.690378666E2,1.592140198E-1,-1.252040863E0,9.274252653E-1
4.695378666E2,3.001426935E0,2.980151176E0,-1.897515297E0
4.700378666E2,5.358414650E-1,-9.544281960E-1,1.213280201E0
4.705378666E2,6.288881302E-1,1.735177517E0,-3.132607937E-1
4.710378666E2,5.451288223E-1,-3.119144440E-1,1.325772882E0
4.715378666E2,1.231054783E0,2.515651226E0,-9.733488560E-1
4.720378666E2,-3.617568016E-1,-1.822979927E0,7.692105174E-1
4.725378666E2,3.613243818E0,3.525843143E0,3.377015591E-1
4.730378666E2,5.779595375E-1,-1.363204956E0,1.203092933E-1
4.735378666E2,3.897287130E0,1.226272583E-1,6.039009094E-1
4.740378666E2,1.057066917E-1,-2.922476292E0,9.142365456E-1
4.745378666E2,2.717676640E0,-6.404256821E-1,1.016853213E0
4.750378666E2,2.700918674E0,-1.554677010E0,4.058677197E0
4.755378666E2,-2.144103050E-1,-2.580528259E-1,7.482838631E-2
4.760378666E2,1.953080177E0,-7.433166504E-1,2.993538380E-1
4.765378666E2,-4.793562889E-1,-7.825422287E-1,-1.163545847E0
4.770378666E2,1.559376955E0,7.083330154E-1,5.044116974E-1
4.775378666E2,-6.904056072E-1,-3.252553940E-1,-5.718976259E-1
4.780378666E2,3.347806931E0,2.105864048E0,5.007132888E-1
4.785378666E2,-2.462104082E0,-2.501403809E0,8.119503260E-1
4.790378666E2,3.990454674E0,1.339257240E0,4.074418545E-1
4.795378666E2,-2.712600231E0,-1.983837128E0,-1.530485272E0
4.800378666E2,2.008443356E0,1.489018440E0,3.166699409E-1
4.805378666E2,-2.231074572E0,-4.669942856E-1,8.620250225E-1
4.810378666E2,1.981679916E0,3.018243313E0,-8.336515427E-1
4.815378666E2,-2.241964817E0,-2.522309303E0,1.710047007E0
4.820378666E2,6.600170135E-1,2.773524761E0,-3.491948843E-1
4.825378666E2,-9.542856216E-1,-2.044108868E0,2.194658279E0
4.830378666E2,1.827565670E0,2.982585907E0,7.666792870E-1
4.835378666E2,-1.421558380E0,-7.298922539E-1,1.561800361E0
4.840378666E2,6.818056107E-1,2.660530567E0,-1.296021938E0
4.845378666E2,5.838842392E-1,-1.005215645E-1,1.480562449E0
4.850378666E2,1.618764877E0,2.892233849E0,-1.502225041E0
4.855378666E2,3.397741318E-1,-2.243571281E-1,1.156610012E0
4.860378666E2,1.114589930E0,2.963985920E0,-1.658901215E0
4.865378666E2,1.352186203E-1,-1.170947552E0,1.304744959E0
4.870378666E2,1.978312731E0,3.145601749E0,-1.443411589E0
4.875378666E2,2.624969482E-1,-7.406616211E-2,1.022444725E0
4.880378666E2,1.719664335E0,3.157314777E0,-2.106881618E0
4.885378666E2,7.600402832E-2,-9.301061630E-1,1.065635204E0
4.890378666E2,2.750097513E0,3.516663074E0,-8.430349827E-1
4.895378666E2,-1.285096169E0,-1.494726658E0,2.727199793E-1
4.900378666E2,3.832682371E0,3.044373512E0,-7.905398607E-1
4.905378666E2,-1.395332813E0,-2.571019173E0,6.285028458E-1
4.910378666E2,3.891073942E0,2.950612068E0,-1.336089373E0
4.915378666E2,-1.348464012E0,-2.134058952E0,6.279197931E-1
4.920378666E2,3.559314489E0,2.283807278E0,-7.186490297E-1
4.925378666E2,-2.242412090E0,-1.724028111E0,2.455038428E-1
4.930378666E2,2.999061108E0,1.474635124E0,1.417965531E0
4.935378666E2,-2.851966381E0,-1.430611134E0,2.531573474E-1
4.940378666E2,4.907253265E0,2.416452408E0,1.710383892E-1
4.945378666E2,-4.819509029E0,-6.200404167E0,-1.140455246E0
4.950378666E2,3.292954922E0,-9.203691483E-1,2.021377563E0
4.955378666E2,-2.245188236E0,-6.868829727E-1,7.324310541E-1
4.960378666E2,7.214241028E-1,1.143188953E0,4.875466824E-1
4.965378666E2,-1.095122814E0,-1.635109901E0,3.820376635E0
4.970378666E2,1.640325308E0,-6.842203140E-1,8.783804178E-1
4.975378666E2,-2.236475945E-1,-1.317116261E0,8.328828812E-1
4.980378666E2,-1.154264212E0,-1.451289177E0,4.913200140E-1
4.985378666E2,1.043637753E0,-1.268650055E0,1.041910052E0
4.990378666E2,-1.437889099E0,-4.744729996E-1,-4.022450447E-1
4.995378666E2,2.876741171E0,-9.798421860E-1,1.427955866E0
5.000378666E2,-7.407066822E-1,-5.111312866E-1,1.960235476E0
5.005378666E2,2.675011635E0,-1.110382080E0,1.711617589E0
5.010378666E2,-3.007463217E0,-8.150653839E-1,2.899677038E0
5.015378666E2,2.202731609E0,1.393289566E-1,1.653088331E-1
5.020378666E2,-1.747605085E0,5.189352036E-1,2.854329586E0
5.025378666E2,1.933053255E0,1.464052200E-1,1.082813621E0
5.030378666E2,-2.840791702E0,-3.801207542E-1,8.526341319E-1
5.035378666E2,3.952476501E0,9.661073685E-1,1.845976949E0
5.040378666E2,-2.176149607E0,-1.027817726E-1,1.191770554E0
5.045378666E2,2.215637684E0,-8.685970306E-2,8.785143495E-2
5.050378666E2,-2.616843462E0,-1.595735550E-1,1.177603483E0
5.055378666E2,1.906585693E0,-4.715347290E-2,1.550106168E0
5.060378666E2,-6.290149689E-2,8.183975220E-1,3.101040721E-1
5.065378666E2,-1.276946068E-1,2.156111240E0,-5.629131943E-2
5.070378666E2,-1.158862114E-1,-3.979272842E-1,9.678247571E-1
5.075378666E2,1.980971813E0,2.791503429E0,-6.470085979E-1
5.080378666E2,-1.062018156E0,-7.353487015E-1,1.002317548E0
5.085378666E2,9.070532322E-1,2.166255951E0,-1.194642067E0
5.090378666E2,-8.578567505E-1,-5.317354202E-1,-1.068629026E-1
5.095378666E2,1.572623968E0,1.995222569E0,-5.855649710E-1
5.100378666E2,-8.928551674E-1,-6.584835052E-1,-3.633245230E-1
5.105378666E2,1.515719891E0,2.046994686E0,-6.036050320E-1
5.110378666E2,-1.304434538E0,-1.073874474E0,-1.382107139E-1
5.115378666E2,1.845003963E0,2.318969727E0,-7.373504639E-1
5.120378666E2,-1.793967724E0,-1.409716606E0,4.284024239E-3
5.125378666E2,2.260138035E0,2.512306690E0,-1.085009098E0
5.130378666E2,-1.350134611E0,-1.173286438E0,-8.513003588E-2
5.135378666E2,1.988795877E0,2.578123093E0,-9.995616674E-1
5.140378666E2,-1.484168291E0,-7.967510223E-1,-4.044800997E-1
5.145378666E2,2.044976234E0,2.418956280E0,-4.880555868E-1
5.150378666E2,-1.835283518E0,-6.354217529E-1,-5.587788820E-1
5.155378666E2,1.858548403E0,2.341152668E0,3.719527721E-1
5.160378666E2,-1.996102810E0,-1.652477264E0,-7.920765877E-1
5.165378666E2,2.304851532E0,1.698941708E0,2.274123430E-1
5.170378666E2,-1.684411287E0,-1.744783401E0,-2.965921164E-1
5.175378666E2,2.151136398E0,1.515696526E0,8.042628765E-1
5.180378666E2,-1.647608757E0,-1.165904999E0,3.597522974E-1
5.185378666E2,2.256943703E0,1.871300697E0,1.240639567E0
5.190378666E2,-2.349920511E0,-1.187156677E0,1.954094172E-1
5.195378666E2,1.491075516E0,1.691175461E0,1.884926081E0
5.200378666E2,-2.530868053E0,-1.611820221E0,3.353732586E0
5.205378666E2,2.014977217E0,2.107624054E0,1.095742941E0
5.210378666E2,-1.774833202E0,-2.496417046E0,2.913870573E0
5.215378666E2,2.031247139E0,2.331748962E0,3.829996586E-1
5.220378666E2,-1.242383957E0,-3.111142159E0,3.592988253E0
5.225378666E2,1.415061951E0,2.112551212E0,6.987900734E-1
5.230378666E2,-8.030290604E-1,-1.232885838E0,1.807788134E0
5.235378666E2,2.307499886E0,2.554827213E0,8.308172226E-2
5.240378666E2,1.960110664E-1,-6.836318970E-1,2.559536695E0
5.245378666E2,1.673983216E0,2.667825222E0,-6.553087234E-1
5.250378666E2,6.733970642E-1,3.075995445E-1,2.201411724E0
5.255378666E2,-1.665018797E0,1.237719536E0,-1.357765079E0
5.260378666E2,1.687779427E-1,5.385723114E-1,5.568069220E-1
5.265378666E2,2.007332563E0,2.931763172E0,3.745232224E-1
5.270378666E2,-9.364843369E-2,-5.163359642E-1,1.240261555E0
5.275378666E2,1.248478413E0,2.245268345E0,-3.226907253E-1
5.280378666E2,1.190505505E0,-4.966611862E-1,3.488018513E-1
5.285378666E2,1.350955248E0,2.369860172E0,-1.604412198E0
5.290378666E2,2.279018879E0,-4.017333984E-1,1.179262042E0
5.295378666E2,2.369873524E0,2.324450016E0,-1.080554962E0
5.300378666E2,1.636778831E0,-1.673712730E0,-6.849858761E-1
5.305378666E2,1.886489630E0,1.975798130E0,-1.552989602E0
5.310378666E2,2.108799458E0,-1.742587566E0,8.965715170E-1
5.315378666E2,1.845666885E0,1.837326050E0,-6.378087997E-1
5.320378666E2,2.376652718E0,-9.612989426E-1,5.208575726E-1
5.325378666E2,-1.563245058E0,-1.163421631E0,-3.347346187E-1
5.330378666E2,2.126216888E0,-1.739846230E0,1.159159303E0
5.335378666E2,-1.493351460E0,-1.187400818E0,-4.171006680E-1
5.340378666E2,2.523605824E0,-2.089267731E0,1.188797712E0
5.345378666E2,-1.757402658E0,-6.638698578E-1,2.473533154E-2
5.350378666E2,2.157459736E0,-2.227562428E0,1.813262224E0
5.355378666E2,-1.894799948E0,-1.106532097E0,-4.870725870E-1
5.360378666E2,2.589163303E0,-1.906740189E0,1.322005630E0
5.365378666E2,-2.267088413E0,-1.548481941E0,-3.726945519E-1
5.370378666E2,2.467832565E0,-2.088303566E0,1.348329902E0
5.375378666E2,-1.151413918E0,-2.437915802E-1,-2.520561218E-3
5.380378666E2,1.756552696E0,-2.389225960E0,2.464310646E0
5.385378666E2,-1.330965042E0,-5.173950195E-1,2.641444921E0
5.390378666E2,2.694161415E0,-1.297766685E0,2.442686796E0
5.395378666E2,-1.292776585E0,-1.599464417E-1,1.859982848E0
5.400378666E2,2.468892813E0,-1.092558861E0,2.724570036E0
5.405378666E2,-1.011755228E0,6.791877747E-2,1.911936760E0
5.410378666E2,2.920074463E0,-1.335413933E0,2.028361082E0
5.415378666E2,-1.365938425E0,-2.575740814E-1,1.922726512E0
5.420378666E2,3.083624125E0,-1.781250954E0,2.524353504E0
5.425378666E2,-2.435085773E-1,6.610679626E-1,2.766161442E0
5.430378666E2,1.271769285E0,-1.226237297E0,1.531100869E0
5.435378666E2,-1.716253757E0,2.841029167E-1,2.204585314E0
5.440378666E2,1.697929382E0,-1.121519089E0,1.410657048E0
5.445378666E2,-1.763030052E0,6.874704361E-2,2.505032539E0
5.450378666E2,7.629947662E-1,2.340946674E0,-1.226849318E0
5.455378666E2,-1.867429256E0,5.219469070E-1,1.481710792E0
5.460378666E2,-9.269285202E-1,1.378580093E0,-1.995983481E0
5.465378666E2,-1.996119022E-1,1.911283493E0,2.144743443E0
5.470378666E2,2.239842892E0,2.679923058E0,1.707417727E0
5.475378666E2,-3.350584507E0,-9.931287766E-1,1.602231503E0
5.480378666E2,2.042856216E-1,2.027626038E-1,-2.891883135E0
5.485378666E2,-1.962168217E0,2.276301146E0,2.346033812E0
5.490378666E2,2.184576511E0,2.068824291E0,1.553373098E0
5.495378666E2,-1.711221457E0,8.620772362E-1,1.687438488E0
5.500378666E2,-1.008501530E0,8.798217773E-1,-1.572625756E0
5.505378666E2,-1.595649481E0,1.524786472E0,2.739166498E0
5.510378666E2,1.191771984E0,1.471398830E0,-1.342549324E0
5.515378666E2,-2.589468241E0,7.054810524E-1,2.467947483E0
5.520378666E2,8.160233498E-1,1.921052456E0,-1.566802502E0
5.525378666E2,-1.214217186E0,9.833011627E-1,3.049847603E0
5.530378666E2,1.382896185E0,1.474754810E0,-2.156044006E0
5.535378666E2,-2.175475597E0,-6.336178780E-1,2.884533882E0
5.540378666E2,1.498912573E0,1.945301056E0,-1.281714439E0
5.545378666E2,-2.706737757E0,-4.262185097E-1,2.922947407E0
5.550378666E2,2.526608944E0,1.826635361E0,-1.493434668E0
5.555378666E2,-2.558228731E0,3.425035477E-1,2.264157772E0
5.560378666E2,1.947267771E0,1.648282051E0,-1.136248469E0
5.565378666E2,-2.411912680E0,1.366114616E-1,2.310293436E0
5.570378666E2,1.346298695E0,1.404103756E0,-7.117190361E-1
5.575378666E2,2.697448730E0,-1.195395470E0,-1.573061943E-2
5.580378666E2,3.699998856E-1,1.953519344E0,-1.859802604E0
5.585378666E2,2.642261982E0,-1.062473297E0,-8.271884918E-2
5.590378666E2,4.783282280E-1,1.238167286E0,-1.565542102E0
5.595378666E2,1.534367561E0,-1.823926449E0,6.341356039E-2
5.600378666E2,1.953297615E0,2.170161724E0,-6.612039804E-1
5.605378666E2,2.451092243E0,-1.295534611E0,7.043160796E-1
5.610378666E2,2.583398581E0,1.626792908E0,9.415173531E-2
5.615378666E2,2.259302139E0,-1.300497055E0,9.829117656E-1
5.620378666E2,1.580938578E0,2.079166889E0,-9.422162771E-1
5.625378666E2,2.377159595E0,-1.066230774E0,1.046577334E0
5.630378666E2,1.754678726E0,2.083411694E0,-9.516167641E-1
5.635378666E2,2.244029999E0,-1.753512383E0,7.801403403E-1
5.640378666E2,2.702389240E0,2.447575092E0,-9.787634611E-1
5.645378666E2,1.434978485E0,-2.295958042E0,1.429976940E0
5.650378666E2,3.597139597E0,2.332948208E0,-1.326085806E0
5.655378666E2,2.031562328E0,-1.194641113E0,1.496899128E0
5.660378666E2,2.125342369E0,2.555172920E0,-2.086571217E0
5.665378666E2,1.455072880E0,-1.683517933E0,1.435421824E0
5.670378666E2,2.989018679E0,2.956604958E0,-7.933632135E-1
5.675378666E2,1.357304096E0,-1.603842258E0,7.044678926E-1
5.680378666E2,3.187367678E0,2.664956570E0,-8.202790022E-1
5.685378666E2,1.560828209E0,-1.884163380E0,1.666023016E0
5.690378666E2,3.469344378E0,2.661300182E0,-1.896518469E0
5.695378666E2,1.676073074E0,-1.241019726E0,1.910808444E0
5.700378666E2,-1.393236876E0,-1.956752777E0,5.773365498E-1
5.705378666E2,1.352660179E0,-1.491650105E0,9.505754709E-1
5.710378666E2,-1.322729111E0,-1.423377991E0,-3.417554498E-1
5.715378666E2,1.537618637E0,-1.135143280E0,4.220784903E-1
5.720378666E2,-5.623774529E-1,-1.594568253E0,-1.734121144E-1
5.725378666E2,8.086495399E-1,-9.333925247E-1,3.838191032E-1
5.730378666E2,-6.631326675E-1,-1.885859489E0,5.522495508E-1
5.735378666E2,3.229511261E0,2.070522308E-1,1.177573204E0
5.740378666E2,-5.540223122E-1,-2.373004913E0,6.973025203E-1
5.745378666E2,2.434317589E0,-2.645769119E-1,7.542904615E-1
5.750378666E2,-7.297129631E-1,-1.610829353E0,7.105156183E-1
5.755378666E2,1.927134991E0,-1.315745831E0,1.391229153E0
5.760378666E2,-1.082402706E0,-1.722369194E0,1.483228207E-1
5.765378666E2,2.097757816E0,-1.494115353E0,6.837360859E-1
5.770378666E2,-1.113919258E0,-1.419298172E0,-1.355423182E-1
5.775378666E2,1.853993416E0,-8.990488052E-1,5.955773592E-1
5.780378666E2,-1.209025145E0,-1.391753197E0,-3.700562716E-1
5.785378666E2,2.338619232E0,-1.362181187E0,6.723932028E-1
5.790378666E2,-3.705103397E-1,-8.574190140E-1,-4.870998859E-2
5.795378666E2,1.851581573E0,-1.155561447E0,1.999936581E0
5.800378666E2,-1.513290405E0,-2.307506561E0,-9.125578403E-2
5.805378666E2,2.773618698E0,-6.200389862E-1,1.373417139E0
5.810378666E2,-1.600677729E0,-1.891748428E0,-1.033421159E-1
5.815378666E2,2.509018421E0,-8.714675903E-1,6.089416742E-1
5.820378666E2,-1.830736399E0,-2.120969772E0,8.152927756E-1
5.825378666E2,1.784654856E0,1.225886345E0,5.061557293E-1
5.830378666E2,-3.651652336E-1,-1.004481316E0,6.658641100E-1
5.835378666E2,3.957555294E-1,7.429647446E-1,7.934761047E-1
5.840378666E2,-6.214237213E-1,-1.610147476E0,1.461601853E-1
5.845378666E2,1.233723164E0,2.618560791E-1,2.612957060E-1
5.850378666E2,-1.585185766E0,-2.150884628E0,2.876904011E-1
5.855378666E2,1.930738449E0,5.342035294E-1,1.202929854E0
5.860378666E2,-2.495482922E0,-3.150222301E0,4.292207360E-1
5.865378666E2,2.348506451E0,2.339883327E0,4.178196490E-1
5.870378666E2,-1.003290653E0,-7.036113739E-1,-2.883300483E-1
5.875378666E2,3.690959930E0,2.303041935E0,-1.276730895E-1
5.880378666E2,-1.979307175E0,-1.426692009E0,-1.054762602E-1
5.885378666E2,3.544456482E0,8.825206757E-1,5.037724972E-1
5.890378666E2,-2.920544147E0,-1.468093872E0,7.692680955E-1
5.895378666E2,2.104887009E0,2.422437668E0,7.419699430E-2
5.900378666E2,-1.743359566E0,-1.515409470E0,1.381998897E0
5.905378666E2,2.529726267E0,2.212082386E0,-2.247489691E-1
5.910378666E2,-2.069165707E0,-1.904300690E0,4.176519513E-1
5.915378666E2,2.190250635E0,2.431328297E0,8.136332035E-2
5.920378666E2,-2.748366356E0,-2.001548767E0,8.680754304E-1
5.925378666E2,2.731265068E0,3.080454350E0,-4.021410942E-1
5.930378666E2,-2.350181103E0,-1.949784279E0,1.819796443E0
5.935378666E2,3.074211597E0,3.205349445E0,-1.912536263E0
5.940378666E2,-2.442381859E0,-8.525686264E-1,2.524713039E0
5.945378666E2,2.932481766E0,2.944711685E0,-2.116297960E0
5.950378666E2,1.023278236E-1,-2.005446434E0,8.661673069E-1
5.955378666E2,3.488392353E0,3.289950371E0,-1.700962305E0
5.960378666E2,-5.021910667E-1,-3.352945805E0,9.989709854E-1
5.965378666E2,3.655627489E0,2.956683636E0,-7.591631413E-1
5.970378666E2,2.083415985E-1,-2.045499802E0,5.826766491E-1
5.975378666E2,4.297274590E0,2.699084759E0,-1.333893895E0
5.980378666E2,1.254504204E0,-1.659610748E0,1.266897798E0
5.985378666E2,3.490808725E0,2.365652561E0,-1.378885865E0
5.990378666E2,2.404787540E0,-1.420616150E0,9.103267789E-1
5.995378666E2,2.897261620E0,6.649379730E-1,-1.186192036E-2
6.000378666E2,3.812592983E0,-2.009093761E0,2.013484716E0
6.005378666E2,3.916285038E0,-2.432195663E0,1.194081306E-1
6.010378666E2,3.249352455E0,-4.033441067E0,2.493023157E0
6.015378666E2,6.830538750E0,-2.578540802E0,1.401685238E0
6.020378666E2,2.582112312E0,-3.511839867E0,1.952256322E0
6.025378666E2,4.739175797E0,5.437097549E-1,4.861394167E-1
6.030378666E2,2.351010323E0,-1.420754910E0,2.650585651E0
6.035378666E2,2.629729271E0,2.742023468E-1,7.010943890E-1
6.040378666E2,2.715105534E0,-9.963979721E-1,3.286634207E0
6.045378666E2,6.849503517E-1,-1.929473877E-1,1.143308640E0
6.050378666E2,2.993267059E0,-1.580549240E0,2.984675884E0
6.055378666E2,9.169602394E-1,-1.039523125E0,8.940035701E-1
6.060378666E2,4.703752041E0,-1.619849205E0,2.659492016E0
6.065378666E2,7.204499245E-1,-1.043176651E0,6.461970806E-1
6.070378666E2,3.868644238E0,-2.223397255E0,2.792088747E0
6.075378666E2,-2.498137712E0,-1.318080902E0,2.130608082E0
6.080378666E2,2.493909359E0,3.156375885E-1,1.781111956E0
6.085378666E2,-2.747644186E0,-7.623085976E-1,2.276902676E0
6.090378666E2,1.335236549E0,1.046856880E0,9.566087723E-1
6.095378666E2,-2.263446331E0,-1.333909988E0,2.707032204E0
6.100378666E2,1.889669418E0,1.839372158E0,3.375997543E-1
6.105378666E2,-7.014827728E-1,-8.986029625E-1,1.677694321E0
6.110378666E2,3.372910976E0,1.958052158E0,-1.087412834E0
6.115378666E2,1.815231323E0,-9.964809418E-1,1.436166883E0
6.120378666E2,2.499780655E-1,-1.762847900E-1,-8.090889454E-2
6.125378666E2,2.834675550E0,-9.106836319E-1,1.480688691E0
6.130378666E2,-1.093662739E0,-1.504241943E0,-2.036271244E-1
6.135378666E2,1.860658765E0,1.140356064E-1,1.819071174E-1
6.140378666E2,2.950632572E-1,-2.992334366E-1,-6.254166961E-1
6.145378666E2,8.570117950E-1,1.813549519E0,2.706205845E-1
6.150378666E2,-2.808294058E0,-1.086248398E0,7.392646670E-1
6.155378666E2,2.279523134E0,2.801831245E0,-1.761107683E0
6.160378666E2,-1.978842020E0,-4.412574768E-1,2.497385263E0
6.165378666E2,2.569702864E0,1.862309456E0,-1.773528099E0
6.170378666E2,-1.498268604E0,-6.470890045E-1,1.700847149E0
6.175378666E2,9.850649834E-1,-8.715724945E-2,-1.143727183E0
6.180378666E2,1.647644043E-1,7.859611511E-2,1.305136204E0
6.185378666E2,-5.449166298E-1,-1.365723610E0,1.290530562E-1
6.190378666E2,6.806297302E-1,-2.464470863E0,1.709203362E0
6.195378666E2,-1.111754894E0,-4.909524918E-1,1.012460709E0
6.200378666E2,8.116579056E0,9.018812180E-1,8.348366618E-1
6.205378666E2,-7.154324055E0,-3.866949081E0,4.158690453E0
6.210378666E2,6.346163273E0,1.428527832E0,2.540078163E0
6.215378666E2,-3.098259211E0,-3.825001717E0,-5.026219487E-1
6.220378666E2,6.093033791E0,9.161272049E-1,1.113707662E0
6.225378666E2,-2.067961216E0,-2.231844902E0,-1.363148570E0
6.230378666E2,3.875510693E0,-8.300333023E-1,1.288138390E0
6.235378666E2,-3.579816818E-1,-3.830528259E-1,-8.127755523E-1
6.240378666E2,2.869238377E0,1.894688606E0,8.488623500E-1
6.245378666E2,-2.520876408E0,-1.400314331E0,-8.196380734E-1
6.250378666E2,1.832323313E0,1.367912292E0,7.856235504E-1
6.255378666E2,-1.466605902E0,-7.322597504E-2,4.072689414E-1
6.260378666E2,2.364435196E0,2.645430088E0,-5.356109738E-1
6.265378666E2,-2.031610727E0,-3.240585327E-3,2.396607876E0
6.270378666E2,3.982347965E0,1.775200844E0,-8.340361714E-1
6.275378666E2,-1.637590885E0,-1.412613392E0,2.325698376E0
6.280378666E2,1.918782234E0,8.937377930E-1,3.367866874E-1
6.285378666E2,-5.271441936E-1,8.402280807E-1,-4.103208780E-1
6.290378666E2,1.715175152E0,1.077443123E0,5.565657616E-1
6.295378666E2,-8.273077011E-2,6.766138077E-1,-2.046118379E-1
6.300378666E2,3.120273352E0,1.610285759E0,1.167407990E0
6.305378666E2,1.266919613E0,2.470220089E0,-2.592418671E0
6.310378666E2,2.045969963E-1,-3.315194607E0,1.621849537E0
6.315378666E2,3.841591835E0,3.413722992E0,-1.067385674E0
6.320378666E2,-4.241452217E0,-2.187694550E0,2.764748096E0
6.325378666E2,2.798597813E0,-2.167367935E0,8.490607738E-1
6.330378666E2,-1.822705984E0,-2.022159576E0,-3.905785382E-1
6.335378666E2,2.413710117E0,1.634989738E0,-9.942303300E-1
6.340378666E2,-2.041135550E0,-2.667520523E0,-9.771678448E-1
6.345378666E2,3.929100037E0,-8.477058411E-1,2.560572147E0
6.350378666E2,7.239308357E-1,-5.813217163E-1,1.263829947E0
6.355378666E2,2.871572018E0,-2.213675022E0,1.587466955E0
6.360378666E2,2.899037838E0,1.446632385E0,6.747817993E-2
6.365378666E2,2.334934711E0,-2.508714676E0,1.838700056E0
6.370378666E2,3.739447594E0,2.505337238E0,-2.861211300E-1
6.375378666E2,2.829976082E-1,-2.547625065E0,1.799416661E0
6.380378666E2,3.910787821E0,3.903757572E0,-1.476234198E0
6.385378666E2,-1.899661541E0,-4.260761738E0,2.452196598E0
6.390378666E2,2.484497070E0,6.033688545E0,-2.308260679E0
6.395378666E2,-3.262377739E0,-2.374243736E0,3.148194790E0
6.400378666E2,2.452026129E0,2.212221146E0,5.788493156E-2
6.405378666E2,-4.416938782E0,-3.578862667E0,3.641728878E0
6.410378666E2,2.824238777E0,-9.710636139E-1,2.683557510E0
6.415378666E2,-3.666166306E0,-1.344854832E0,5.312565804E0
6.420378666E2,2.070746422E0,-1.401153564E0,1.443696737E0
6.425378666E2,-1.994929314E0,-3.072957993E-1,2.260088444E0
6.430378666E2,2.122867584E0,-1.994480133E0,1.929294348E0
6.435378666E2,-3.622906685E0,-7.543764114E-1,1.106431246E0
6.440378666E2,2.608803749E0,-3.211430550E0,3.602702618E0
6.445378666E2,-2.970528841E0,-1.674773216E0,1.572553873E0
6.450378666E2,2.118933201E0,-1.871325493E0,2.761904478E0
6.455378666E2,-2.326643705E0,-1.205117226E0,5.023428798E-1
6.460378666E2,1.984906912E0,2.277645588E0,6.983197927E-1
6.465378666E2,-2.820646048E0,-7.437033653E-1,1.670746088E0
6.470378666E2,3.084434748E0,1.414377213E0,-9.693896770E-1
6.475378666E2,-2.547650337E0,-2.031745434E0,2.338594913E0
6.480378666E2,1.444215775E0,-7.103233337E-1,-1.940783858E-1
6.485378666E2,-1.056392670E0,-1.135180473E0,9.013148546E-1
6.490378666E2,-9.561741352E-1,5.268335342E-1,5.143271685E-1
6.495378666E2,-6.211676598E-1,-5.867166519E-1,6.598303914E-1
6.500378666E2,-1.890192032E-1,5.698156357E-1,-2.144012004E-1
6.505378666E2,-3.131957054E-1,-1.214408875E-2,3.745741248E-1
6.510378666E2,-3.934764862E-2,1.935186386E-1,1.709343195E-1
6.515378666E2,1.630165339E0,5.085954666E-1,1.153797507E-1
6.520378666E2,-4.387135506E-1,-3.779783249E-1,1.935062170E0
6.525378666E2,2.171951294E0,1.722338676E0,-1.669084072E0
6.530378666E2,9.520387650E-2,-3.173038960E0,1.522131562E0
6.535378666E2,2.556537628E0,3.169096470E0,-1.616323948E0
6.540378666E2,-2.330253601E0,-4.149756908E0,3.083871603E0
6.545378666E2,2.287302971E0,8.732414246E-2,7.117404938E-1
6.550378666E2,-3.645566940E0,-1.814801693E0,3.003294230E0
6.555378666E2,4.020248890E0,1.701755047E0,8.750249147E-1
6.560378666E2,-1.168489456E-1,-1.958207607E0,-4.868420362E-1
6.565378666E2,3.708380222E0,-7.352542877E-1,1.774680018E0
6.570378666E2,3.860793114E-1,-8.852748871E-1,2.206101269E-1
6.575378666E2,7.021158218E0,-3.415812969E0,3.336110830E0
6.580378666E2,-1.737558842E-1,-4.520791054E0,-2.859669685E0
6.585378666E2,1.441905975E0,-8.925065994E-1,3.323792219E-1
6.590378666E2,2.084312916E0,1.777276993E-1,2.068471432E0
6.595378666E2,2.334414959E0,-1.813855171E0,-5.787969828E-1
6.600378666E2,6.640074253E-1,3.323262691E0,-1.289500952E0
6.605378666E2,1.718385220E0,-1.274096012E0,1.679637671E0
6.610378666E2,2.074682236E0,4.020876408E0,-2.566774607E0
6.615378666E2,-1.766804218E0,-6.185584068E-1,2.944046021E0
6.620378666E2,1.999340773E0,2.189502716E-1,4.846031368E-1
6.625378666E2,-2.946835518E0,-2.049968243E0,2.416498899E0
6.630378666E2,2.638020039E0,-2.629833221E0,1.732640624E0
6.635378666E2,-1.189093351E0,-9.730024338E-1,-3.676026762E-1
6.640378666E2,4.951281548E-1,-5.066702366E0,2.152210951E0
6.645378666E2,-1.463829637E0,-6.987342834E-1,2.771672606E-2
6.650378666E2,1.346142769E0,-9.581785202E-1,-1.304578185E-1
6.655378666E2,-2.578611612E0,-1.421229362E0,2.601809978E0
6.660378666E2,-9.334440231E-1,-2.910722256E0,1.195883989E0
6.665378666E2,1.894465923E0,-1.122896194E0,1.551617384E0
6.670378666E2,-2.374037743E0,-9.563565254E-1,1.294242620E0
6.675378666E2,1.762988567E0,6.765546799E-1,-7.428859472E-1
6.680378666E2,-3.262740135E0,-1.755593300E0,2.119263649E0
6.685378666E2,3.259940147E0,2.285732746E0,-1.314533472E0
6.690378666E2,-3.510804653E0,-2.587337017E0,2.079635143E0
6.695378666E2,5.090433598E0,2.698873520E0,-9.797633886E-1
6.700378666E2,-3.324772596E0,-8.537397385E-1,1.962441802E-1
6.705378666E2,3.897613049E0,3.537112713E0,-1.478317261E0
6.710378666E2,-2.172845364E0,-2.605703831E0,1.379357815E0
6.715378666E2,2.404843330E0,2.887436390E0,-6.809220314E-1
6.720378666E2,-2.679366112E0,-1.195139408E0,2.174140692E0
6.725378666E2,1.867912531E0,5.620918274E-1,1.492431879E0
6.730378666E2,-3.508640766E0,-6.120576859E-1,1.479293823E0
6.735378666E2,1.193960667E0,-6.107645035E-1,2.185012579E0
6.740378666E2,-2.549226999E0,-1.504990578E0,2.274004698E0
6.745378666E2,3.188887119E0,-2.353873253E0,1.075644493E-1
6.750378666E2,-1.571600914E0,-2.387939453E0,-4.758398533E-1
6.755378666E2,6.104655266E-1,-1.745403767E0,4.581693411E-1
6.760378666E2,-1.551704407E-1,-1.766713142E0,-1.709100008E0
6.765378666E2,-5.377249718E-1,-1.949588299E0,2.264850616E0
6.770378666E2,1.513795853E-1,-1.788365364E0,2.160933018E-1
6.775378666E2,-1.833014965E0,-1.335365772E0,2.912394524E0
6.780378666E2,1.844791412E0,-6.055545807E-2,1.480479240E-1
6.785378666E2,-3.559369087E0,-1.624230385E0,1.903148413E0
6.790378666E2,3.184225082E0,2.534819603E0,-1.134507537E0
6.795378666E2,-3.247887850E0,-1.835354805E0,1.991640687E0
6.800378666E2,4.115714073E0,3.638358593E0,-8.450071812E-1
6.805378666E2,-3.287914038E0,-2.220169067E0,2.074651718E-1
6.810378666E2,3.110356331E0,2.564285278E0,-1.086664200E-2
6.815378666E2,-2.062516212E0,-1.772726059E0,7.229206562E-1
6.820378666E2,-4.489583969E-1,-6.046433449E-1,1.930770159E0
6.825378666E2,2.316493988E-1,-3.036669254E0,3.136631727E0
6.830378666E2,2.180881500E0,-2.783740997E0,2.217082739E0
6.835378666E2,-2.858707190E0,-7.050271034E-1,2.512186766E-1
6.840378666E2,1.812429428E0,-4.589042664E0,1.656288505E0
6.845378666E2,-2.849535227E0,-3.302631378E0,6.737945229E-2
6.850378666E2,7.468900681E-1,-2.274340153E0,2.271738291E0
6.855378666E2,-2.038321495E-1,-2.445395470E0,1.110002995E0
6.860378666E2,-1.697592258E0,-1.455707550E-1,2.736999750E0
6.865378666E2,-2.069768906E-1,-9.447746277E-1,9.963830113E-1
6.870378666E2,-1.611351490E0,8.554282188E-1,1.626526594E0
6.875378666E2,-2.394546032E0,-5.842390060E-1,-2.123582840E0
6.880378666E2,-7.694053650E-2,2.435965061E0,1.259431124E0
6.885378666E2,2.484706402E0,4.590127468E0,-2.217321634E0
6.890378666E2,-2.622192383E0,-8.000822067E-1,2.396332979E0
6.895378666E2,-8.974418640E-1,2.404471874E0,6.063416004E-1
6.900378666E2,3.184349537E-1,-1.831192017E0,3.062478304E-1
6.905378666E2,2.621898651E-1,7.837295532E-2,1.716425180E0
6.910378666E2,3.636803627E-1,-2.033999443E0,1.799886346E0
6.915378666E2,1.547246933E0,-1.421406746E0,6.347708702E-1
6.920378666E2,-4.506530762E-1,-1.217223167E0,4.058326483E-1
6.925378666E2,2.892409801E0,-1.361766815E0,1.156464219E0
6.930378666E2,1.023425579E0,1.046997547E0,-2.719414234E-1
6.935378666E2,1.480591774E0,-1.737166405E0,1.982771993E0
6.940378666E2,1.732126474E0,3.806425095E0,-1.135436654E0
6.945378666E2,-6.174645424E-1,-1.491008282E0,1.513821840E0
6.950378666E2,1.048699856E0,3.239657402E0,-1.064319849E0
6.955378666E2,-2.696477413E0,-7.873792648E-1,3.772851944E0
6.960378666E2,3.560889721E0,1.808996201E-1,6.945134401E-1
6.965378666E2,-4.639296532E0,-3.492456913E0,3.263579845E0
6.970378666E2,2.930419922E0,2.320612907E0,1.475520730E-1
6.975378666E2,-3.928218365E0,-7.609353065E-1,2.488815039E-1
6.980378666E2,-3.295550346E-1,2.567071438E0,-1.714334488E0
6.985378666E2,1.016571283E0,1.187849045E0,1.460006356E0
6.990378666E2,-7.096133232E-1,2.299631596E0,8.548432589E-2
6.995378666E2,-2.117290497E-1,-1.869731903E0,1.164361000E0
7.000378666E2,7.687325478E-1,8.460083008E-1,-8.553783298E-1
7.005378666E2,-1.004037619E0,-2.701110840E0,2.141170025E0
7.010378666E2,2.547808647E0,-2.483119965E-1,6.288913488E-1
7.015378666E2,-5.337769985E-1,-2.472220421E0,1.216184497E0
7.020378666E2,2.048811913E0,-1.544263840E0,9.008169770E-1
7.025378666E2,3.420672417E-1,-1.232533455E0,8.095057011E-1
7.030378666E2,2.716176987E0,-2.052918434E0,5.014457703E-1
7.035378666E2,1.047991276E0,1.395945549E-1,-2.560410500E-1
7.040378666E2,4.120934963E0,-6.895012856E-1,1.390542984E-1
7.045378666E2,2.420046806E0,2.109613895E0,-9.009087086E-1
7.050378666E2,2.373364925E0,-1.418915272E0,1.499063969E-1
7.055378666E2,2.115712643E0,1.785896301E0,-1.209960461E0
7.060378666E2,1.743328571E0,-6.432018280E-1,1.137130260E0
7.065378666E2,-5.225994587E-1,3.682143211E0,-1.253437281E0
7.070378666E2,1.255132198E0,4.437780380E-1,1.175682545E0
7.075378666E2,5.786330700E-1,2.971297264E0,-9.022952318E-1
7.080378666E2,-1.582760811E-1,9.336061478E-1,1.646215558E0
7.085378666E2,-3.056409359E-1,2.943536282E0,-7.368284464E-1
7.090378666E2,-2.402901888E0,4.859471321E-1,2.421463013E0
7.095378666E2,1.118734360E0,6.450262070E-1,-4.599176049E-1
7.100378666E2,-3.949496746E-1,3.058244705E0,2.909108639E0
7.105378666E2,1.382927895E-1,5.432200432E-1,-2.270843029E0
7.110378666E2,-1.972877502E0,1.277973652E0,1.175669432E-1
7.115378666E2,1.211845875E0,4.063312531E0,-2.847342491E-1
7.120378666E2,-1.185137510E0,-5.363016129E-1,2.115299463E0
7.125378666E2,-3.665163517E-1,3.858696461E0,-1.714082837E0
7.130378666E2,-1.315233707E-1,-2.821836472E-1,1.696025968E0
7.135378666E2,5.516083241E-1,1.838926315E0,-8.607980013E-1
7.140378666E2,6.941709518E-1,-1.355113983E0,-7.050060034E-1
7.145378666E2,2.007656574E0,4.062986374E-1,9.322419763E-2
7.150378666E2,1.616325378E-1,-2.309317589E0,1.145110369E0
7.155378666E2,1.721083403E0,-1.352428436E0,1.245113373E0
7.160378666E2,-4.088020325E-2,-2.123204231E0,1.202891231E0
7.165378666E2,4.717429638E0,-6.628580093E-1,4.031561852E0
7.170378666E2,1.796088219E0,4.383773804E-1,-4.473261833E-1
7.175378666E2,1.445693493E0,-1.866919518E0,6.994190216E-1
7.180378666E2,-5.674343109E-1,4.670653343E-1,-7.262362242E-1
7.185378666E2,2.155641556E0,-1.599083424E0,1.329669595E0
7.190378666E2,8.391389847E-1,3.138794422E0,-8.917171955E-1
7.195378666E2,2.802457809E0,2.816367149E-1,9.585341811E-1
7.200378666E2,1.196905136E0,4.267432690E0,-1.838696241E0
7.205378666E2,-6.746830940E-1,4.875545502E-1,3.463060617E0
7.210378666E2,2.544037819E0,2.968381882E0,-3.058513403E-1
7.215378666E2,-1.911469460E0,9.217405319E-2,2.818574429E0
7.220378666E2,1.816488743E0,9.383869171E-1,6.596573591E-1
7.225378666E2,-1.339600086E0,-2.108306885E0,4.880583763E0
7.230378666E2,2.359647512E0,2.657796383E0,-4.699108601E-1
7.235378666E2,-2.130364180E0,-4.888463020E-1,2.257910490E0
7.240378666E2,1.328877926E0,3.425004482E0,-5.748810768E-1
7.245378666E2,-1.245925903E0,-2.113342285E-1,8.168638349E-1
7.250378666E2,1.912757397E0,3.070471287E0,-1.122765303E0
7.255378666E2,-1.416391373E0,-1.215375900E0,-4.127639532E-2
7.260378666E2,9.692063332E-1,1.530602455E0,1.307664990E0
7.265378666E2,-1.923827171E0,-1.633543015E0,1.052885056E0
7.270378666E2,2.007617474E0,2.766366005E-1,2.155712128E0
7.275378666E2,5.171537399E-2,-1.770532608E0,1.797461629E0
7.280378666E2,2.928207397E0,-4.900054932E-1,1.548922420E0
7.285378666E2,7.505908012E-1,-1.077242851E0,2.060241222E0
7.290378666E2,3.722508430E0,-1.644371510E0,2.362634659E0
7.295378666E2,2.914899349E0,1.345168114E0,3.559776545E-1
7.300378666E2,2.631791115E0,-1.768474102E0,9.732028246E-1
7.305378666E2,1.598728657E0,2.747328758E0,-1.623390794E0
7.310378666E2,2.837069988E0,-1.032990456E0,1.250381470E0
7.315378666E2,9.352302551E-1,3.672038555E0,-2.418141842E0
7.320378666E2,8.567628860E-1,-6.572551727E-1,2.094666719E0
7.325378666E2,7.784452438E-1,3.633601665E0,-1.178694963E0
7.330378666E2,-1.136277676E0,-2.351846695E-1,3.042952538E0
7.335378666E2,8.131127357E-1,2.405757427E0,2.168627679E-1
7.340378666E2,-1.674143791E0,5.607872009E-1,2.969654560E0
7.345378666E2,2.131827354E0,1.107084751E0,-1.103706360E0
7.350378666E2,-2.136004686E0,8.377943039E-1,2.415848494E0
7.355378666E2,-5.881552696E-1,1.064578533E0,-9.132134914E-1
7.360378666E2,-1.815703392E0,7.230830193E-1,2.191411495E0
7.365378666E2,1.055221558E0,3.237171650E0,-1.469133377E0
7.370378666E2,-2.506807804E0,-1.367228985E0,1.818485498E0
7.375378666E2,1.222929955E-1,3.213974476E0,-1.565169692E0
7.380378666E2,-2.037822247E0,-1.788678169E0,9.657720327E-1
7.385378666E2,7.610893250E-2,2.002706051E0,3.225500584E-1
7.390378666E2,-1.886668682E0,-2.707885265E0,5.066344738E-1
7.395378666E2,1.452297449E0,7.127571106E-1,1.542328238E0
7.400378666E2,-8.037199974E-1,-2.191074371E0,1.340304494E0
7.405378666E2,1.670284271E0,-4.112434387E-1,1.849403143E0
7.410378666E2,-7.275104523E-3,-2.499073982E0,1.621656179E0
7.415378666E2,3.140285015E0,-2.261245728E0,3.061364889E0
7.420378666E2,5.905580521E-2,-1.384449005E0,8.555299044E-1
7.425378666E2,3.421829224E0,-2.511046410E0,1.687128544E0
7.430378666E2,3.540825844E-1,1.251027107E0,2.945368290E-1
7.435378666E2,2.974115849E0,-1.230402946E0,1.417091250E0
7.440378666E2,1.690887928E0,3.167429447E0,-2.085168362E-1
7.445378666E2,1.568935871E0,-4.263815880E-1,1.796414495E0
7.450378666E2,1.318753362E0,3.476349354E0,-4.108986855E-1
7.455378666E2,-3.857378960E-1,-1.946141243E0,2.631191730E0
7.460378666E2,8.396182060E-1,1.950652122E0,1.297277808E0
7.465378666E2,-2.051338673E0,-1.824814320E0,3.702760696E0
7.470378666E2,2.014158726E0,1.301643372E0,9.134473801E-1
7.475378666E2,-1.888824940E0,-3.185205460E-1,2.798307896E0
7.480378666E2,1.645860910E0,2.537024975E0,3.380751610E-2
7.485378666E2,-1.352860451E0,-2.324209213E-1,2.141282320E0
7.490378666E2,1.643815279E0,3.443238258E0,-1.698446035E0
7.495378666E2,-1.645311832E0,-1.739285946E0,8.346751332E-1
7.500378666E2,2.036209106E0,2.353542805E0,5.239610672E-1
7.505378666E2,-1.392081261E0,-2.938995361E0,1.294955850E0
7.510378666E2,1.823639870E0,-5.225276947E-1,2.040455341E0
7.515378666E2,-9.998307228E-1,-3.267631054E0,1.298842669E0
7.520378666E2,2.932841063E0,-1.465228081E0,3.527921200E0
7.525378666E2,-3.162326813E-1,-1.816946983E0,1.105784178E0
7.530378666E2,2.938742638E0,-3.030702591E0,2.475825787E0
7.535378666E2,6.482362747E-2,6.262683868E-2,1.106676579E0
7.540378666E2,2.683624744E0,-2.136139870E0,1.911128759E0
7.545378666E2,2.306334972E0,3.728374004E0,1.462953091E-1
7.550378666E2,7.567782402E-1,-1.731524467E-1,2.338214159E0
7.555378666E2,2.063043118E0,3.508411407E0,-1.666961789E0
7.560378666E2,-5.808162689E-1,3.331618309E-1,3.262752056E0
7.565378666E2,2.192678928E0,2.073562622E0,-8.925068974E-1
7.570378666E2,-1.240273476E0,1.625191212E0,4.073535919E0
7.575378666E2,1.639724255E0,-8.573274612E-1,3.220743656E0
7.580378666E2,-1.477715015E0,7.270107269E-1,2.548759460E0
7.585378666E2,9.934866428E-1,-1.658544540E0,2.826250076E0
7.590378666E2,5.076680183E-1,-5.436077118E-1,1.843517780E0
7.595378666E2,9.697229862E-1,1.838907719E0,1.006159782E0
7.600378666E2,-9.333362579E-1,-1.489613533E0,1.464520812E0
7.605378666E2,1.869812131E0,9.000205994E-1,1.189636827E0
7.610378666E2,-6.728119850E-1,-2.362501144E0,8.410986066E-1
7.615378666E2,8.853342533E-1,-1.201196671E0,1.841677666E0
7.620378666E2,9.763464928E-1,-1.833693504E0,1.281683207E0
7.625378666E2,1.277332783E0,-1.845908165E0,4.211896956E-1
7.630378666E2,1.584639072E0,-1.637075424E0,1.352289915E0
7.635378666E2,2.601054192E0,-2.460491180E0,7.044134140E-1
7.640378666E2,1.251013756E0,7.410812378E-1,3.966172934E-1
7.645378666E2,1.908975601E0,-2.295205593E0,8.522613049E-1
7.650378666E2,1.852227688E0,2.654288769E0,-5.310933590E-1
7.655378666E2,1.173080921E0,-1.844093800E0,1.065436125E0
7.660378666E2,1.554134846E0,3.541774750E0,-1.075873256E0
7.665378666E2,-8.441004753E-1,-1.988299370E0,2.123977661E0
7.670378666E2,1.659268379E0,2.792107582E0,-7.932446003E-1
7.675378666E2,-2.201353073E0,-1.551482677E0,2.396614552E0
7.680378666E2,1.081542015E0,1.394374371E0,4.293556213E-1
7.685378666E2,-3.100528717E0,-1.096021175E0,2.762307167E0
7.690378666E2,9.095382690E-1,2.475147247E-1,1.131058216E0
7.695378666E2,-3.016100407E0,-2.800850868E-1,2.261163712E0
7.700378666E2,2.260900974E0,-1.008140564E0,2.180001497E0
7.705378666E2,-1.735328674E0,-1.136801720E0,1.448504925E0
7.710378666E2,2.547224998E0,-2.199723244E0,2.426823616E0
7.715378666E2,-1.545276403E0,-1.698435783E0,9.202359319E-1
7.720378666E2,2.459083557E0,-1.787774563E0,2.238035917E0
7.725378666E2,-6.974945068E-1,-1.872011185E0,2.142766953E0
7.730378666E2,2.454005957E0,2.675056458E-2,1.171398163E0
7.735378666E2,3.466606140E-4,-2.222883224E0,1.493268132E0
7.740378666E2,2.699893951E0,-1.154418945E0,2.083040476E0
7.745378666E2,8.289389610E-1,-1.143625259E0,5.413636565E-1
7.750378666E2,2.372636318E0,-1.430754662E0,1.219490528E0
7.755378666E2,1.410987377E0,2.383031845E-1,8.352226019E-1
7.760378666E2,2.314133167E0,-2.083066463E0,3.473092616E-1
7.765378666E2,1.759128571E0,1.266684055E0,-8.265409470E-1
7.770378666E2,2.030594349E0,-1.423046589E0,6.274380088E-1
7.775378666E2,2.692887068E0,3.846531391E0,-1.664831400E0
7.780378666E2,1.841104984E0,-1.104737759E0,1.804818153E0
7.785378666E2,2.502164841E0,3.395051956E0,-1.585000038E0
7.790378666E2,1.082997322E0,-1.590898514E0,3.025865793E0
7.795378666E2,4.358572483E0,3.812783241E0,-1.164056301E0
7.800378666E2,-1.926674843E-1,-8.660602570E-1,2.720943689E0
7.805378666E2,1.683754921E0,3.254816055E0,-4.402638674E-1
7.810378666E2,-1.896476269E0,-1.641347885E0,3.064040184E0
7.815378666E2,2.713243484E0,2.844216347E0,1.267198324E-1
7.820378666E2,-1.847167492E0,-4.709725380E-1,3.755289793E0
7.825378666E2,1.784330845E0,1.029296398E0,1.525373459E0
7.830378666E2,-1.761215210E0,-6.826858521E-1,4.150781631E0
7.835378666E2,2.944007874E0,-9.557843208E-1,3.689584732E0
7.840378666E2,-8.923087120E-1,-1.205053329E-1,2.703215599E0
7.845378666E2,3.816521168E0,-1.794331551E0,2.809952497E0
7.850378666E2,-1.278911352E0,-1.085135460E0,1.355819225E0
7.855378666E2,2.153552771E0,1.276969910E0,8.593444824E-1
7.860378666E2,-1.394466162E0,-3.177626610E0,3.422493696E0
7.865378666E2,1.143055916E0,-1.392542839E0,-9.602481127E-2
7.870378666E2,-6.413450241E-1,-2.407294273E0,2.585487127E0
7.875378666E2,2.536958694E0,-2.169303894E0,3.731716633E0
7.880378666E2,5.228390694E-1,-5.365371704E-2,1.049981117E-1
7.885378666E2,3.138013363E0,-2.524307251E0,9.553346634E-1
7.890378666E2,2.508981466E0,1.221292496E0,-5.017036200E-1
7.895378666E2,2.324490547E0,-1.700995445E0,2.119999886E0
7.900378666E2,-3.830899596E-1,2.733343601E0,-4.407219887E-1
7.905378666E2,-8.556587696E-1,-9.794692993E-1,7.737354189E-2
7.910378666E2,1.064923763E0,3.248004913E0,1.103260398E0
7.915378666E2,-7.019343376E-1,-4.072284698E-2,4.081641197E0
7.920378666E2,4.042668343E-1,1.472486019E0,4.323816299E-1
7.925378666E2,-2.850990534E0,7.861638069E-1,1.170468688E0
7.930378666E2,1.957324743E0,-3.778734207E-1,1.581776142E0
7.935378666E2,-2.971957445E0,-3.066163063E-1,2.193293571E0
7.940378666E2,1.384374619E0,-1.359693527E0,1.372475028E0
7.945378666E2,-1.790599823E0,-3.619194031E-3,7.839882374E-2
7.950378666E2,2.654099464E0,-1.803693771E0,1.195893288E0
7.955378666E2,-1.626063824E0,-1.173988342E0,-5.994935036E-1
7.960378666E2,3.082531452E0,-2.282838821E0,2.003929138E0
7.965378666E2,-1.594611168E0,-2.326696396E0,-9.599456787E-1
7.970378666E2,1.474498272E0,-1.966930389E0,1.702397704E0
7.975378666E2,-1.576990604E0,-2.728422165E0,2.785714269E-1
7.980378666E2,1.699612856E0,-1.157521248E0,1.792504311E0
7.985378666E2,9.806728363E-2,-1.865123749E0,3.590069413E-1
7.990378666E2,2.999933720E0,-2.016283989E0,1.623623490E0
7.995378666E2,6.243495941E-1,-4.477787018E-2,6.790471077E-2
8.000378666E2,3.043884277E0,-1.912048340E0,2.378437519E0
8.005378666E2,1.673660040E0,1.522427082E0,4.418897629E-2
8.010378666E2,1.003228664E0,-1.546928883E0,1.454053998E0
8.015378666E2,1.970616341E0,3.130532742E0,-8.514423370E-1
8.020378666E2,1.045742035E-1,-1.772967815E0,6.062040329E-1
8.025378666E2,4.294905663E0,3.288967609E0,-1.057123184E0
8.030378666E2,-1.592183590E0,-2.810605526E0,2.314962626E0
8.035378666E2,3.086135864E0,2.706028938E0,1.000950098E0
8.040378666E2,-3.972095728E0,-3.311986923E0,1.498737931E0
8.045378666E2,1.640047789E0,1.114724159E0,1.451863527E0
8.050378666E2,-4.274019241E0,-2.842856407E0,1.780854702E0
8.055378666E2,2.011734724E0,-7.416343689E-1,3.095091343E0
8.060378666E2,-4.182015419E0,-1.731698036E0,1.594553351E0
8.065378666E2,2.181419373E0,-2.140077591E0,2.966408491E0
8.070378666E2,-3.423632145E0,-1.263909340E0,3.641631603E-1
8.075378666E2,1.430981636E0,-2.582421303E0,1.364024162E0
8.080378666E2,-2.845064878E0,-2.304289341E0,-1.716157317E0
8.085378666E2,3.295571804E0,-1.950131416E0,2.728795767E0
8.090378666E2,-1.923176289E0,-2.486350060E0,2.149479091E-1
8.095378666E2,1.087781906E0,-1.494397163E0,3.443422794E0
8.100378666E2,-1.138427734E0,-2.465785027E0,6.725687385E-1
8.105378666E2,-1.308658123E0,-3.424849510E-1,3.907997608E0
8.110378666E2,-2.916855812E-1,-3.972492218E-1,-6.722736359E-2
8.115378666E2,3.434700012E0,-1.790940285E0,2.259019852E0
8.120378666E2,2.644279957E0,2.900768757E0,1.208637953E0
8.125378666E2,1.619829178E0,-9.508061409E-1,1.107834458E0
8.130378666E2,2.278590679E0,4.110332012E0,9.529590607E-3
8.135378666E2,-1.304677010E0,-8.402223587E-1,2.381014109E0
8.140378666E2,1.367954731E0,1.304668903E0,1.588200450E0
8.145378666E2,-3.075527430E0,5.812029839E-1,1.193457842E0
8.150378666E2,2.100508690E0,-2.797858238E0,2.250205040E0
8.155378666E2,-2.449059963E0,-1.403326988E0,1.990844727E0
8.160378666E2,3.711306572E0,-1.916316032E0,-4.600021839E-1
8.165378666E2,-1.694813967E0,-2.030623436E0,1.637404561E-1
8.170378666E2,2.186703205E0,-2.357727528E0,1.496257305E0
8.175378666E2,-1.444951534E0,-3.174623489E0,-2.228528261E-3
8.180378666E2,-7.321176529E-1,-1.559985638E0,1.950530291E0
8.185378666E2,1.248184681E0,-1.486639023E0,1.467933774E0
8.190378666E2,-1.523916721E0,-3.103220463E0,2.319165707E0
8.195378666E2,1.090839386E0,-7.175016403E-1,1.498722076E0
8.200378666E2,-3.963570118E0,-2.218420029E0,3.073420048E0
8.205378666E2,3.462309361E0,1.020858765E0,1.579356551E0
8.210378666E2,-3.078930855E0,-1.262204647E0,2.900116682E0
8.215378666E2,3.312158823E0,3.918528080E0,-3.847284317E-1
8.220378666E2,-2.389799833E0,-1.336736679E0,9.108192325E-1
8.225378666E2,3.513156176E0,3.397731781E0,-1.160268426E0
8.230378666E2,-2.465639591E0,-9.270181656E-1,-1.254537106E-1
8.235378666E2,2.070085764E0,2.018957615E0,9.767249227E-1
8.240378666E2,-3.760404110E0,-2.036149979E0,3.245213032E0
8.245378666E2,3.200954437E0,-5.159378052E-4,2.829795122E0
8.250378666E2,-1.857240438E0,-1.475681305E0,4.858983994E0
8.255378666E2,3.266504765E0,-3.020025253E0,3.012762070E0
8.260378666E2,-1.158173323E0,-1.589718819E0,2.440135479E-1
8.265378666E2,1.541765690E0,-3.119692802E0,9.470875263E-1
8.270378666E2,-1.137727737E0,-1.758960724E0,1.340857744E-1
8.275378666E2,4.829835892E-1,-1.310033321E0,1.803764105E0
8.280378666E2,-6.041917801E-1,-1.842013359E0,-5.914915800E-1
8.285378666E2,-1.186089516E-1,8.735442162E-1,2.585241079E0
8.290378666E2,4.456882477E-1,-6.600894928E-1,-1.016424537E0
8.295378666E2,-1.840832949E0,1.507898808E0,1.745794058E0
8.300378666E2,2.076662779E0,1.591495037E0,3.801895380E-1
8.305378666E2,-3.236603022E0,-1.417083740E-1,2.973991156E0
8.310378666E2,3.107656479E0,2.712931156E0,-1.168554306E0
8.315378666E2,-2.713966608E0,-5.835828781E-1,5.647282004E-1
8.320378666E2,3.196227074E0,3.187544346E0,-1.850508928E0
8.325378666E2,-3.460461378E0,-2.801569939E0,3.708503544E-1
8.330378666E2,2.914076328E0,2.409963131E0,2.964254022E-1
8.335378666E2,-1.510278702E0,-2.162658691E0,-3.551813960E-2
8.340378666E2,2.370703459E0,-6.149864197E-2,1.989889503E0
8.345378666E2,-1.689190865E-1,-2.360877037E0,3.048577607E-1
8.350378666E2,2.633126259E0,-1.791079521E0,2.288991690E0
8.355378666E2,3.346233368E-1,-1.569746494E0,6.076219678E-1
8.360378666E2,3.352520466E0,-1.162947655E0,1.367541194E0
8.365378666E2,-1.597828865E0,-1.453147888E0,8.512121439E-1
8.370378666E2,2.412317276E0,-2.414579868E0,3.308839798E-1
8.375378666E2,-1.175029278E0,-2.117878914E0,3.982470930E-1
8.380378666E2,9.728631973E-1,-2.054984570E0,1.244126081E0
8.385378666E2,-8.456888199E-1,-2.122876167E0,9.017544389E-1
8.390378666E2,-1.731762409E0,-3.354840279E-1,1.967184663E0
8.395378666E2,6.198348999E-1,4.611272812E-1,7.910025120E-2
8.400378666E2,-3.126425266E0,5.195379257E-2,2.170294762E0
8.405378666E2,1.823001862E0,3.024219513E0,-1.629640460E0
8.410378666E2,-2.100770950E0,-5.466718674E-1,1.432778239E0
8.415378666E2,2.720191956E0,3.708257675E0,-5.273048878E-1
8.420378666E2,-2.579656124E0,-1.569942474E0,7.353836298E-2
8.425378666E2,2.433475733E0,1.509086609E0,5.959396362E-1
8.430378666E2,-2.358862877E0,-2.834498405E0,4.317331314E-2
8.435378666E2,2.042673588E0,2.906703949E-2,2.189602137E0
8.440378666E2,-1.787037849E-1,-2.150657654E0,1.016446590E0
8.445378666E2,7.935938835E-1,-2.683418274E0,2.919082880E0
8.450378666E2,4.881606102E-1,-1.268067360E0,1.501072049E0
8.455378666E2,2.102809429E0,-3.045296192E0,2.731038570E0
8.460378666E2,1.882536650E0,9.922561646E-1,6.005053520E-1
8.465378666E2,1.463012218E0,-2.480711460E0,1.852374077E0
8.470378666E2,4.157068253E0,2.191315174E0,1.007772088E0
8.475378666E2,-1.023502350E-1,-3.595805645E0,2.027351379E0
8.480378666E2,3.859537363E0,3.318602085E0,1.081230640E-1
8.485378666E2,-2.390579700E0,-3.147523403E0,2.107500076E0
8.490378666E2,1.703925848E0,-1.312103271E-1,1.720724225E0
8.495378666E2,-3.835426331E0,-2.638337135E0,2.206658125E0
8.500378666E2,3.553531647E0,2.441760540E0,-1.875871420E-1
8.505378666E2,-2.857955456E0,-2.086572647E0,2.278793573E0
8.510378666E2,2.998337507E0,3.514920712E0,-1.928809285E0
8.515378666E2,-9.621305466E-1,-6.551322937E-1,7.123833895E-1
8.520378666E2,1.792869806E0,2.687048435E0,3.652977943E-2
8.525378666E2,-9.772150517E-1,-1.512122154E0,1.589479744E-1
8.530378666E2,2.499662876E0,-3.986444473E-1,2.444715738E0
8.535378666E2,-1.430304527E0,-1.735898018E0,1.244540811E0
8.540378666E2,2.134624481E0,-2.501078606E0,3.207046747E0
8.545378666E2,5.314636230E-2,-1.455702782E0,1.501365662E0
8.550378666E2,1.705424786E0,-3.057861328E0,2.325953007E0
8.555378666E2,1.779879570E0,1.500911713E-1,1.364239216E0
8.560378666E2,1.448461533E0,-2.658660889E0,1.830667019E0
8.565378666E2,2.766862869E0,3.721808910E0,-2.197704315E-1
8.570378666E2,1.799546242E0,-4.960203171E-2,1.477463245E0
8.575378666E2,2.427330017E0,4.164875984E0,-1.679679513E0
8.580378666E2,1.649284363E-2,1.051977634E0,3.783703566E0
8.585378666E2,1.192023873E0,1.302179337E0,1.543774128E0
8.590378666E2,-2.600904226E0,1.580848694E-1,2.728404045E0
8.595378666E2,1.636730671E0,-5.529451370E-1,1.564703107E0
8.600378666E2,-2.569826365E0,9.858036041E-2,2.143411160E0
8.605378666E2,2.143551826E0,-2.653918266E0,2.676844358E0
8.610378666E2,-1.940731764E0,-1.458261490E0,1.169687510E0
8.615378666E2,3.181247234E0,-2.437855721E0,1.287420750E0
8.620378666E2,-1.149340868E0,-1.770186424E0,4.431796074E-1
8.625378666E2,2.129501343E0,3.283777237E-1,2.085218906E0
8.630378666E2,-9.537229538E-1,-2.099022865E0,-1.014728546E-1
8.635378666E2,1.802132130E0,-2.116611481E0,2.241450548E0
8.640378666E2,5.114407539E-1,-9.250345230E-1,-2.005093098E-1
8.645378666E2,2.337003708E0,-2.750615120E0,2.353296280E0
8.650378666E2,1.423928738E0,1.361289978E0,-1.544680595E-1
8.655378666E2,3.241372108E0,-1.865324020E0,1.417788625E0
8.660378666E2,2.003076792E0,3.311361313E0,-1.227432013E0
8.665378666E2,1.885452271E0,-1.200415134E0,2.885411263E0
8.670378666E2,2.761471272E0,4.124489784E0,-2.027696371E0
8.675378666E2,-9.829168320E-1,-9.840836525E-1,4.369923592E0
8.680378666E2,3.793134928E0,2.089845181E0,-2.249341607E-1
8.685378666E2,-2.798866510E0,-1.321679115E0,4.712819099E0
8.690378666E2,3.664637566E0,4.088325500E-1,1.520199895E0
8.695378666E2,-2.158140182E0,-3.351135254E-1,1.328875542E0
8.700378666E2,3.712806225E0,-2.086339951E0,1.888116837E0
8.705378666E2,-1.751929045E0,-1.246122360E0,1.341204405E0
8.710378666E2,3.405658007E0,-2.152701378E0,1.968331337E0
8.715378666E2,-1.322869539E0,-1.564121246E0,1.155125737E0
8.720378666E2,2.744096279E0,-1.268843651E0,2.650056839E0
8.725378666E2,3.061447144E-1,-1.837693214E0,-1.511815786E-1
8.730378666E2,8.355989456E-1,1.231567860E0,9.111782312E-1
8.735378666E2,1.741486549E0,-5.679950714E-1,8.646757007E-1
8.740378666E2,-2.427716970E0,8.075032234E-1,1.819467068E0
8.745378666E2,2.231816292E0,2.030508041E0,-3.833636045E-1
8.750378666E2,2.663534164E0,-2.008318901E0,8.350816965E-1
8.755378666E2,2.796789169E0,3.596667767E0,-1.810412526E0
8.760378666E2,9.163379669E-1,-8.246421814E-3,1.824540973E0
8.765378666E2,2.113282681E0,3.295865536E0,-6.536487341E-1
8.770378666E2,-1.537976742E0,8.560657501E-3,2.889035940E0
8.775378666E2,1.594288826E0,1.658684254E0,6.495256424E-1
8.780378666E2,-2.749465466E0,5.516052246E-1,2.512228251E0
8.785378666E2,9.732666016E-1,-1.200892448E0,1.859375238E0
8.790378666E2,-2.538938761E0,1.756029129E-1,1.685554028E0
8.795378666E2,1.759707451E0,-2.750014305E0,1.342216730E0
8.800378666E2,-6.802663803E-1,-2.353461266E0,-1.508040428E0
8.805378666E2,7.664318085E-1,-3.170409679E0,1.664927125E0
8.810378666E2,3.836014271E-1,-1.877450943E0,7.782994509E-1
8.815378666E2,-8.809723854E-1,-3.389131069E0,1.551374078E0
8.820378666E2,1.094307899E0,-1.550723076E0,1.041994691E0
8.825378666E2,-1.631973267E0,-1.982275486E0,2.665232420E0
8.830378666E2,1.942097664E0,4.766216278E-1,1.103389025E0
8.835378666E2,-3.174450636E0,-1.060465336E0,2.981587648E0
8.840378666E2,1.192492008E0,2.697277546E0,-8.335560560E-1
8.845378666E2,-2.724624634E0,-4.772419930E-1,1.427920341E0
8.850378666E2,2.794960737E0,3.388953686E0,-3.586804867E-1
8.855378666E2,-2.736631155E0,-1.356515884E0,6.328265071E-1
8.860378666E2,2.814540148E0,2.357013226E0,1.266020536E-1
8.865378666E2,-2.111543179E0,-2.128083229E0,4.433711767E-1
8.870378666E2,1.680763960E0,-1.088590622E-1,2.084823608E0
8.875378666E2,-4.648644447E0,-1.675038815E0,2.571055174E0
8.880378666E2,1.841279984E0,4.896726608E-1,2.671011925E0
8.885378666E2,-4.542766571E0,-2.962187290E0,2.010588884E0
8.890378666E2,2.569909573E0,-3.033195496E0,2.439559460E0
8.895378666E2,-3.260460138E0,-1.271965981E0,9.671843052E-2
8.900378666E2,2.341466427E0,-3.522609711E0,2.955780983E0
8.905378666E2,-2.482929707E0,-1.211878777E0,-1.715107858E-1
8.910378666E2,1.358015060E0,-2.788162708E0,3.981657505E0
8.915378666E2,-1.047700882E0,-1.763736725E0,-1.981707215E-1
8.920378666E2,1.164040565E0,-3.936773300E0,2.735275269E0
8.925378666E2,2.725288868E-1,-2.091501236E0,1.056049347E0
8.930378666E2,-3.336458206E-1,-4.487514496E-1,2.635374784E0
8.935378666E2,4.629508257E-1,-1.697106361E0,5.838982463E-1
8.940378666E2,-3.958691120E0,-1.161937714E0,2.279885769E0
8.945378666E2,3.733280182E0,4.110994339E-1,1.092289686E-1
8.950378666E2,-4.369999886E0,-1.630898476E0,3.248946667E0
8.955378666E2,5.271001816E0,2.494590759E0,-1.762337685E0
8.960378666E2,-2.974454165E0,-1.165432930E0,1.142563343E0
8.965378666E2,4.788420677E0,3.250799179E0,-1.204281092E0
8.970378666E2,-2.398204803E0,-5.363149643E-1,-7.277982235E-1
8.975378666E2,1.926060915E0,1.724157810E0,2.441779137E0
8.980378666E2,-2.819097757E0,-1.421847343E0,-1.025581434E-1
8.985378666E2,2.747104645E0,-6.778154373E-1,4.707701206E0
8.990378666E2,-5.178885460E-1,-1.128855705E0,1.635544181E0
8.995378666E2,2.575413227E0,-1.141317368E0,4.032395363E0
9.000378666E2,1.988738775E0,-1.379253387E0,8.991320133E-1
9.005378666E2,2.841986179E0,-3.296662331E0,3.023080826E0
9.010378666E2,-2.556457043E0,-2.024609566E0,2.527916431E-2
9.015378666E2,1.977561474E0,-3.151809692E0,1.627063751E0
9.020378666E2,-1.607875824E0,-1.148663521E0,-5.547542572E-1
9.025378666E2,5.761432648E-2,-3.251708984E0,1.000878334E0
9.030378666E2,-1.601076126E-2,-1.746520042E0,-1.566144228E-1
9.035378666E2,-1.635988235E0,-2.847759724E0,9.972044826E-1
9.040378666E2,8.935143948E-1,-1.470613480E0,7.413904667E-1
9.045378666E2,-2.423514843E0,-1.341650486E0,1.694750428E0
9.050378666E2,1.691516399E0,-8.387575150E-1,2.941831112E0
9.055378666E2,-4.297398567E0,-8.463740349E-1,2.798982143E0
9.060378666E2,9.122481346E-1,1.904613972E0,-2.152624369E0
9.065378666E2,-2.907184839E0,1.270181656E0,5.351495147E-1
9.070378666E2,1.728121281E0,3.479537010E0,-8.113167286E-1
9.075378666E2,-2.385710716E0,-6.589756012E-1,-1.105888709E-1
9.080378666E2,1.946786761E0,3.055699825E0,-7.197844982E-1
9.085378666E2,-8.424992561E-1,-1.160378456E0,-7.005479336E-1
9.090378666E2,2.017118931E0,8.618021011E-1,9.964625239E-1
9.095378666E2,-2.557449341E-1,-1.788913727E0,-1.395929217E0
9.100378666E2,2.223932743E0,-8.090877533E-1,2.413803577E0
9.105378666E2,-1.542948723E0,-1.940804482E0,-2.134799957E-3
9.110378666E2,2.752134800E0,-2.348865509E0,1.644973755E0
9.115378666E2,7.480289936E-1,-1.135025024E-1,6.227858067E-1
9.120378666E2,2.549838543E0,-1.971064568E0,1.705504179E0
9.125378666E2,1.109780312E0,2.082073689E0,-1.877527475E0
9.130378666E2,1.802318573E0,-1.393210411E0,6.398516893E-1
9.135378666E2,-9.402732849E-1,-2.312206268E0,4.085205793E-1
9.140378666E2,-8.864212036E-1,-1.634440899E0,7.750208378E-1
9.145378666E2,-8.234882355E-2,-2.549622536E0,8.535567522E-1
9.150378666E2,-1.716520786E0,-1.716942310E0,2.032730818E0
9.155378666E2,8.151760101E-1,-9.146804810E-1,1.795860529E-1
9.160378666E2,-3.948617935E0,-1.412769794E0,1.200135350E0
9.165378666E2,1.753737211E0,2.255351543E0,8.437076211E-1
9.170378666E2,-2.997601509E0,-7.213220596E-1,2.009525537E0
9.175378666E2,1.430504799E0,3.527728558E0,-1.330944419E0
9.180378666E2,-4.044869900E0,-1.901966095E0,8.378916979E-1
9.185378666E2,8.463549614E-1,1.961287498E0,-6.828560233E-1
9.190378666E2,-7.167954445E-1,-2.082004547E0,1.280832529E0
9.195378666E2,2.512495995E0,6.232242584E-1,2.044107437E0
9.200378666E2,4.677052498E-1,-2.136169434E0,-3.264141083E-2
9.205378666E2,1.291694641E0,-2.678888321E0,2.770932674E0
9.210378666E2,1.874634981E0,-7.873144150E-1,-2.583612800E-1
9.215378666E2,3.032213211E0,-1.160202980E0,1.953931093E0
9.220378666E2,1.655033112E0,1.981420994E0,-4.994847775E-1
9.225378666E2,1.296112061E0,-1.181825161E0,1.190112114E0
9.230378666E2,1.573484063E0,3.775626183E0,-1.416822910E0
9.235378666E2,-1.962495804E0,6.851792336E-1,3.164135933E0
9.240378666E2,1.745865583E0,8.958415985E-1,2.564904213E0
9.245378666E2,-2.015402079E0,4.593291283E-1,2.274473190E0
9.250378666E2,1.705373764E0,-1.673565865E0,1.160655737E0
9.255378666E2,-1.825491786E0,-5.529747009E-1,9.318436384E-1
9.260378666E2,2.265188694E0,3.010584831E0,-6.448538303E-1
9.265378666E2,-3.660507917E0,-2.933820724E0,7.836753130E-1
9.270378666E2,1.399338484E0,-6.261539459E-2,1.590690374E0
9.275378666E2,-1.141432762E0,-2.455934525E0,7.329367399E-1
9.280378666E2,2.154613018E0,-2.297604561E0,2.267560005E0
9.285378666E2,8.797538280E-1,-1.078573227E0,7.235865593E-1
9.290378666E2,2.308318615E0,-2.502933502E0,1.585033536E0
9.295378666E2,1.946408272E0,1.301948547E0,-3.045423031E-1
9.300378666E2,2.093269348E0,-1.785832405E0,8.174965978E-1
9.305378666E2,2.822479010E0,3.261030674E0,-7.347812653E-1
9.310378666E2,-2.627801895E-2,-9.392437935E-1,9.021337628E-1
9.315378666E2,2.140696526E0,3.520661831E0,-1.012893558E0
9.320378666E2,-2.596894741E0,-4.809780121E-1,2.321746349E0
9.325378666E2,1.306020975E0,9.355764389E-1,1.022920728E0
9.330378666E2,-2.844187737E0,5.396003723E-1,1.960271120E0
9.335378666E2,2.265877247E0,-1.485159874E0,1.456337690E0
9.340378666E2,-2.786922216E0,-2.389078140E-1,1.026355982E0
9.345378666E2,2.043842793E0,-2.568950653E0,1.588515997E0
9.350378666E2,-7.742974758E-1,-1.485054016E0,-5.506631732E-1
9.355378666E2,3.382476807E0,-2.193516731E0,1.812759042E0
9.360378666E2,-1.989004850E0,-3.256406784E0,3.273589015E-1
9.365378666E2,2.130551815E0,-1.437816620E0,2.031127691E0
9.370378666E2,-1.363010406E0,-2.835995674E0,2.268564701E0
9.375378666E2,-1.130542755E-1,-8.436446190E-1,2.223687172E0
9.380378666E2,9.980633259E-1,-1.335900307E0,2.692651749E0
9.385378666E2,2.393877506E0,-2.641061783E0,2.194350958E0
9.390378666E2,9.483354092E-1,7.256021500E-1,-2.802928686E-1
9.395378666E2,2.047887802E0,-2.359292030E0,2.064690113E0
9.400378666E2,2.066329479E0,2.034768581E0,4.888057709E-3
9.405378666E2,1.238018036E0,-2.224437714E0,1.716539383E0
9.410378666E2,3.439081192E0,3.317024708E0,-1.657234311E0
9.415378666E2,3.919029236E-1,-1.547054768E0,3.065868378E0
9.420378666E2,3.170809746E-1,2.902490139E0,1.433252573E0
9.425378666E2,-4.284286499E-1,-2.585977793E0,6.096134782E-1
9.430378666E2,3.012353659E0,3.105303288E0,-6.954783201E-1
9.435378666E2,-2.891789913E0,-3.910069942E0,2.268126488E0
9.440378666E2,2.765954971E0,2.471596241E0,1.014068723E0
9.445378666E2,-3.994012356E0,-4.230415344E0,2.643696308E0
9.450378666E2,3.567681789E0,1.607324600E0,9.679344893E-1
9.455378666E2,-4.361941338E0,-7.632384300E-1,3.298212051E0
9.460378666E2,1.857837200E0,-2.705221176E-1,3.963447809E0
9.465378666E2,-3.262185574E0,1.046943665E-1,7.229561806E-1
9.470378666E2,2.216971397E0,-8.168973923E-1,2.392185688E0
9.475378666E2,-1.272823095E0,2.038927078E-1,1.903106451E0
9.480378666E2,3.389907837E0,-3.121217728E0,1.190857172E0
9.485378666E2,-5.832874775E-1,-6.931180954E-1,-1.853662431E-1
9.490378666E2,2.270094395E0,-1.011479378E0,4.219859242E-1
9.495378666E2,-1.947818041E0,-2.218923569E0,1.902261972E0
9.500378666E2,1.866209507E0,-4.302053452E-1,7.669119239E-1
9.505378666E2,2.355036736E-1,-1.628362656E0,1.947128773E0
9.510378666E2,-3.201829433E0,-1.142789364E0,4.360989928E-1
9.515378666E2,1.239065886E0,-5.133037567E-1,9.576745033E-1
9.520378666E2,3.325258255E0,-2.405727863E0,1.470545411E0
9.525378666E2,2.224191189E0,2.260296822E0,-3.530726433E-1
9.530378666E2,2.778506756E0,-9.676403999E-1,3.804707527E-1
9.535378666E2,3.476871252E0,4.037166595E0,-1.063631177E0
9.540378666E2,-4.348912239E-1,-1.803092480E0,1.689860940E0
9.545378666E2,2.737433910E0,3.259931564E0,5.974240303E-1
9.550378666E2,-4.305737495E0,-1.037902355E0,1.243883729E0
9.555378666E2,2.447334290E0,-2.839345932E-1,1.826026917E0
9.560378666E2,-3.608490944E0,-7.725653648E-1,1.137741327E0
9.565378666E2,2.609004974E0,-1.721301079E0,2.652679443E0
9.570378666E2,-2.161166668E0,-2.721616745E0,-3.826957345E-1
9.575378666E2,1.882954597E0,-1.713958740E0,6.493382454E-1
9.580378666E2,-2.462735653E0,-1.410274506E0,3.965858221E-1
9.585378666E2,-4.317908287E-1,-6.309990883E-1,2.219909906E0
9.590378666E2,9.573078156E-2,-2.122063637E0,1.953780293E0
9.595378666E2,-1.332813740E0,-1.142675877E0,1.541359901E0
9.600378666E2,1.086560011E0,-3.583841324E-1,4.802276790E-1
9.605378666E2,-3.314826965E0,-6.343317032E-1,3.067466497E0
9.610378666E2,3.559500217E0,1.703688622E0,2.446788549E-1
9.615378666E2,-4.475910187E0,-1.267018795E0,2.098882675E0
9.620378666E2,2.808016062E0,3.543686390E0,-4.497396946E-1
9.625378666E2,-2.988541365E0,-6.511840820E-1,2.173174620E-1
9.630378666E2,2.805200100E0,3.442997456E0,1.063823700E-2
9.635378666E2,-3.153463364E0,-1.386447906E0,-1.037708282E0
9.640378666E2,1.885384798E0,9.160070419E-1,1.968451142E0
9.645378666E2,-4.727031708E0,-2.937206268E0,2.056828499E0
9.650378666E2,2.163069487E0,-7.145633698E-1,3.194006443E0
9.655378666E2,-4.642018318E0,-3.509510994E0,1.982496858E0
9.660378666E2,1.700096130E0,-2.117527962E0,3.355225086E0
9.665378666E2,-3.251011610E0,-1.863830566E0,7.665836811E-2
9.670378666E2,1.555601597E0,-3.449295998E0,3.479035139E0
9.675378666E2,-3.505301476E0,-1.999504089E0,-5.901529193E-1
9.680378666E2,3.128787518E0,-2.064453125E0,3.268243074E0
9.685378666E2,-1.741198540E0,-2.643119812E0,1.693650484E0
9.690378666E2,7.917175293E-1,-1.513969421E0,2.227453709E0
9.695378666E2,-4.904217720E-1,-2.621867180E0,-5.614939928E-1
9.700378666E2,-6.564712524E-2,9.031882286E-1,2.333923101E0
9.705378666E2,1.701295376E0,-2.983198166E-1,5.885807276E-1
9.710378666E2,1.125679016E-1,9.266099930E-1,1.301426530E0
9.715378666E2,-3.595294952E-1,-7.967805862E-1,-5.011088252E-1
9.720378666E2,-6.701302528E-2,2.524681568E0,2.336434603E0
9.725378666E2,-1.331987619E0,1.831397533E0,-1.556035161E0
9.730378666E2,-1.403854370E0,2.298094749E0,2.941975594E0
9.735378666E2,3.198035955E0,2.781653881E0,-6.332800388E-1
9.740378666E2,-2.656509638E0,6.447019577E-1,1.575453877E0
9.745378666E2,2.018717289E0,3.328532696E0,-1.446015000E0
9.750378666E2,-1.139839411E0,-2.173986435E-1,-9.661495686E-2
9.755378666E2,2.614787102E0,2.438609123E0,1.004331946E0
9.760378666E2,-1.022855282E0,-1.762941360E0,-3.908495903E-1
9.765378666E2,1.833029747E0,9.409904480E-1,1.674956560E0
9.770378666E2,-2.284247637E0,7.908158302E-1,1.513609171E0
9.775378666E2,2.042710543E0,-9.826126099E-1,7.450603247E-1
9.780378666E2,-2.862886190E0,-1.092530251E0,1.748742819E0
9.785378666E2,2.015686035E0,-7.291870117E-1,1.627453804E0
9.790378666E2,-3.343344927E0,-2.110873222E0,3.378799558E-1
9.795378666E2,3.813115597E0,-2.317688942E0,1.084931970E0
9.800378666E2,-2.864526272E0,-2.016617775E0,1.451606750E0
9.805378666E2,2.070730686E0,-2.548115730E0,1.546309352E0
9.810378666E2,-3.265931606E0,-2.436307907E0,-5.545446277E-1
9.815378666E2,1.696648121E0,-1.985826492E0,6.865900755E-2
9.820378666E2,-1.214218378E0,-1.800998688E0,-7.170438766E-5
9.825378666E2,-1.471066475E-1,-1.412286282E0,9.368625879E-1
9.830378666E2,-4.005541801E-1,-1.525103569E0,7.408075333E-1
9.835378666E2,-1.802334785E0,-1.199201584E0,2.151569366E0
9.840378666E2,1.455725193E0,3.773689270E-1,6.839261055E-1
9.845378666E2,-3.391371965E0,-1.016485691E0,3.157499790E0
9.850378666E2,2.017948866E0,2.489869595E0,-2.760341167E-1
9.855378666E2,-3.682080030E0,-1.501983166E0,1.907617331E0
9.860378666E2,1.663237572E0,3.847167492E0,-1.503715396E0
9.865378666E2,-2.276558638E0,-9.851322174E-1,9.634265900E-1
9.870378666E2,2.385717869E0,3.197573662E0,2.398312092E-1
9.875378666E2,-2.584625483E0,-1.604382515E0,-7.402153015E-1
9.880378666E2,1.731201887E0,1.366533279E0,2.114724398E0
9.885378666E2,-2.076617002E0,-2.770764351E0,2.106410503E0
9.890378666E2,2.458786249E0,-1.163459778E0,2.213754416E0
9.895378666E2,-1.232774734E0,-2.406447411E0,1.031218410E0
9.900378666E2,2.926279068E0,-1.810763359E0,2.189942360E0
9.905378666E2,-2.330083132E0,-5.381774902E-1,2.310385466E0
9.910378666E2,2.572597504E0,-1.819955826E0,2.198896885E0
9.915378666E2,-2.116124630E0,-1.328532219E0,1.393446445E0
9.920378666E2,2.872380018E0,-1.922533035E0,2.265579224E0
9.925378666E2,-2.422246933E0,-1.774257660E0,4.527303576E-1
9.930378666E2,3.093988895E0,-2.211562157E0,2.241308928E0
9.935378666E2,-2.984040976E0,-1.836688995E0,9.926083684E-1
9.940378666E2,2.483180046E0,-2.554450035E0,2.889276743E0
9.945378666E2,-3.163048506E0,-2.046684265E0,8.890337348E-1
9.950378666E2,2.208562851E0,-1.880245209E-1,2.525253057E0
9.955378666E2,-8.194811344E-1,9.514036179E-1,8.333992958E-1
9.960378666E2,1.359627247E0,-6.934709549E-1,2.143083096E0
9.965378666E2,-2.463076830E0,-2.879123688E-1,3.137740135E0
9.970378666E2,1.477300525E0,8.816881180E-1,7.429699898E-1
9.975378666E2,-1.808204174E0,-8.900198936E-1,2.712238789E0
9.980378666E2,-1.052176476E0,-2.714204788E-2,1.688510299E0
9.985378666E2,-3.055315018E-1,-4.584283829E0,-4.117764235E-1
9.990378666E2,5.271559238E0,-1.289687991E0,-1.715476036E0
9.995378666E2,9.846009016E-1,-8.258144855E-1,-8.820972443E-1
