"Time (s)","Acceleration x (m/s^2)","Acceleration y (m/s^2)","Acceleration z (m/s^2)"
0.000000000E0,-1.079761267E0,7.002595425E0,7.435696602E0
1.984797300E-2,-9.224331379E-1,7.106683254E0,7.463811874E0
5.198479730E-1,-1.399801224E-1,5.452046394E0,7.381259441E0
1.019847973E0,-1.429113269E0,5.630909920E0,1.148195934E1
1.519847973E0,-4.223332107E-1,4.135993958E0,5.667998791E0
2.019847973E0,-2.191825628E0,5.980261803E0,6.501897335E0
2.519847973E0,-5.389832854E-1,6.538387775E0,7.524230957E0
3.019847973E0,-6.795616150E-1,4.991427898E0,8.560322762E0
3.519847973E0,8.823533654E-1,5.993422508E0,8.068597794E0
4.019847973E0,4.863412082E-1,5.328217983E0,9.023932457E0
4.519847973E0,1.135992527E0,4.456632137E0,7.756334782E0
5.019847973E0,1.149751306E0,4.021736622E0,7.783253670E0
5.519847973E0,1.015753269E0,4.614558697E0,8.754141808E0
6.019847973E0,1.007976532E0,4.643870354E0,8.868997574E0
6.519847973E0,1.398604870E0,4.756931305E0,8.060222626E0
7.019847973E0,4.175475538E-1,3.887738705E0,8.829515457E0
7.519847973E0,-8.865407705E-1,3.538386583E0,8.789435387E0
8.019847973E0,-7.100701332E-1,3.449253798E0,8.909674644E0
8.519847973E0,-1.021137118E0,3.848855257E0,9.605986595E0
9.019847973E0,-1.087537885E0,3.388236761E0,8.748159409E0
9.519847973E0,-1.721635938E0,3.702893019E0,9.034101486E0
1.001984797E1,-2.134397745E0,3.397808075E0,9.030512810E0
1.051984797E1,-1.352542996E0,3.624528170E0,8.133802414E0
1.101984797E1,-1.606780410E0,3.428316593E0,9.553942680E0
1.151984797E1,-1.831107497E0,3.854238987E0,7.042675018E0
1.201984797E1,-2.383251429E0,4.427918434E0,9.895518303E0
1.251984797E1,-1.866401672E0,3.609572887E0,9.362516403E0
1.301984797E1,-1.527817249E0,4.080958843E0,8.756534576E0
1.351984797E1,-1.767697692E0,3.824927092E0,8.602795601E0
1.401984797E1,-1.381855130E0,4.359723091E0,6.751348972E0
1.451984797E1,-2.295913219E0,4.886143684E0,9.071788788E0
1.501984797E1,-1.433898926E0,4.283152580E0,8.819944382E0
1.551984797E1,-1.593619823E0,4.272384644E0,8.313861847E0
1.601984797E1,-1.475773335E0,4.480560303E0,9.167501450E0
1.651984797E1,-1.118046403E0,4.615156651E0,8.204390526E0
1.701984797E1,-1.003190875E0,5.469992638E0,1.009472084E1
1.751984797E1,-1.638485312E0,4.195814610E0,1.058764172E1
1.801984797E1,-7.657032609E-1,4.549354076E0,7.935796261E0
1.851984797E1,-1.712064624E0,4.857429981E0,8.456234932E0
1.901984797E1,-1.256830096E0,5.575276852E0,7.732406139E0
1.951984797E1,-5.898307562E-1,5.262415409E0,7.492526054E0
2.001984797E1,-9.876375198E-1,5.011766911E0,9.567701340E0
2.051984797E1,-1.095912814E0,5.356333256E0,7.047461033E0
2.101984797E1,-8.434699774E-1,5.392225742E0,7.842476368E0
2.151984797E1,-1.735992789E0,5.143372059E0,8.649456024E0
2.201984797E1,-1.180259824E0,5.213362217E0,8.933603287E0
2.251984797E1,-9.320043921E-1,5.784050465E0,8.464610100E0
2.301984797E1,-3.720839322E-1,5.181059361E0,7.612765312E0
2.351984797E1,-1.145563841E0,5.408975601E0,8.875576973E0
2.401984797E1,-6.376872063E-1,5.194219589E0,8.182256699E0
2.451984797E1,-1.234696507E0,5.265406132E0,8.146365166E0
2.501984797E1,-1.009771109E0,5.178068161E0,8.151150703E0
2.551984797E1,-9.092726111E-1,5.527420521E0,8.582456589E0
2.601984797E1,-8.338986635E-1,5.376074314E0,8.073383331E0
2.651984797E1,-1.214357495E0,5.442475319E0,8.240880966E0
2.701984797E1,-7.944171429E-1,4.187439442E0,8.562715530E0
2.751984797E1,-1.528415442E0,4.036093712E0,9.195018768E0
2.801984797E1,-2.159522533E0,3.785445452E0,8.874381065E0
2.851984797E1,-4.995017350E-1,3.980460405E0,9.300303459E0
2.901984797E1,-1.384846091E0,4.072584152E0,8.918647766E0
2.951984797E1,-1.212562919E0,4.184448719E0,9.055637360E0
3.001984797E1,-1.326820135E0,4.073780537E0,8.682356834E0
3.051984797E1,-1.359123230E0,4.231706619E0,8.819944382E0
3.101984797E1,-1.281356573E0,4.059423447E0,8.706883430E0
3.151984797E1,-1.529611826E0,4.150949001E0,8.903095245E0
3.201984797E1,-1.356132269E0,4.203591347E0,8.830712318E0
3.251984797E1,-1.293320656E0,4.025924206E0,8.840283394E0
3.301984797E1,-1.371685624E0,4.191029072E0,8.786444664E0
3.351984797E1,-1.417747378E0,4.027718544E0,8.744570732E0
3.401984797E1,-1.336391449E0,4.037888050E0,8.711071014E0
3.451984797E1,-1.456630826E0,4.013959885E0,8.800801277E0
3.501984797E1,-1.387837172E0,4.048655987E0,8.789435387E0
3.551984797E1,-1.433898926E0,4.110869408E0,8.763712883E0
3.601984797E1,-1.462612867E0,4.064807415E0,8.702097893E0
3.651984797E1,-1.613958836E0,3.968496323E0,8.665607452E0
3.701984797E1,-1.490130305E0,4.019941807E0,8.806783676E0
3.751984797E1,-1.524826288E0,3.927220106E0,8.880363464E0
3.801984797E1,-1.523031592E0,4.057030678E0,8.787641525E0
3.851984797E1,-1.552343726E0,4.027718544E0,8.559724808E0
3.901984797E1,-1.487139225E0,4.064209461E0,8.818747520E0
3.951984797E1,-1.532602906E0,4.003790379E0,8.663812637E0
4.001984797E1,-1.601994753E0,4.064209461E0,8.821739197E0
4.051984797E1,-1.527817249E0,3.970290899E0,8.853444099E0
4.101984797E1,-1.422533035E0,4.128815651E0,8.739784241E0
4.151984797E1,-1.539781332E0,4.030709743E0,8.720642090E0
4.201984797E1,-1.543968797E0,4.094717979E0,8.849854469E0
4.251984797E1,-1.657627940E0,3.949951887E0,8.806783676E0
4.301984797E1,-1.641476393E0,4.042674065E0,8.828319550E0
4.351984797E1,-1.539781332E0,3.994817495E0,8.968298912E0
4.401984797E1,-9.924231768E-1,5.841478348E0,7.395616531E0
4.451984797E1,-1.652244091E0,4.394418716E0,8.705088615E0
4.501984797E1,-1.515853167E0,4.139583111E0,8.641678810E0
4.551984797E1,-1.333400369E0,4.530809879E0,9.389435768E0
4.601984797E1,-2.344966173E0,5.160720348E0,8.627322197E0
4.651984797E1,-1.482353687E0,3.434298754E0,9.874580383E0
4.701984797E1,-1.324427366E0,3.389433384E0,8.738588333E0
4.751984797E1,-3.792623878E-1,2.858226538E0,9.509077072E0
4.801984797E1,-1.774278045E0,4.533202648E0,6.465406895E0
4.851984797E1,-9.828519225E-1,2.809173822E0,9.136993408E0
4.901984797E1,-1.229910851E0,2.595614433E0,9.258428574E0
4.951984797E1,-1.200000525E0,2.616551638E0,9.396016121E0
5.001984797E1,-1.246062398E0,2.087737799E0,9.451649666E0
5.051984797E1,-1.208973646E0,2.227119684E0,9.684351921E0
5.101984797E1,-1.579262972E0,1.989033818E0,9.424730301E0
5.151984797E1,-1.635494232E0,2.016551256E0,9.607781410E0
5.201984797E1,-1.252642632E0,1.834696770E0,9.255437851E0
5.251984797E1,-1.702493310E0,1.731207132E0,9.440881729E0
5.301984797E1,-1.869392633E0,1.411765337E0,9.395418167E0
5.351984797E1,-1.496112347E0,1.789831281E0,9.403793335E0
5.401984797E1,-1.240678549E0,9.792626500E-1,1.030050373E1
5.451984797E1,-1.260419369E0,1.104287624E0,9.814162254E0
5.501984797E1,-1.041476011E0,2.413759947E0,9.428917885E0
5.551984797E1,-1.419542074E0,2.076970100E0,9.580862045E0
5.601984797E1,-3.314059377E-1,2.810370207E0,9.136993408E0
5.651984797E1,-3.463610709E-1,3.633501291E0,9.167501450E0
5.701984797E1,-1.112662554E-1,3.390031576E0,9.192028046E0
5.751984797E1,-1.369890928E0,2.951546669E0,9.625727654E0
5.801984797E1,-5.473581553E-1,3.852444410E0,1.084606647E1
5.851984797E1,-6.059823632E-1,3.165106058E0,9.655637741E0
5.901984797E1,-5.838487148E-1,3.821935892E0,1.060319519E1
5.951984797E1,-8.003991842E-1,3.556930780E0,9.366703987E0
6.001984797E1,-1.136590764E-1,3.554538012E0,9.207581520E0
6.051984797E1,-6.717849374E-1,3.645465374E0,9.193224907E0
6.101984797E1,-7.166503668E-1,3.131008387E0,9.196215630E0
6.151984797E1,-6.155536175E-1,3.014956474E0,9.363713264E0
6.201984797E1,-8.626125455E-1,2.231905222E0,9.397810936E0
6.251984797E1,-1.018146038E0,1.735394597E0,9.805787086E0
6.301984797E1,-3.828516304E-1,2.158325911E0,9.295517921E0
6.351984797E1,-1.142572761E0,1.503889084E0,9.780064583E0
6.401984797E1,-7.884350419E-1,1.357926846E0,9.545567513E0
6.451984797E1,-5.012963414E-1,1.486541033E0,9.694520950E0
6.501984797E1,-5.904290080E-1,1.398604870E0,9.778867722E0
6.551984797E1,-4.223332107E-1,1.326820135E0,9.531210899E0
6.601984797E1,-3.206382394E-1,1.190429211E0,9.823733330E0
6.651984797E1,-5.623133108E-2,8.374879360E-1,1.004865837E1
6.701984797E1,5.922235921E-2,1.957328916E0,9.605986595E0
6.751984797E1,5.168496966E-1,1.690529227E0,9.268000603E0
6.801984797E1,-2.452643216E-1,8.865407705E-1,1.029212856E1
6.851984797E1,-1.399801224E-1,1.308275819E0,9.429515839E0
6.901984797E1,-5.587241054E-1,1.965105653E0,1.038305569E1
6.951984797E1,-9.684949517E-1,2.214557409E0,9.681360245E0
7.001984797E1,-1.823330879E0,2.373680115E0,9.595218658E0
7.051984797E1,-1.603191137E0,2.803191662E0,9.278169632E0
7.101984797E1,-2.185245275E0,2.688336134E0,9.848857880E0
7.151984797E1,-1.998605132E0,2.793620348E0,8.574680328E0
7.201984797E1,-2.381456852E0,2.941377163E0,9.969695091E0
7.251984797E1,-3.211168051E0,3.183650494E0,8.108677864E0
7.301984797E1,-3.496512175E0,2.405983210E0,9.368498802E0
7.351984797E1,-2.897109985E0,3.241078377E0,7.715656757E0
7.401984797E1,-3.496512175E0,2.790031195E0,8.670392990E0
7.451984797E1,-2.860619545E0,3.178864956E0,8.742177963E0
7.501984797E1,-3.501297712E0,2.612962246E0,7.907082558E0
7.551984797E1,-2.600399971E0,2.225325108E0,9.451649666E0
7.601984797E1,-3.635295868E0,3.040679455E0,7.177271366E0
7.651984797E1,-3.643670797E0,2.774477959E0,8.520243645E0
7.701984797E1,-2.214557409E0,1.848455548E0,7.228118896E0
7.751984797E1,-1.704886079E0,1.905883193E0,1.070907784E1
7.801984797E1,-1.780260086E0,1.578066587E0,9.220144272E0
7.851984797E1,-1.520638824E0,1.264606714E0,8.936594009E0
7.901984797E1,-1.539183140E0,1.654038668E0,9.954142570E0
7.951984797E1,-1.447059512E0,1.333400369E0,9.124430656E0
8.001984797E1,-1.311266780E0,1.354337573E0,9.543772697E0
8.051984797E1,-5.533402562E-1,1.065404296E0,1.231705475E1
8.101984797E1,-8.769695163E-1,8.452646136E-1,9.692726135E0
8.151984797E1,-1.217348576E0,1.794616938E0,1.009113121E1
8.201984797E1,-7.387840152E-1,1.621137381E0,8.792427063E0
8.251984797E1,-1.500898004E0,1.975275040E0,1.000678444E1
8.301984797E1,-1.532602906E0,2.268395901E0,8.939585686E0
8.351984797E1,-1.162911773E0,1.610967875E0,8.836095810E0
8.401984797E1,-1.308275819E0,2.252842426E0,8.540582657E0
8.451984797E1,-9.463613629E-1,2.506481647E0,9.716055870E0
8.501984797E1,-8.452646136E-1,3.011965513E0,9.120243073E0
8.551984797E1,-9.553344250E-1,2.858824968E0,8.521439552E0
8.601984797E1,-8.853443861E-1,2.745764017E0,9.223134995E0
8.651984797E1,-9.667003751E-1,3.425325632E0,9.134600639E0
8.701984797E1,-1.609173268E-1,3.479164124E0,9.140582085E0
8.751984797E1,-5.994020700E-1,3.004188776E0,9.432506561E0
8.801984797E1,-5.676971674E-1,2.839084148E0,9.754940033E0
8.851984797E1,-7.866404653E-1,2.834896564E0,9.229715347E0
8.901984797E1,-6.687939167E-1,2.786442041E0,9.866804123E0
8.951984797E1,-4.917250574E-1,3.214159012E0,9.090931892E0
9.001984797E1,-3.367897868E-1,3.750151396E0,9.335597992E0
9.051984797E1,-5.874379873E-1,3.393022537E0,9.244071960E0
9.101984797E1,-4.019941986E-1,2.921038151E0,1.024905777E1
9.151984797E1,2.566302419E-1,2.541177750E0,9.403793335E0
9.201984797E1,-9.128618240E-1,2.561516523E0,9.355937004E0
9.251984797E1,-5.102694035E-1,2.445464849E0,9.277571678E0
9.301984797E1,-1.290927768E0,2.611167669E0,9.226723671E0
9.351984797E1,-6.640082598E-1,2.888735056E0,9.387641907E0
9.401984797E1,-5.569294691E-1,2.894119024E0,9.445069313E0
9.451984797E1,-1.609771490E0,1.916052699E0,9.274580956E0
9.501984797E1,-5.276173949E-1,2.337189436E0,9.248857498E0
9.551984797E1,-9.122636318E-1,1.786242127E0,9.516854286E0
9.601984797E1,-1.126421213E0,1.719841242E0,9.641280174E0
9.651984797E1,-1.011565804E0,1.751546144E0,9.439086914E0
9.701984797E1,-1.423131227E0,1.690529227E0,9.798010826E0
9.751984797E1,-1.065404296E0,1.702493310E0,9.695717812E0
9.801984797E1,-1.193420291E0,1.644467354E0,9.477372169E0
9.851984797E1,-1.106680512E0,1.737189293E0,9.692726135E0
9.901984797E1,-1.171286702E0,1.637887120E0,9.571290970E0
9.951984797E1,-1.110269666E0,1.719841242E0,9.641879082E0
1.000198480E2,-1.124626637E0,1.616351724E0,9.574281693E0
1.005198480E2,-1.100698471E0,1.685743570E0,9.536594391E0
1.010198480E2,-1.196411371E0,1.640279889E0,9.556933403E0
1.015198480E2,-1.106680512E0,1.692323804E0,9.671789169E0
1.020198480E2,-1.228714466E0,1.550549030E0,9.495916367E0
1.025198480E2,-1.192822099E0,1.564906001E0,9.644271851E0
1.030198480E2,-1.192822099E0,1.585245013E0,9.526425362E0
1.035198480E2,-1.182054400E0,1.584048629E0,9.589237213E0
1.040198480E2,-1.299900889E0,1.532602906E0,9.594022751E0
1.045198480E2,-1.242473125E0,1.542772412E0,9.751350403E0
1.050198480E2,-1.308275819E0,1.448854089E0,9.639486313E0
1.055198480E2,-1.295713425E0,1.454836130E0,9.696913719E0
1.060198480E2,-1.239482164E0,1.488335729E0,9.568299294E0
1.065198480E2,-1.223330617E0,1.514058471E0,9.561718941E0
1.070198480E2,-1.386640668E0,1.464407444E0,9.619147301E0
1.075198480E2,-1.302891970E0,1.466202021E0,9.607781410E0
1.080198480E2,-1.384846091E0,1.414756417E0,9.644271851E0
1.085198480E2,-1.368694544E0,1.384247899E0,9.742377281E0
1.090198480E2,-1.357328653E0,1.430907965E0,9.584450722E0
1.095198480E2,-1.326820135E0,1.481755376E0,9.687940598E0
1.100198480E2,-1.290329576E0,1.464407444E0,9.732806206E0
1.105198480E2,-1.454836130E0,1.286142230E0,9.710074425E0
1.110198480E2,-1.346560955E0,1.451246977E0,9.634700775E0
1.115198480E2,-1.301695466E0,1.454836130E0,9.799206734E0
1.120198480E2,-1.462612867E0,2.207977057E0,9.077172279E0
1.125198480E2,-1.360319614E0,1.883749604E0,9.596415520E0
1.130198480E2,-1.302891970E0,2.045265198E0,9.523433685E0
1.135198480E2,-1.221535921E0,1.913061738E0,9.639486313E0
1.140198480E2,-1.268195987E0,1.890329838E0,9.549157143E0
1.145198480E2,-1.269392371E0,1.716850281E0,9.716055870E0
1.150198480E2,-1.180858016E0,1.804188251E0,9.690931320E0
1.155198480E2,-1.213759303E0,1.885544300E0,9.583852768E0
1.160198480E2,-1.247856975E0,1.805982947E0,9.458230019E0
1.165198480E2,-1.190429211E0,1.880758643E0,9.582656860E0
1.170198480E2,-1.228714466E0,1.747956991E0,9.558130264E0
1.175198480E2,-1.359123230E0,1.700698733E0,9.647860527E0
1.180198480E2,-1.290329576E0,1.731207132E0,9.535996437E0
1.185198480E2,-1.143769264E0,1.901695848E0,9.457631111E0
1.190198480E2,-1.375274777E0,1.801197290E0,9.588638306E0
1.195198480E2,-1.016351461E0,1.759322882E0,9.322437286E0
1.200198480E2,-1.807179332E0,1.028913736E0,9.660423279E0
1.205198480E2,-8.841479421E-1,1.100698471E0,9.633503914E0
1.210198480E2,-1.759921074E0,7.214360237E-1,9.498309135E0
1.215198480E2,-1.271187067E0,6.604190469E-1,1.000857925E1
1.220198480E2,-1.956132531E0,7.866404653E-1,9.826126099E0
1.225198480E2,-1.734198213E0,6.113662124E-1,9.731011391E0
1.230198480E2,-1.824527264E0,5.180460811E-1,9.821938515E0
1.235198480E2,-2.281556368E0,2.757728100E-1,9.628718376E0
1.240198480E2,-1.801197290E0,6.855437160E-1,9.392427444E0
1.245198480E2,-2.355733871E0,2.554338276E-1,9.271589279E0
1.250198480E2,-2.064407825E0,4.498506486E-1,9.419346809E0
1.255198480E2,-1.580459356E0,9.936196208E-1,9.976874352E0
1.260198480E2,-1.740778446E0,8.069794178E-1,1.001276588E1
1.265198480E2,-1.777269006E0,7.435696125E-1,9.136993408E0
1.270198480E2,-1.509272933E0,1.124626637E0,9.883553505E0
1.275198480E2,-1.791027784E0,6.717849374E-1,1.004028416E1
1.280198480E2,-1.822134495E0,1.014556766E0,9.336793900E0
1.285198480E2,-1.764108539E0,8.775677085E-1,1.029511929E1
1.290198480E2,-2.291127682E0,7.716853023E-1,9.399007797E0
1.295198480E2,-1.598405480E0,7.531409264E-1,9.760921478E0
1.300198480E2,-2.233101845E0,1.167697430E0,9.167501450E0
1.305198480E2,-1.199402332E0,9.780662656E-1,8.830712318E0
1.310198480E2,-2.507678032E0,1.813759565E0,1.069711399E1
1.315198480E2,-9.284151793E-1,2.418545485E0,9.030512810E0
1.320198480E2,-1.129412293E0,1.422533035E0,7.971688747E0
1.325198480E2,-1.716850281E0,1.837687731E0,8.816354752E0
1.330198480E2,-1.460818172E0,1.862812400E0,9.476774216E0
1.335198480E2,-1.858624935E0,1.658824325E0,9.068798065E0
1.340198480E2,9.870393574E-2,1.255035520E0,6.643671989E0
1.345198480E2,-1.389631748E0,1.504487276E0,9.674779892E0
1.350198480E2,-9.463613629E-1,2.604587555E0,1.117448139E1
1.355198480E2,-1.088136077E0,1.909472466E0,9.482157707E0
1.360198480E2,-1.331605792E0,2.214557409E0,8.875576973E0
1.365198480E2,-1.456630826E0,2.207977057E0,9.003593445E0
1.370198480E2,-1.413560033E0,2.909672260E0,9.922437668E0
1.375198480E2,-2.535195589E0,2.675175667E0,9.807581902E0
1.380198480E2,-2.121835470E0,2.877967358E0,9.349954605E0
1.385198480E2,-2.959323406E0,2.364108801E0,8.682356834E0
1.390198480E2,-2.486740828E0,3.014956474E0,9.609575272E0
1.395198480E2,-3.418745279E0,2.429313183E0,8.384450912E0
1.400198480E2,-3.458226919E0,2.057827473E0,9.171091080E0
1.405198480E2,-4.029513359E0,2.252244234E0,9.177671432E0
1.410198480E2,-3.966103554E0,2.167897224E0,8.711071014E0
1.415198480E2,-3.253042459E0,2.888735056E0,9.113663673E0
1.420198480E2,-3.750749588E0,1.987239242E0,9.296713829E0
1.425198480E2,-3.884747505E0,1.587039590E0,9.225527763E0
1.430198480E2,-2.717050076E0,1.862812400E0,7.837092400E0
1.435198480E2,-1.963909149E0,1.611566067E0,1.166860008E1
1.440198480E2,-3.249453068E0,1.264606714E0,9.600004196E0
1.445198480E2,-2.538186550E0,1.377069473E0,1.007019424E1
1.450198480E2,-2.295913219E0,1.381256819E0,9.898509026E0
1.455198480E2,-1.380060434E0,1.006181955E0,8.893523216E0
1.460198480E2,-1.309472203E0,8.997012973E-1,9.273384094E0
1.465198480E2,-1.532602906E0,9.302098155E-1,9.807581902E0
1.470198480E2,-9.655039310E-1,1.502692580E0,9.590433121E0
1.475198480E2,-1.357328653E0,8.309076428E-1,9.330213547E0
1.480198480E2,-9.942178130E-1,6.442674994E-1,9.751350403E0
1.485198480E2,-1.599601984E0,9.320043921E-1,9.382855415E0
1.490198480E2,-1.077966571E0,1.018146038E0,9.352945328E0
1.495198480E2,-7.178468108E-1,2.324627161E0,9.828518867E0
1.500198480E2,-1.295713425E0,1.558325768E0,9.646066666E0
1.505198480E2,-8.775677085E-1,1.032503009E0,9.912267685E0
1.510198480E2,-1.593619823E0,1.307677627E0,9.038289070E0
1.515198480E2,-1.006181955E0,1.654038668E0,9.134600639E0
1.520198480E2,-1.091127157E0,1.877767563E0,9.321240425E0
1.525198480E2,-3.547359467E0,9.990034699E-1,7.306483746E0
1.530198480E2,-1.266999602E0,1.747956991E0,1.043390274E1
1.535198480E2,-9.846464992E-1,1.855633974E0,9.440283775E0
1.540198480E2,-1.323829174E0,2.202593327E0,8.837292671E0
1.545198480E2,-9.631111026E-1,2.068595171E0,9.635298729E0
1.550198480E2,-8.500502706E-1,2.317448616E0,8.598010063E0
1.555198480E2,-1.001994491E0,2.181057930E0,9.110074043E0
1.560198480E2,-9.894321561E-1,2.379662037E0,9.559925079E0
1.565198480E2,-7.944171429E-1,2.847458839E0,9.277571678E0
1.570198480E2,-1.239482164E0,2.737389088E0,9.180064201E0
1.575198480E2,-1.083350420E0,3.011965513E0,9.038887978E0
1.580198480E2,-1.091127157E0,2.700898647E0,9.135796547E0
1.585198480E2,-4.719842672E-1,2.718246460E0,9.973284721E0
1.590198480E2,-1.403390527E0,2.483749866E0,9.911071777E0
1.595198480E2,-4.725824594E-1,2.903690338E0,1.009292603E1
1.600198480E2,-1.217348576E0,2.309672117E0,9.349356651E0
1.605198480E2,-1.003190875E0,2.488535643E0,9.526425362E0
1.610198480E2,-1.415354609E0,1.864607096E0,9.757930756E0
1.615198480E2,-1.869990945E0,1.427318692E0,9.533005714E0
1.620198480E2,-1.032503009E0,2.628515720E0,9.414560318E0
1.625198480E2,-1.360319614E0,2.427518606E0,9.616155624E0
1.630198480E2,-1.339980721E0,2.562114954E0,9.411569595E0
1.635198480E2,-3.238087177E0,-6.999006122E-2,9.681360245E0
1.640198480E2,-1.729412556E0,1.462612867E0,9.291928291E0
1.645198480E2,-1.175474167E0,1.630110383E0,9.746564865E0
1.650198480E2,-1.503889084E0,1.389631748E0,9.540781975E0
1.655198480E2,-1.497906923E0,1.424925923E0,9.545567513E0
1.660198480E2,-1.463211060E0,1.450050473E0,9.576076508E0
1.665198480E2,-1.479960799E0,1.491924882E0,9.615557671E0
1.670198480E2,-1.507478237E0,1.481755376E0,9.596415520E0
1.675198480E2,-1.422533035E0,1.360319614E0,9.611370087E0
1.680198480E2,-1.419542074E0,1.460818172E0,9.631709099E0
1.685198480E2,-1.429113269E0,1.460818172E0,9.491130829E0
1.690198480E2,-1.266999602E0,1.515853167E0,9.536594391E0
1.695198480E2,-1.377069473E0,1.497906923E0,9.617352486E0
1.700198480E2,-1.390828133E0,1.346560955E0,9.564710617E0
1.705198480E2,-1.467996716E0,1.386640668E0,9.629914284E0
1.710198480E2,-1.365703583E0,1.447059512E0,9.559925079E0
1.715198480E2,-1.456032634E0,1.416550994E0,9.493523598E0
1.720198480E2,-1.342971683E0,1.476969719E0,9.505488396E0
1.725198480E2,-1.314257860E0,1.463211060E0,9.686145782E0
1.730198480E2,-1.376471281E0,1.313061476E0,9.625128746E0
1.735198480E2,-1.494317770E0,1.312463164E0,9.584450722E0
1.740198480E2,-1.363908887E0,1.394417405E0,9.660423279E0
1.745198480E2,-1.290927768E0,1.453639746E0,9.668798447E0
1.750198480E2,-1.410568953E0,1.389033556E0,9.499505997E0
1.755198480E2,-1.290329576E0,1.467398524E0,9.472586632E0
1.760198480E2,-1.250848055E0,1.436890006E0,9.658628464E0
1.765198480E2,-1.395613790E0,1.389631748E0,9.515657425E0
1.770198480E2,-1.338784218E0,1.333400369E0,9.564710617E0
1.775198480E2,-1.561915040E0,1.432104349E0,9.619147301E0
1.780198480E2,-1.185643673E0,1.427318692E0,9.671789169E0
1.785198480E2,-1.295115232E0,1.485344648E0,9.483354568E0
1.790198480E2,-1.207179070E0,1.504487276E0,9.614361763E0
1.795198480E2,-1.414756417E0,1.311266780E0,9.588638306E0
1.800198480E2,-1.439282775E0,1.285543919E0,9.689735413E0
1.805198480E2,-1.494915962E0,1.173679471E0,9.734002113E0
1.810198480E2,-1.891526341E0,3.230310678E0,8.053044319E0
1.815198480E2,-7.070791125E-1,2.358126640E0,1.132582760E1
1.820198480E2,-5.599204898E-1,2.045265198E0,9.649655342E0
1.825198480E2,-1.010967612E0,1.423131227E0,9.772287369E0
1.830198480E2,-6.460621357E-1,1.698904037E0,9.619147301E0
1.835198480E2,-1.121037364E0,1.424327731E0,9.951150894E0
1.840198480E2,-1.128215909E0,1.004985452E0,9.482157707E0
1.845198480E2,-7.884350419E-1,1.180858016E0,9.735796928E0
1.850198480E2,-1.591825247E0,1.016351461E0,9.933204651E0
1.855198480E2,-1.355534077E0,1.073779106E0,9.531808853E0
1.860198480E2,-1.580459356E0,6.987041831E-1,1.005105114E1
1.865198480E2,-6.556333899E-1,2.020738840E0,8.666803360E0
1.870198480E2,-1.164108157E0,1.215553880E0,9.682557106E0
1.875198480E2,-1.623530149E0,9.774680734E-1,9.881160736E0
1.880198480E2,-1.024128079E0,9.990034699E-1,9.912865639E0
1.885198480E2,-1.086341500E0,8.961120844E-1,9.826126099E0
1.890198480E2,-7.621139884E-1,1.936391711E0,9.132805824E0
1.895198480E2,-2.853440940E-1,2.576471806E0,9.703494072E0
1.900198480E2,-4.869394004E-1,2.449054003E0,9.562915802E0
1.905198480E2,-4.181457460E-1,1.944766641E0,9.890732765E0
1.910198480E2,-1.182054400E0,1.722832322E0,1.082393360E1
1.915198480E2,-9.649057388E-1,1.808973908E0,8.541180611E0
1.920198480E2,-8.709874153E-1,2.595614433E0,1.004387283E1
1.925198480E2,-1.652842283E0,2.167897224E0,8.904889107E0
1.930198480E2,-1.858624935E0,3.088535786E0,9.612566948E0
1.935198480E2,-2.456232548E0,3.260818958E0,9.172286987E0
1.940198480E2,-2.913261652E0,2.750549555E0,8.732007980E0
1.945198480E2,-3.104687452E0,2.675175667E0,9.337990761E0
1.950198480E2,-3.166900873E0,2.255833626E0,8.376673698E0
1.955198480E2,-4.432703972E0,2.391626120E0,8.272585869E0
1.960198480E2,-3.777668715E0,2.668595552E0,9.156135559E0
1.965198480E2,-4.197010994E0,2.375474691E0,8.912666321E0
1.970198480E2,-3.705883980E0,3.385245800E0,1.003071213E1
1.975198480E2,-4.632504463E0,2.225325108E0,7.854440212E0
1.980198480E2,-4.356133461E0,2.547757864E0,8.592027664E0
1.985198480E2,-4.265206337E0,2.357528448E0,9.019744873E0
1.990198480E2,-2.614757061E0,2.318047047E0,9.619147301E0
1.995198480E2,-2.710469961E0,1.689332843E0,1.001336479E1
2.000198480E2,-2.062613010E0,1.249053478E0,9.473783493E0
2.005198480E2,-9.936196208E-1,1.587637782E0,1.023529911E1
2.010198480E2,-1.499103427E0,1.480558991E0,1.017428207E1
2.015198480E2,-8.584251404E-1,2.358126640E0,9.126225471E0
2.020198480E2,-7.878368497E-1,1.536192179E0,1.011685371E1
2.025198480E2,-4.259224236E-1,1.783849239E0,9.885348320E0
2.030198480E2,-4.546363056E-1,2.810968399E0,9.401998520E0
2.035198480E2,-3.541377485E-1,3.092723370E0,9.534799576E0
2.040198480E2,-7.776673883E-2,2.874378204E0,7.858029366E0
2.045198480E2,-3.361915946E-1,3.418147087E0,8.943174362E0
2.050198480E2,-5.216353536E-1,3.747160196E0,9.580862045E0
2.055198480E2,-3.110669553E-1,2.872583628E0,9.481559753E0
2.060198480E2,-1.031904817E0,2.522035122E0,9.024530411E0
2.065198480E2,-1.299900889E0,1.110269666E0,9.732208252E0
2.070198480E2,-1.433898926E0,1.489532113E0,9.652647018E0
2.075198480E2,-1.472782373E0,1.347757339E0,9.535996437E0
2.080198480E2,-1.515254974E0,1.378265858E0,9.713663101E0
2.085198480E2,-1.564906001E0,1.061216831E0,9.696913719E0
2.090198480E2,-9.296116233E-1,1.716252089E0,9.556933403E0
2.095198480E2,-1.154536963E0,3.810569942E-1,9.717850685E0
2.100198480E2,-9.140582681E-1,5.629115105E-1,9.820143700E0
2.105198480E2,-6.813562512E-1,3.762713671E-1,9.746564865E0
2.110198480E2,-4.516452849E-1,2.602194548E-1,9.737591743E0
2.115198480E2,-2.596212626E-1,1.519442350E-1,1.015992451E1
2.120198480E2,2.183450609E-1,2.823530734E-1,9.866804123E0
2.125198480E2,9.463613629E-1,4.271188378E-1,8.835497856E0
2.130198480E2,-4.642075896E-1,5.934200287E-1,9.756733894E0
2.135198480E2,-8.488538265E-1,-4.851447940E-1,9.905089378E0
2.140198480E2,-2.763710022E-1,5.706881881E-1,1.094955635E1
2.145198480E2,9.571290761E-2,6.137589812E-1,9.372088432E0
2.150198480E2,-6.095715761E-1,4.336991012E-1,9.673583984E0
2.155198480E2,-1.145563841E0,3.110669553E-1,1.037348461E1
2.160198480E2,-8.165507317E-1,8.291130662E-1,8.740383148E0
2.165198480E2,-1.057627559E0,4.468596280E-1,9.858428955E0
2.170198480E2,-7.764709592E-1,8.823533654E-1,9.419944763E0
2.175198480E2,-1.033699393E0,2.757728100E-1,9.954142570E0
2.180198480E2,-1.661815286E0,4.007977843E-1,9.756135941E0
2.185198480E2,-1.688136339E0,1.095912814E0,9.349356651E0
2.190198480E2,-1.788036704E0,1.237687469E0,9.559925079E0
2.195198480E2,-1.159322619E0,1.606182218E0,9.880562782E0
2.200198480E2,-1.011565804E0,2.309672117E0,9.534201622E0
2.205198480E2,-1.511067510E0,1.745564103E0,9.832706451E0
2.210198480E2,-1.243071318E0,1.902892232E0,9.220742226E0
2.215198480E2,-2.099701881E0,1.410568953E0,9.268000603E0
2.220198480E2,-1.394417405E0,1.366899967E0,9.952945709E0
2.225198480E2,-1.652842283E0,3.481557071E-1,9.586843491E0
2.230198480E2,-1.695913076E0,1.594816327E0,9.918848038E0
2.235198480E2,-1.156929731E0,5.491527915E-1,1.034477043E1
2.240198480E2,-2.532802820E0,1.094118118E0,9.120243073E0
2.245198480E2,-2.706880569E0,-1.136590727E-2,8.837890625E0
2.250198480E2,-2.096112728E0,9.637092948E-1,1.056072235E1
2.255198480E2,-1.121037364E0,7.992027402E-1,1.154417324E1
2.260198480E2,-1.611566067E0,-2.632105052E-1,9.890732765E0
2.265198480E2,-1.454836130E0,7.627122402E-1,9.827920914E0
2.270198480E2,-1.399203062E0,5.300102234E-1,1.039741230E1
2.275198480E2,-1.118644595E0,6.783652306E-1,8.312665939E0
2.280198480E2,-3.649054468E-1,1.148554921E0,1.102971554E1
2.285198480E2,-1.395613790E0,1.355534077E0,9.256634712E0
2.290198480E2,-1.201196909E0,7.776673418E-3,6.961319447E0
2.295198480E2,-8.709874153E-1,1.469193101E0,1.177926731E1
2.300198480E2,-1.357328653E0,6.927221417E-1,8.483752251E0
2.305198480E2,-1.145563841E0,9.218349457E-1,1.068634605E1
2.310198480E2,-1.109073281E0,1.231705427E0,9.003593445E0
2.315198480E2,-7.453642488E-1,1.353141189E0,9.620343208E0
2.320198480E2,-8.841479421E-1,1.159920812E0,9.457631111E0
2.325198480E2,-4.719842672E-1,1.435693622E0,9.914062500E0
2.330198480E2,-5.916253924E-1,1.338186026E0,9.516854286E0
2.335198480E2,-1.231705427E0,1.634896040E0,1.006122112E1
2.340198480E2,-6.161518097E-1,1.821536183E0,9.450452805E0
2.345198480E2,-4.390829504E-1,2.199602127E0,9.881160736E0
2.350198480E2,-7.178468108E-1,2.696112871E0,1.165184975E1
2.355198480E2,-7.453642488E-1,2.416750908E0,8.413164139E0
2.360198480E2,-4.432703853E-1,1.840678811E0,8.551948547E0
2.365198480E2,-1.001396298E0,2.575873613E0,1.138863945E1
2.370198480E2,-4.127619043E-2,2.347957134E0,8.973084450E0
2.375198480E2,-1.107278705E0,2.568695068E0,9.339784622E0
2.380198480E2,-4.277170599E-1,2.921038151E0,9.650852203E0
2.385198480E2,-5.108676553E-1,2.784049034E0,9.762716293E0
2.390198480E2,-3.385843933E-1,2.517249346E0,9.069993973E0
2.395198480E2,-1.848455518E-1,2.405983210E0,9.475577354E0
2.400198480E2,-2.392822690E-2,3.040081263E0,9.340383530E0
2.405198480E2,-9.092726111E-1,2.949752092E0,9.287142754E0
2.410198480E2,-5.060819983E-1,2.598605394E0,9.803992271E0
2.415198480E2,-3.254238665E-1,2.828316450E0,9.533005714E0
2.420198480E2,-8.410771489E-1,2.444268227E0,9.610772133E0
2.425198480E2,-2.554338276E-1,2.389233351E0,9.410373688E0
2.430198480E2,-5.473581553E-1,2.405983210E0,9.593423843E0
2.435198480E2,-5.330012441E-1,2.478964329E0,9.601799011E0
2.440198480E2,-2.212164640E0,5.120640397E-1,9.870991707E0
2.445198480E2,-6.490531564E-1,1.518245935E0,9.378668785E0
2.450198480E2,-6.556333899E-1,1.424925923E0,9.649655342E0
2.455198480E2,-8.697910309E-1,1.046261668E0,9.713065147E0
2.460198480E2,-1.003190875E0,1.231107235E0,9.787840843E0
2.465198480E2,-7.657032609E-1,1.225125194E0,9.784850121E0
2.470198480E2,-8.626125455E-1,1.351346612E0,1.011565781E1
2.475198480E2,-7.788637877E-1,1.188634634E0,9.713663101E0
2.480198480E2,-9.254241586E-1,1.231107235E0,9.780662537E0
2.485198480E2,-7.465606928E-1,1.332203984E0,9.823135376E0
2.490198480E2,-8.075776696E-1,1.263410330E0,9.667003632E0
2.495198480E2,-9.110672474E-1,1.298106313E0,9.665806770E0
2.500198480E2,-8.404789567E-1,1.255035520E0,9.679565430E0
2.505198480E2,-9.062815905E-1,1.307677627E0,9.673583984E0
2.510198480E2,-8.578268886E-1,1.268195987E0,9.742377281E0
2.515198480E2,-8.691928387E-1,1.256830096E0,9.751948357E0
2.520198480E2,-7.196413875E-1,1.344766378E0,9.778269768E0
2.525198480E2,-8.662018180E-1,1.301695466E0,9.713065147E0
2.530198480E2,-9.074779749E-1,1.319641709E0,9.626923561E0
2.535198480E2,-8.488538265E-1,1.223928809E0,9.777072906E0
2.540198480E2,-7.944171429E-1,1.314856052E0,9.744770050E0
2.545198480E2,-9.655039310E-1,1.226321578E0,9.706484795E0
2.550198480E2,-8.691928387E-1,1.231107235E0,9.806983948E0
2.555198480E2,-8.691928387E-1,1.329213023E0,9.727422714E0
2.560198480E2,-9.152546525E-1,1.269392371E0,9.620942116E0
2.565198480E2,-8.662018180E-1,1.274178028E0,9.754341125E0
2.570198480E2,-7.818548083E-1,1.292124271E0,9.775876999E0
2.575198480E2,-8.279166222E-1,1.319043517E0,9.762716293E0
2.580198480E2,-8.949156404E-1,1.288534999E0,9.750154495E0
2.585198480E2,-7.561319470E-1,1.302891970E0,9.798010826E0
2.590198480E2,-8.249256015E-1,1.198205948E0,9.753145218E0
2.595198480E2,-8.739784956E-1,1.247856975E0,9.673583984E0
2.600198480E2,-1.296909928E0,8.434699476E-2,9.847063065E0
2.605198480E2,-1.054038405E0,7.262216806E-1,9.358927727E0
2.610198480E2,-9.762716293E-1,8.009973764E-1,9.947562218E0
2.615198480E2,-9.684949517E-1,3.110669553E-1,9.550951958E0
2.620198480E2,-1.173679471E0,1.465603858E-1,9.855438232E0
2.625198480E2,-8.554341197E-1,4.277170599E-1,9.883553505E0
2.630198480E2,-1.135992527E0,3.379862010E-1,9.587442398E0
2.635198480E2,-1.092921734E0,2.650051117E-1,9.804591179E0
2.640198480E2,-9.936196208E-1,2.273181453E-2,9.687940598E0
2.645198480E2,-1.284347534E0,-1.962114573E-1,9.640084267E0
2.650198480E2,-1.692921996E0,-9.451649338E-2,9.579665184E0
2.655198480E2,-1.531406522E0,5.491527915E-1,1.016112137E1
2.660198480E2,-2.410768747E0,-1.016949639E-1,9.665208817E0
2.665198480E2,-2.233700037E0,7.190431952E-1,9.979865074E0
2.670198480E2,-2.131406784E0,8.356932998E-1,8.970093727E0
2.675198480E2,-1.478764415E0,1.508674622E0,8.679366112E0
2.680198480E2,-3.262613773E0,1.493121386E0,8.743373871E0
2.685198480E2,-2.839682341E0,9.092726111E-1,8.143971443E0
2.690198480E2,-1.925025821E0,1.886740685E0,1.024905777E1
2.695198480E2,-1.775474429E0,1.738983870E0,9.992427826E0
2.700198480E2,-1.260419369E0,1.767697692E0,9.531210899E0
2.705198480E2,-9.487541914E-1,1.644467354E0,9.667003632E0
2.710198480E2,-6.586244106E-1,2.778665304E0,1.024307537E1
2.715198480E2,-5.569294691E-1,2.571087837E0,9.590433121E0
2.720198480E2,7.357929647E-2,2.056032896E0,9.527023315E0
2.725198480E2,7.597211599E-1,1.788634896E0,9.392427444E0
2.730198480E2,1.175474167E0,1.112064362E0,1.002413273E1
2.735198480E2,7.501499057E-1,1.354337573E0,9.961918831E0
2.740198480E2,1.235892892E0,1.198205948E0,9.633503914E0
2.745198480E2,6.681957245E-1,1.022931695E0,1.022213840E1
2.750198480E2,4.402793646E-1,8.727820516E-1,9.784850121E0
2.755198480E2,4.366901219E-1,5.407779217E-1,1.052722359E1
2.760198480E2,-2.566302419E-1,3.337987661E-1,1.003250694E1
2.765198480E2,-3.415754437E-1,5.234299302E-1,9.512666702E0
2.770198480E2,-1.802991867E0,-1.710868180E-1,9.589237213E0
2.775198480E2,-1.724028707E0,1.262213886E-1,1.003071213E1
2.780198480E2,-1.359123230E0,5.898307562E-1,8.966505051E0
2.785198480E2,-1.825125456E0,-1.591227055E-1,9.357730865E0
2.790198480E2,-1.734198213E0,2.506481707E-1,9.690931320E0
2.795198480E2,-1.505683661E0,1.016949639E-1,9.381659508E0
2.800198480E2,-1.752742529E0,1.184447184E-1,1.048235798E1
2.805198480E2,-1.808973908E0,2.297109663E-1,9.856635094E0
2.810198480E2,-2.030908108E0,-5.922235921E-2,9.641280174E0
2.815198480E2,-2.906083107E0,4.677968323E-1,9.732806206E0
2.820198480E2,-1.655833244E0,7.226324677E-1,9.818349838E0
2.825198480E2,-1.936391711E0,6.951149702E-1,8.778069496E0
2.830198480E2,-1.544566989E0,7.974081635E-1,9.927223206E0
2.835198480E2,-1.997408748E0,1.289133191E0,9.952945709E0
2.840198480E2,-1.838884234E0,8.470591903E-1,8.840283394E0
2.845198480E2,-1.684547186E0,1.152144074E0,9.891928673E0
2.850198480E2,-1.073180914E0,1.159920812E0,9.245866776E0
2.855198480E2,-1.312463164E0,1.470987678E0,9.945767403E0
2.860198480E2,-1.686341763E0,1.470987678E0,9.232706070E0
2.865198480E2,-1.677966833E0,1.725823283E0,1.003669453E1
2.870198480E2,-9.427721500E-1,1.657627940E0,9.561718941E0
2.875198480E2,-1.330409408E0,1.545763373E0,1.016471100E1
2.880198480E2,-7.627122402E-1,2.415554523E0,8.711071014E0
2.885198480E2,-2.059622049E0,1.493121386E0,9.453444481E0
2.890198480E2,-1.883749604E0,1.704886079E0,9.472586632E0
2.895198480E2,-1.795813441E0,2.140978098E0,9.220742226E0
2.900198480E2,-2.206182480E0,2.472383976E0,9.312865257E0
2.905198480E2,-2.271985054E0,2.572882652E0,9.365508080E0
2.910198480E2,-3.397808075E0,2.053041935E0,9.221938133E0
2.915198480E2,-2.217548370E0,1.621137381E0,8.888737679E0
2.920198480E2,-2.083550215E0,1.341177106E0,9.848857880E0
2.925198480E2,-1.067198873E0,1.204187989E0,9.628718376E0
2.930198480E2,-1.045065284E0,1.351944804E-1,9.743574142E0
2.935198480E2,-1.274776220E0,4.259224236E-1,1.032921696E1
2.940198480E2,-2.392822690E-2,8.117650747E-1,9.812367439E0
2.945198480E2,-2.131406784E0,-1.417747438E-1,9.509077072E0
2.950198480E2,-1.812563181E0,3.080759048E-1,9.917053223E0
2.955198480E2,-1.765903115E0,1.609173268E-1,9.368498802E0
2.960198480E2,-1.862812400E0,7.657032460E-2,9.929018021E0
2.965198480E2,-1.976471543E0,9.750752449E-1,9.598808289E0
2.970198480E2,-2.032702923E0,7.357929349E-1,9.649057388E0
2.975198480E2,-2.397608280E0,1.168893814E0,9.502496719E0
2.980198480E2,-1.648056626E0,1.438684583E0,9.643074989E0
2.985198480E2,-1.667199135E0,1.290329576E0,9.469595909E0
2.990198480E2,-1.750349760E0,1.557129383E0,9.501300812E0
2.995198480E2,-1.451246977E0,2.376671076E0,9.522237778E0
3.000198480E2,-1.544566989E0,1.807777524E0,9.054440498E0
3.005198480E2,-1.448255897E0,1.922633052E0,9.991230965E0
3.010198480E2,-1.329213023E0,1.771885157E0,9.923633575E0
3.015198480E2,-1.486541033E0,2.067398787E0,9.852447510E0
3.020198480E2,-1.052842021E0,1.688136339E0,8.981459618E0
3.025198480E2,-5.617151260E-1,2.481955290E0,9.915857315E0
3.030198480E2,-1.422533035E0,1.872383714E0,8.770293236E0
3.035198480E2,-1.034895778E0,1.665404558E0,9.552147865E0
3.040198480E2,-1.802991867E0,2.245664120E0,9.650852203E0
3.045198480E2,-1.673181176E0,1.517049551E0,9.620343208E0
3.050198480E2,-1.171286702E0,2.422732830E0,9.569496155E0
3.055198480E2,-1.456032634E0,2.343171597E0,9.357132912E0
3.060198480E2,-1.242473125E0,2.431107759E0,9.668798447E0
3.065198480E2,-8.626125455E-1,1.343569875E0,9.346364975E0
3.070198480E2,-1.569691658E0,9.284151793E-1,9.783055305E0
3.075198480E2,-1.753340840E0,7.064808607E-1,9.397810936E0
3.080198480E2,-1.651047587E0,8.853443861E-1,9.577870369E0
3.085198480E2,-1.694118381E0,9.750752449E-1,9.652647018E0
3.090198480E2,-1.705484390E0,8.452646136E-1,9.570094109E0
3.095198480E2,-1.613958836E0,8.153542876E-1,9.492925644E0
3.100198480E2,-1.604985833E0,9.535398483E-1,9.614361763E0
3.105198480E2,-1.502692580E0,8.865407705E-1,9.629914284E0
3.110198480E2,-1.485344648E0,9.248259664E-1,9.606584549E0
3.115198480E2,-1.630708575E0,8.967102766E-1,9.577272415E0
3.120198480E2,-1.645065546E0,8.392825127E-1,9.616155624E0
3.125198480E2,-1.777269006E0,6.939185858E-1,9.689735413E0
3.130198480E2,-1.694118381E0,7.974081635E-1,9.629914284E0
3.135198480E2,-1.530210137E0,7.770691514E-1,9.640084267E0
3.140198480E2,-1.668395638E0,8.009973764E-1,9.644869804E0
3.145198480E2,-1.628315806E0,8.201399446E-1,9.536594391E0
3.150198480E2,-1.663609982E0,7.782655358E-1,9.651450157E0
3.155198480E2,-1.637887120E0,8.135597110E-1,9.637093544E0
3.160198480E2,-1.752742529E0,6.765705943E-1,9.760921478E0
3.165198480E2,-1.709671736E0,7.686942816E-1,9.659226418E0
3.170198480E2,-1.558325768E0,7.657032609E-1,9.650852203E0
3.175198480E2,-1.601994753E0,8.123632669E-1,9.591629982E0
3.180198480E2,-1.631905079E0,8.344969153E-1,9.620942116E0
3.185198480E2,-1.684547186E0,7.992027402E-1,9.668798447E0
3.190198480E2,-1.733600020E0,8.003991842E-1,9.821340561E0
3.195198480E2,-1.712064624E0,6.287141442E-1,9.668199539E0
3.200198480E2,-1.751546144E0,7.130611539E-1,9.678369522E0
3.205198480E2,-1.607976794E0,6.759724021E-1,9.598209381E0
3.210198480E2,-1.670190215E0,6.538388133E-1,9.641280174E0
3.215198480E2,-1.734198213E0,5.772684813E-1,9.594022751E0
3.220198480E2,-1.910668850E0,1.692921966E-1,9.572486877E0
3.225198480E2,-2.121237278E0,-4.510470629E-1,9.654440880E0
3.230198480E2,-1.524826288E0,-1.914258152E-1,9.565308571E0
3.235198480E2,-1.754537225E0,-4.271188378E-1,9.694520950E0
3.240198480E2,-1.885544300E0,-2.554338276E-1,9.543772697E0
3.245198480E2,-2.120040894E0,-3.206382394E-1,9.467203140E0
3.250198480E2,-2.213959217E0,-3.744767308E-1,9.749555588E0
3.255198480E2,-2.601596355E0,-6.729813814E-1,9.451649666E0
3.260198480E2,-2.876172781E0,-9.188438654E-1,9.676574707E0
3.265198480E2,-2.563311338E0,-9.092726111E-1,9.527023315E0
3.270198480E2,-2.896511793E0,-9.571290612E-1,9.335597992E0
3.275198480E2,-2.297109842E0,6.430711150E-1,9.143573761E0
3.280198480E2,-1.984846354E0,1.310070455E-1,9.445069313E0
3.285198480E2,-2.630310297E0,-3.529413342E-1,8.907281876E0
3.290198480E2,-2.911466837E0,-3.798605800E-1,9.804591179E0
3.295198480E2,-1.992024899E0,-2.518445849E-1,9.725627899E0
3.300198480E2,-2.563909531E0,-2.093719840E-1,9.668798447E0
3.305198480E2,-1.482353687E0,2.249253243E-1,9.754940033E0
3.310198480E2,-2.950948477E0,1.292124242E-1,9.428917885E0
3.315198480E2,-2.135594130E0,8.584251404E-1,9.226723671E0
3.320198480E2,-2.030309916E0,1.710269928E0,9.207581520E0
3.325198480E2,-2.124826431E0,5.862415582E-2,9.761520386E0
3.330198480E2,-1.339980721E0,1.109073281E0,1.008993530E1
3.335198480E2,-1.920240164E0,8.506484628E-1,1.018863869E1
3.340198480E2,-1.724028707E0,4.803591371E-1,1.001276588E1
3.345198480E2,-2.104487419E0,7.657032609E-1,9.730413437E0
3.350198480E2,-1.594816327E0,1.296909928E0,1.025683403E1
3.355198480E2,-1.161117196E0,1.601994753E0,9.519845009E0
3.360198480E2,-1.523629785E0,1.708475351E0,9.670592308E0
3.365198480E2,-1.322034478E0,9.607182741E-1,9.494720459E0
3.370198480E2,-9.493523836E-1,8.069794178E-1,9.492925644E0
3.375198480E2,-1.161117196E0,5.742774606E-1,9.884152412E0
3.380198480E2,-4.582255483E-1,9.990034699E-1,1.047099209E1
3.385198480E2,-5.964110494E-1,5.407779217E-1,9.309276581E0
3.390198480E2,-1.746760488E0,8.691928387E-1,9.639486313E0
3.395198480E2,-2.474178553E0,5.312066078E-1,9.866206169E0
3.400198480E2,-2.552543640E0,8.309076428E-1,8.746963501E0
3.405198480E2,-3.013760090E0,1.011565804E0,9.687342644E0
3.410198480E2,-3.174079180E0,1.095912814E0,9.458230019E0
3.415198480E2,-2.752942562E0,9.894321561E-1,9.463015556E0
3.420198480E2,-2.530410051E0,1.144965649E0,1.001456070E1
3.425198480E2,-2.343171597E0,8.650053740E-1,9.730413437E0
3.430198480E2,-2.283949137E0,7.549355626E-1,9.601201057E0
3.435198480E2,-2.480758905E0,6.442674994E-1,9.040083885E0
3.440198480E2,-1.896311998E0,5.407779217E-1,9.579067230E0
3.445198480E2,-1.968694806E0,1.944168359E-1,9.458230019E0
3.450198480E2,-1.907677889E0,3.272185028E-1,9.510273933E0
3.455198480E2,-2.053041935E0,1.555334684E-2,9.548559189E0
3.460198480E2,-2.030309916E0,6.251249313E-1,9.901499748E0
3.465198480E2,-2.606980324E0,-1.076770201E-2,9.337990761E0
3.470198480E2,-2.998805046E0,6.927221417E-1,9.464211464E0
3.475198480E2,-3.011965513E0,-1.854437590E-1,9.501300812E0
3.480198480E2,-2.081755638E0,2.727817893E-1,9.346364975E0
3.485198480E2,-1.825125456E0,1.591227055E-1,9.862018585E0
3.490198480E2,-1.027119160E0,-3.379862010E-1,9.538987160E0
3.495198480E2,8.733802289E-2,2.374876440E-1,1.012283611E1
3.500198480E2,-9.714859724E-1,-2.901297510E-1,9.503094673E0
3.505198480E2,-1.235892892E0,1.740778536E-1,1.007677460E1
3.510198480E2,-5.682953596E-1,4.755735099E-1,9.826126099E0
3.515198480E2,-5.491527915E-1,2.123630047E-1,9.838089943E0
3.520198480E2,-4.271188378E-1,8.530412912E-1,1.008215809E1
3.525198480E2,-2.883351147E-1,4.127618968E-1,1.011206818E1
3.530198480E2,8.626125455E-1,6.299105883E-1,1.000977516E1
3.535198480E2,9.876375198E-1,4.995017350E-1,9.900303841E0
3.540198480E2,1.101894855E0,7.130611539E-1,1.032263660E1
3.545198480E2,5.712863803E-1,3.367897868E-1,9.766305923E0
3.550198480E2,8.709874153E-1,8.404789567E-1,9.690931320E0
3.555198480E2,-3.846462369E-1,1.064806059E-1,1.027597713E1
3.560198480E2,-1.366899967E0,8.733802289E-2,9.695717812E0
3.565198480E2,-2.148754835E0,1.375873089E-1,9.741779327E0
3.570198480E2,-2.116451740E0,4.965107143E-2,9.994221687E0
3.575198480E2,-2.264806747E0,-2.949153781E-1,8.863015175E0
3.580198480E2,-2.252842426E0,9.690931439E-2,9.464211464E0
3.585198480E2,-2.268395901E0,-1.495514214E-1,9.457631111E0
3.590198480E2,-2.265404940E0,-3.445664644E-1,9.659226418E0
3.595198480E2,-2.844467878E0,-3.625126183E-1,9.311669350E0
3.600198480E2,-2.370090723E0,1.304088384E-1,8.991030693E0
3.605198480E2,-2.571686029E0,-8.135596663E-2,9.638289452E0
3.610198480E2,-2.446661234E0,6.879364848E-1,9.263215065E0
3.615198480E2,-3.443870068E0,5.551348329E-1,8.803792953E0
3.620198480E2,-3.066402197E0,5.395814776E-1,9.003593445E0
3.625198480E2,-3.763311863E0,3.397808075E-1,8.490931511E0
3.630198480E2,-2.868396044E0,1.350748420E0,9.242876053E0
3.635198480E2,-3.748356581E0,8.530412912E-1,8.969495773E0
3.640198480E2,-2.845664263E0,1.004985452E0,9.073583603E0
3.645198480E2,-3.005385160E0,1.037288666E0,8.813961983E0
3.650198480E2,-3.351746321E0,8.099704385E-1,9.270991325E0
3.655198480E2,-3.310470104E0,9.511470199E-1,9.491130829E0
3.660198480E2,-3.022733212E0,1.207777262E0,9.232706070E0
3.665198480E2,-2.983251572E0,1.400997639E0,9.418149948E0
3.670198480E2,-3.211168051E0,1.244267821E0,8.642875671E0
3.675198480E2,-3.418745279E0,1.006181955E0,9.512666702E0
3.680198480E2,-3.209373474E0,1.010967612E0,8.984451294E0
3.685198480E2,-3.155534744E0,1.424925923E0,9.445667267E0
3.690198480E2,-3.134597778E0,1.236491084E0,9.327222824E0
3.695198480E2,-3.470789194E0,1.700698733E0,9.175876617E0
3.700198480E2,-3.141177893E0,1.741974831E0,9.537791252E0
3.705198480E2,-3.549752474E0,2.201396942E0,8.854640007E0
3.710198480E2,-4.054637909E0,1.542772412E0,8.392825127E0
3.715198480E2,-3.845864296E0,2.011765718E0,9.298508644E0
3.720198480E2,-3.758526087E0,2.252244234E0,8.697312355E0
3.725198480E2,-3.768097401E0,2.379662037E0,9.002995491E0
3.730198480E2,-3.688536167E0,2.576471806E0,9.337990761E0
3.735198480E2,-3.377469063E0,2.228316069E0,8.383254051E0
3.740198480E2,-2.946761131E0,2.262413740E0,9.226723671E0
3.745198480E2,-2.624328136E0,2.082952023E0,9.706484795E0
3.750198480E2,-2.221735716E0,2.471187592E0,9.609575272E0
3.755198480E2,-2.563909531E0,2.210968018E0,9.756733894E0
3.760198480E2,-1.751546144E0,1.960319996E0,9.737591743E0
3.765198480E2,-1.920838356E0,1.945963025E0,9.282357216E0
3.770198480E2,-1.724626899E0,2.796013355E0,9.480362892E0
3.775198480E2,-1.571486235E0,2.427518606E0,9.717850685E0
3.780198480E2,-1.255035520E0,3.042474031E0,8.903095245E0
3.785198480E2,-1.349551916E0,2.410170555E0,9.813564301E0
3.790198480E2,-1.390828133E0,2.321038008E0,8.784649849E0
3.795198480E2,-1.563111424E0,2.091326952E0,9.175278664E0
3.800198480E2,-1.895115495E0,2.093121529E0,9.824930191E0
3.805198480E2,-1.277767301E0,2.796611547E0,9.284152031E0
3.810198480E2,-1.756331801E0,1.974676847E0,9.699306488E0
3.815198480E2,-1.338186026E0,2.318047047E0,9.517452240E0
3.820198480E2,-1.702493310E0,2.157129526E0,9.257232666E0
3.825198480E2,-1.427916884E0,2.059023857E0,9.341579437E0
3.830198480E2,-1.842473388E0,1.896910191E0,9.565308571E0
3.835198480E2,-1.877767563E0,1.829911113E0,9.742377281E0
3.840198480E2,-1.497906923E0,2.073380709E0,9.509077072E0
3.845198480E2,-1.426122308E0,2.220539331E0,9.568299294E0
3.850198480E2,-1.448854089E0,2.422732830E0,9.451649666E0
3.855198480E2,-1.422533035E0,2.501696110E0,9.457631111E0
3.860198480E2,-1.503889084E0,9.631111026E-1,9.215357780E0
3.865198480E2,-2.343769789E0,8.596215248E-1,9.976275444E0
3.870198480E2,-1.659422517E0,9.984052777E-1,9.526425362E0
3.875198480E2,-1.686341763E0,1.176072359E0,9.591629982E0
3.880198480E2,-1.972882271E0,1.108475089E0,9.610772133E0
3.885198480E2,-1.662413478E0,1.137787223E0,9.668199539E0
3.890198480E2,-1.944766641E0,9.822536707E-1,9.419944763E0
3.895198480E2,-1.904686809E0,9.314061999E-1,9.582656860E0
3.900198480E2,-1.727617979E0,1.119840980E0,9.678369522E0
3.905198480E2,-1.689332843E0,1.150349498E0,9.719645500E0
3.910198480E2,-1.757528186E0,1.032503009E0,9.644869804E0
3.915198480E2,-1.307677627E0,1.239482164E0,9.828518867E0
3.920198480E2,-1.687538147E0,1.158126116E0,9.732208252E0
3.925198480E2,-1.810170293E0,1.129412293E0,9.526425362E0
3.930198480E2,-1.804188251E0,1.103689432E0,9.625128746E0
3.935198480E2,-1.711466432E0,1.202991605E0,9.692726135E0
3.940198480E2,-1.590030670E0,1.190429211E0,9.658628464E0
3.945198480E2,-1.634896040E0,1.140778184E0,9.582057953E0
3.950198480E2,-1.749751568E0,1.127617717E0,9.507282257E0
3.955198480E2,-1.692323804E0,1.161715388E0,9.559925079E0
3.960198480E2,-9.696913958E-1,7.830511928E-1,1.202812099E1
3.965198480E2,-1.776670814E0,1.447059512E0,9.504291534E0
3.970198480E2,-1.812563181E0,1.408176184E0,9.757930756E0
3.975198480E2,-1.215553880E0,1.518245935E0,9.689735413E0
3.980198480E2,8.135596663E-2,1.878963947E0,1.045065308E1
3.985198480E2,-1.633101463E0,1.491326690E0,9.491130829E0
3.990198480E2,-1.501496196E0,1.616351724E0,9.416355133E0
3.995198480E2,-1.625324726E0,1.500898004E0,9.602995872E0
4.000198480E2,-1.625324726E0,1.546959877E0,9.577870369E0
4.005198480E2,-1.591825247E0,1.539183140E0,9.572486877E0
4.010198480E2,-1.533201098E0,1.596610904E0,9.461220741E0
4.015198480E2,-1.700100541E0,1.489532113E0,9.577272415E0
4.020198480E2,-1.547558069E0,1.526620865E0,9.545567513E0
4.025198480E2,-1.747956991E0,1.548754454E0,9.522237778E0
4.030198480E2,-1.591825247E0,1.577468276E0,9.534799576E0
4.035198480E2,-1.691127419E0,1.540977836E0,9.518648148E0
4.040198480E2,-1.678565025E0,1.515254974E0,9.662218094E0
4.045198480E2,-1.724028707E0,1.469193101E0,9.564710617E0
4.050198480E2,-1.671984792E0,1.578066587E0,9.482157707E0
4.055198480E2,-1.644467354E0,1.625923038E0,9.479166985E0
4.060198480E2,-1.686341763E0,1.636690736E0,9.628718376E0
4.065198480E2,-1.747956991E0,1.558923960E0,9.606584549E0
4.070198480E2,-1.651047587E0,1.623530149E0,9.615557671E0
4.075198480E2,-1.755135417E0,1.515853167E0,9.541379929E0
4.080198480E2,-1.607976794E0,1.635494232E0,9.462417603E0
4.085198480E2,-1.719243050E0,1.665404558E0,9.507282257E0
4.090198480E2,-1.646261930E0,1.700698733E0,9.590433121E0
4.095198480E2,-1.702493310E0,1.592423439E0,9.510273933E0
4.100198480E2,-1.443470240E0,1.644467354E0,9.687940598E0
4.105198480E2,-1.523031592E0,1.451845169E0,9.594022751E0
4.110198480E2,-1.577468276E0,1.554138303E0,9.535996437E0
4.115198480E2,-1.453041553E0,1.590030670E0,9.601201057E0
4.120198480E2,-1.660618901E0,1.469193101E0,9.562915802E0
4.125198480E2,-1.751546144E0,1.472782373E0,9.668199539E0
4.130198480E2,-1.616351724E0,1.317847013E0,9.497711182E0
4.135198480E2,-1.555334687E0,1.363908887E0,9.626923561E0
4.140198480E2,-1.529611826E0,1.281356573E0,9.811769485E0
4.145198480E2,-1.597209096E0,1.508674622E0,9.574879646E0
4.150198480E2,-1.690529227E0,8.213363886E-1,9.547362328E0
4.155198480E2,-1.802393675E0,2.452643216E-1,9.690931320E0
4.160198480E2,-1.661815286E0,2.117647976E-1,9.818349838E0
4.165198480E2,-1.911267042E0,2.327020019E-1,9.634700775E0
4.170198480E2,-1.673181176E0,4.151547253E-1,9.797411919E0
4.175198480E2,-1.855633974E0,3.379862010E-1,9.565308571E0
4.180198480E2,-1.823330879E0,2.667997181E-1,9.761520386E0
4.185198480E2,-2.041675806E0,-1.292124242E-1,9.443872452E0
4.190198480E2,-2.056032896E0,-2.979064286E-1,1.006780148E1
4.195198480E2,-2.173879385E0,-2.931207716E-1,9.534201622E0
4.200198480E2,-1.771885157E0,-3.750749528E-1,1.005583763E1
4.205198480E2,-2.137987137E0,-7.992027402E-1,9.883553505E0
4.210198480E2,-2.629113913E0,-1.232303679E-1,9.204590797E0
4.215198480E2,-2.164906263E0,1.136590764E-1,9.528220177E0
4.220198480E2,-1.713261008E0,1.495514214E-1,9.746564865E0
4.225198480E2,-1.416550994E0,4.719842672E-1,9.569496155E0
4.230198480E2,-1.649851203E0,1.944168359E-1,9.320642471E0
4.235198480E2,-1.135394335E0,2.213360928E-2,1.012522888E1
4.240198480E2,-1.208973646E0,1.704886109E-1,1.030947590E1
4.245198480E2,-1.501496196E0,1.830509305E-1,9.603593826E0
4.250198480E2,-1.244267821E0,2.273181453E-2,9.890133858E0
4.255198480E2,-1.520638824E0,1.160518974E-1,9.424730301E0
4.260198480E2,-1.996810555E0,-5.754738450E-1,1.006720352E1
4.265198480E2,-1.115055323E0,2.458625287E-1,9.245866776E0
4.270198480E2,-2.360519648E0,2.315055877E-1,9.467203140E0
4.275198480E2,-1.509272933E0,7.381857634E-1,1.054098225E1
4.280198480E2,-2.060818434E0,3.290131092E-1,9.255437851E0
4.285198480E2,-1.898106575E0,3.696911037E-1,1.002233791E1
4.290198480E2,-1.843669891E0,4.911268353E-1,8.727820396E0
4.295198480E2,-2.231307030E0,4.582255483E-1,8.691927910E0
4.300198480E2,-2.008176327E0,4.671986103E-1,8.885149002E0
4.305198480E2,-2.097907305E0,8.386843204E-1,8.344968796E0
4.310198480E2,-2.368894339E0,9.104689956E-1,9.028717995E0
4.315198480E2,-2.097309113E0,1.000199914E0,8.976076126E0
4.320198480E2,-1.497906923E0,1.242473125E0,8.776873589E0
4.325198480E2,-1.514058471E0,1.441675663E0,8.621937752E0
4.330198480E2,-2.207378864E0,1.523629785E0,8.725427628E0
4.335198480E2,-2.128415823E0,1.121037364E0,9.171091080E0
4.340198480E2,-2.173879385E0,1.118644595E0,9.798010826E0
4.345198480E2,-2.297109842E0,1.046261668E0,1.004207802E1
4.350198480E2,-2.442473650E0,1.033699393E0,1.001336479E1
4.355198480E2,-2.782254457E0,1.100698471E0,9.364311218E0
4.360198480E2,-2.654836655E0,1.439282775E0,8.167900085E0
4.365198480E2,-2.638685226E0,1.287338614E0,9.633503914E0
4.370198480E2,-1.427318692E0,1.518245935E0,1.088255692E1
4.375198480E2,-2.043470621E0,1.140778184E0,9.159725189E0
4.380198480E2,-1.402194023E0,8.327022791E-1,9.640084267E0
4.385198480E2,-9.140582681E-1,7.495517135E-1,9.507282257E0
4.390198480E2,-2.280958176E0,7.657032609E-1,8.800801277E0
4.395198480E2,-3.406183004E0,8.249256015E-1,9.226723671E0
4.400198480E2,-4.080360889E0,1.281356573E0,8.819944382E0
4.405198480E2,-4.257429600E0,1.330409408E0,9.025727272E0
4.410198480E2,-4.475774765E0,1.289133191E0,9.225527763E0
4.415198480E2,-5.141577721E0,1.549352646E0,8.196614265E0
4.420198480E2,-4.374079704E0,1.435693622E0,8.538787842E0
4.425198480E2,-5.117649555E0,9.583254457E-1,8.590232849E0
4.430198480E2,-4.710869789E0,1.107278705E0,9.086145401E0
4.435198480E2,-4.790431023E0,1.100698471E0,7.834101200E0
4.440198480E2,-4.592424870E0,9.726824164E-1,7.430910587E0
4.445198480E2,-4.197010994E0,8.422735929E-1,9.783055305E0
4.450198480E2,-3.707080364E0,9.427721500E-1,8.438288689E0
4.455198480E2,-3.418745279E0,4.295116663E-1,9.492925644E0
4.460198480E2,-2.490330219E0,3.696911037E-1,9.416953087E0
4.465198480E2,-2.209771633E0,-6.580262445E-3,9.105886459E0
4.470198480E2,-2.185843468E0,-6.819544733E-2,9.561718941E0
4.475198480E2,-1.951346874E0,2.045863420E-1,9.170493126E0
4.480198480E2,-1.933400750E0,1.866401732E-1,9.227920532E0
4.485198480E2,-2.231905222E0,1.328614831E0,8.352746010E0
4.490198480E2,-1.829911113E0,1.088136077E0,1.071326542E1
4.495198480E2,-2.647658348E0,5.180460811E-1,9.303294182E0
4.500198480E2,-2.697907448E0,7.238288522E-1,8.749356270E0
4.505198480E2,-2.026122570E0,1.185045362E0,8.435297966E0
4.510198480E2,-1.295115232E0,1.480558991E0,9.206384659E0
4.515198480E2,-1.898106575E0,1.263410330E0,8.642875671E0
4.520198480E2,-1.463211060E0,1.169492126E0,9.667003632E0
4.525198480E2,-1.228116274E0,1.587039590E0,8.024331093E0
4.530198480E2,-1.801197290E0,1.841277003E0,9.701699257E0
4.535198480E2,-2.353341103E0,1.360917926E0,9.244071960E0
4.540198480E2,-2.005185366E0,1.713261008E0,9.568299294E0
4.545198480E2,-1.828116536E0,1.352542996E0,9.002995491E0
4.550198480E2,-1.592423439E0,1.126421213E0,9.357132912E0
4.555198480E2,-1.418345571E0,1.328614831E0,9.553942680E0
4.560198480E2,-1.045065284E0,1.483550072E0,9.914660454E0
4.565198480E2,-1.193420291E0,9.649057388E-1,9.166305542E0
4.570198480E2,-4.319044948E-1,1.380060434E0,9.696913719E0
4.575198480E2,-3.349951804E-1,1.013360381E0,9.480362892E0
4.580198480E2,-5.371887088E-1,8.697910309E-1,9.833304405E0
4.585198480E2,-3.457628787E-1,6.209374666E-1,9.937990189E0
4.590198480E2,-3.906283081E-1,6.448656917E-1,9.780662537E0
4.595198480E2,-8.494520187E-2,8.458628058E-1,9.429515839E0
4.600198480E2,-4.097708762E-1,7.178468108E-1,9.955936432E0
4.605198480E2,-4.420739710E-1,1.105484009E0,9.966704369E0
4.610198480E2,-5.473581553E-1,1.247258782E0,9.404989243E0
4.615198480E2,-1.100698471E0,1.978266120E0,9.741779327E0
4.620198480E2,-1.703689694E0,1.791625977E0,9.077172279E0
4.625198480E2,-2.190030813E0,1.917847395E0,9.239286423E0
4.630198480E2,-2.150549412E0,2.155334949E0,9.682557106E0
4.635198480E2,-2.159522533E0,2.483749866E0,9.050851822E0
4.640198480E2,-2.654836655E0,2.188236237E0,9.166305542E0
4.645198480E2,-2.260020971E0,3.141177893E0,8.898308754E0
4.650198480E2,-2.346760750E0,3.032304525E0,8.663214684E0
4.655198480E2,-2.713460922E0,3.081955671E0,8.986245155E0
4.660198480E2,-3.238087177E0,3.043670416E0,8.872586250E0
4.665198480E2,-2.254039049E0,3.334398270E0,8.554939270E0
4.670198480E2,-2.094317913E0,2.928814888E0,8.995218277E0
4.675198480E2,-2.106880426E0,2.733799934E0,9.234500885E0
4.680198480E2,-2.243271112E0,2.571686029E0,9.192028046E0
4.685198480E2,-2.177468538E0,2.571087837E0,9.067601204E0
4.690198480E2,-1.901097536E0,2.682952404E0,9.223134995E0
4.695198480E2,-1.685743570E0,2.529811859E0,9.364311218E0
4.700198480E2,-1.570888042E0,2.496910334E0,9.366703987E0
4.705198480E2,-1.558923960E0,2.478964329E0,9.311669350E0
4.710198480E2,-1.697707653E0,2.548954248E0,9.359525681E0
4.715198480E2,-1.199402332E0,2.772084951E0,9.689137459E0
4.720198480E2,-1.435693622E0,2.806182861E0,9.301499367E0
4.725198480E2,-1.476969719E0,2.630310297E0,9.315856934E0
4.730198480E2,-1.264606714E0,2.911466837E0,9.524630547E0
4.735198480E2,-1.395613790E0,3.214757204E0,9.419346809E0
4.740198480E2,-1.015753269E0,3.580859184E0,9.238089561E0
4.745198480E2,-1.033699393E0,3.533600807E0,9.245866776E0
4.750198480E2,-1.903490424E0,1.465603828E0,9.952347755E0
4.755198480E2,-1.751546144E0,2.145165443E0,9.479166985E0
4.760198480E2,-2.041675806E0,2.174477577E0,9.520442963E0
4.765198480E2,-1.435693622E0,2.225325108E0,9.227920532E0
4.770198480E2,-1.282552958E0,2.416750908E0,9.290133476E0
4.775198480E2,-1.252044439E0,2.417947292E0,9.322437286E0
4.780198480E2,-1.198205948E0,2.491526604E0,9.457631111E0
4.785198480E2,-1.201196909E0,2.519043922E0,9.265008926E0
4.790198480E2,-1.266401410E0,2.474178553E0,9.424132347E0
4.795198480E2,-9.966106415E-1,2.512463808E0,9.474381447E0
4.800198480E2,-1.134197950E0,2.550748825E0,9.448060036E0
4.805198480E2,-1.347757339E0,2.571087837E0,8.918647766E0
4.810198480E2,-1.317847013E0,2.860021353E0,8.581858635E0
4.815198480E2,-9.206385016E-1,2.603390932E0,9.414560318E0
4.820198480E2,-1.040279627E0,2.619542599E0,9.406784058E0
4.825198480E2,-7.190431952E-1,2.678765059E0,9.566504478E0
4.830198480E2,-7.034898400E-1,2.718246460E0,9.534201622E0
4.835198480E2,-9.798609018E-1,2.622533560E0,9.343374252E0
4.840198480E2,-8.021938205E-1,2.738585472E0,9.247062683E0
4.845198480E2,-7.196413875E-1,2.640479803E0,9.435498238E0
4.850198480E2,-8.051848412E-1,2.544766903E0,9.588638306E0
4.855198480E2,-5.617151260E-1,2.622533560E0,9.530014038E0
4.860198480E2,-7.160521746E-1,2.531606436E0,9.494720459E0
4.865198480E2,-7.435696125E-1,2.590230465E0,9.385847092E0
4.870198480E2,-2.871387303E-1,2.911466837E0,9.233304024E0
4.875198480E2,-6.592226624E-1,2.647658348E0,9.438488960E0
4.880198480E2,-5.521438122E-1,2.532802820E0,9.501300812E0
4.885198480E2,-6.329016089E-1,2.533401012E0,9.381659508E0
4.890198480E2,-7.609176040E-1,2.404188633E0,9.503094673E0
4.895198480E2,-7.591229677E-1,2.037488461E0,9.792626381E0
4.900198480E2,-1.036690354E0,1.436890006E0,9.888937950E0
4.905198480E2,-4.498506486E-1,2.273181438E0,9.429515839E0
4.910198480E2,-6.669993401E-1,1.661815286E0,9.786644936E0
4.915198480E2,-7.627122402E-1,1.825125456E0,9.759725571E0
4.920198480E2,-8.267202377E-1,1.909472466E0,9.708279610E0
4.925198480E2,-6.221339107E-1,1.822134495E0,9.671789169E0
4.930198480E2,-6.843472719E-1,1.818545222E0,9.740582466E0
4.935198480E2,-6.508477330E-1,1.527817249E0,9.647860527E0
4.940198480E2,-1.076770186E0,1.451845169E0,9.705288887E0
4.945198480E2,-1.188634634E0,1.290329576E0,9.847063065E0
4.950198480E2,-9.972088337E-1,1.174277663E0,9.727422714E0
4.955198480E2,-3.110669553E-1,2.252244234E0,9.568299294E0
4.960198480E2,-9.583254457E-1,2.486740828E0,9.105288506E0
4.965198480E2,-1.246062398E0,2.444268227E0,1.036271667E1
4.970198480E2,-1.628315806E0,2.788834810E0,8.314460754E0
4.975198480E2,-1.146760225E0,3.266801119E0,9.764511108E0
4.980198480E2,-1.397408366E0,2.700300455E0,9.612566948E0
4.985198480E2,-9.559326172E-1,2.992224693E0,8.620143890E0
4.990198480E2,-1.891526341E0,2.863610506E0,9.178867340E0
4.995198480E2,-1.098903775E0,4.037888050E0,9.186644554E0
5.000198480E2,-9.409775138E-1,3.890729666E0,7.969295979E0
5.005198480E2,-1.056431174E0,4.201796532E0,8.878568649E0
5.010198480E2,-1.049252748E0,2.805584431E0,1.004207802E1
5.015198480E2,-9.894321561E-1,3.198007345E0,9.062217712E0
5.020198480E2,-9.840483069E-1,2.964108944E0,8.772088051E0
5.025198480E2,-7.974081635E-1,2.776870728E0,9.614361763E0
5.030198480E2,-3.320041299E-1,2.635694027E0,8.883952141E0
5.035198480E2,-2.213360965E-1,2.729014158E0,9.408578873E0
5.040198480E2,6.819544733E-2,3.091526747E0,9.878767967E0
5.045198480E2,-6.879364848E-1,2.956332445E0,9.051449776E0
5.050198480E2,7.776673418E-3,2.804388046E0,8.591429710E0
5.055198480E2,3.290131092E-1,2.597409010E0,9.237491608E0
5.060198480E2,-2.679961324E-1,2.819941521E0,9.595218658E0
5.065198480E2,-1.666600943E0,2.160120726E0,8.062616348E0
5.070198480E2,-1.070189953E0,2.963510752E0,9.601799011E0
5.075198480E2,-1.353141189E0,2.964108944E0,9.448657990E0
5.080198480E2,-1.446461320E0,3.349951744E0,9.146564484E0
5.085198480E2,-1.871187329E0,2.991028309E0,8.647661209E0
5.090198480E2,-1.542772412E0,3.140579700E0,9.569496155E0
5.095198480E2,-2.056631088E0,3.317648649E0,9.013164520E0
5.100198480E2,-1.882553220E0,3.348157167E0,9.224929810E0
5.105198480E2,-2.100898266E0,3.369094372E0,8.349754333E0
5.110198480E2,-1.546959877E0,4.287938118E0,8.641080856E0
5.115198480E2,-1.877169371E0,3.134597778E0,8.690732002E0
5.120198480E2,-1.625923038E0,4.152743816E0,9.233304024E0
5.125198480E2,-1.614557028E0,3.719642878E0,8.008178711E0
5.130198480E2,-1.899901152E0,3.740580082E0,8.861220360E0
5.135198480E2,-1.886740685E0,3.549752474E0,8.449654579E0
5.140198480E2,-1.459621787E0,3.614956856E0,9.467801094E0
5.145198480E2,-2.027318954E0,3.385245800E0,9.236295700E0
5.150198480E2,-2.271985054E0,3.166900873E0,8.711071014E0
5.155198480E2,-2.233101845E0,2.544168711E0,9.415159225E0
5.160198480E2,-2.472982168E0,3.394218922E0,8.298309326E0
5.165198480E2,-1.279561877E0,3.348755360E0,8.220541954E0
5.170198480E2,-2.106880426E0,2.710469961E0,9.807581902E0
5.175198480E2,-2.040479422E0,2.991028309E0,9.778867722E0
5.180198480E2,-2.076970100E0,2.472383976E0,9.132207870E0
5.185198480E2,-1.470987678E0,2.708675146E0,8.435895920E0
5.190198480E2,-1.373480201E0,3.074178934E0,9.381061554E0
5.195198480E2,-1.389033556E0,2.861815929E0,9.483354568E0
5.200198480E2,-1.271785259E0,3.198007345E0,9.023932457E0
5.205198480E2,-2.282752752E0,2.985046148E0,8.971290588E0
5.210198480E2,-2.763111830E0,3.071187973E0,8.912666321E0
5.215198480E2,-2.016551256E0,3.265604734E0,1.041476059E1
5.220198480E2,-2.008774519E0,3.583251953E0,9.139386177E0
5.225198480E2,-2.414956331E0,3.412165165E0,9.309874535E0
5.230198480E2,-1.794616938E0,3.550948858E0,9.324232101E0
5.235198480E2,-1.890329838E0,3.653241873E0,8.443074226E0
5.240198480E2,-1.976471543E0,3.882354736E0,8.103892326E0
5.245198480E2,-1.874178290E0,3.934996843E0,8.925228119E0
5.250198480E2,-2.079961061E0,3.898506403E0,8.587242126E0
5.255198480E2,-1.475773335E0,4.284946918E0,8.861220360E0
5.260198480E2,-1.662413478E0,4.010370731E0,8.770293236E0
5.265198480E2,-1.965105653E0,3.534797192E0,8.641080856E0
5.270198480E2,-1.345962763E0,3.413959742E0,8.931210518E0
5.275198480E2,-2.102692842E0,2.560320139E0,9.533005714E0
5.280198480E2,-1.690529227E0,3.115455151E0,8.545966148E0
5.285198480E2,-1.603191137E0,2.933600664E0,9.159725189E0
5.290198480E2,-1.591825247E0,2.630908489E0,9.151947975E0
5.295198480E2,-1.714457393E0,2.968296528E0,9.625128746E0
5.300198480E2,-1.738385677E0,3.023331404E0,8.872586250E0
5.305198480E2,-2.132603168E0,2.949752092E0,9.196813583E0
5.310198480E2,-2.615953445E0,3.281756163E0,9.564710617E0
5.315198480E2,-2.511267424E0,3.340380430E0,8.652446747E0
5.320198480E2,-2.551945448E0,3.166900873E0,8.499305725E0
5.325198480E2,-3.013760090E0,3.457030535E0,8.653642654E0
5.330198480E2,-2.960519791E0,3.786641836E0,8.521439552E0
5.335198480E2,-3.380460262E0,3.394817114E0,9.102297783E0
5.340198480E2,-3.509074450E0,3.279961586E0,8.941379547E0
5.345198480E2,-4.127020836E0,2.866601467E0,8.170890808E0
5.350198480E2,-3.963710785E0,3.070589542E0,9.319445610E0
5.355198480E2,-2.758326292E0,3.217149973E0,8.938388824E0
5.360198480E2,-2.336591244E0,2.678166628E0,8.531609535E0
5.365198480E2,-1.974676847E0,2.920439959E0,9.233304024E0
5.370198480E2,-1.372283816E0,2.769692183E0,8.737391472E0
5.375198480E2,-1.758126378E0,2.499901533E0,9.689735413E0
5.380198480E2,-1.609173179E0,2.240878344E0,9.463015556E0
5.385198480E2,-1.420140266E0,3.067598581E0,9.413364410E0
5.390198480E2,-1.333998680E0,2.513660192E0,9.443872452E0
5.395198480E2,-1.098903775E0,2.231307030E0,9.909874916E0
5.400198480E2,-1.549352646E0,2.843869686E0,9.244071960E0
5.405198480E2,-1.712064624E0,2.882753134E0,9.572486877E0
5.410198480E2,-1.513460279E0,3.131606579E0,8.974281311E0
5.415198480E2,-1.360319614E0,3.284747362E0,9.806983948E0
5.420198480E2,-1.414756417E0,3.147758245E0,8.987442017E0
5.425198480E2,-1.647458434E0,2.941975355E0,9.263215065E0
5.430198480E2,-1.767099500E0,2.783450842E0,8.768498421E0
5.435198480E2,-1.776670814E0,2.898904562E0,8.823533058E0
5.440198480E2,-1.530210137E0,3.662813187E0,8.885746956E0
5.445198480E2,-1.761117458E0,3.369094372E0,8.850452423E0
5.450198480E2,-1.440479279E0,3.793222189E0,8.590232849E0
5.455198480E2,-1.691127419E0,3.515654564E0,8.962317467E0
5.460198480E2,-1.576271892E0,4.286143780E0,8.694320679E0
5.465198480E2,-1.470389485E0,3.676572084E0,9.058030128E0
5.470198480E2,-1.667199135E0,3.590430260E0,9.092725754E0
5.475198480E2,-1.555334687E0,3.534797192E0,8.635098457E0
5.480198480E2,-1.601994753E0,3.436093330E0,8.711071014E0
5.485198480E2,-1.377069473E0,4.018147469E0,8.864809990E0
5.490198480E2,-1.508674622E0,4.296313286E0,8.770293236E0
5.495198480E2,-1.649253011E0,3.272184849E0,8.323433876E0
5.500198480E2,-1.549352646E0,3.578466177E0,9.208778381E0
5.505198480E2,-1.295115232E0,3.645465374E0,9.037093163E0
5.510198480E2,-1.915454507E0,3.552743435E0,9.207581520E0
5.515198480E2,-2.016551256E0,3.479164124E0,9.046066284E0
5.520198480E2,-1.712064624E0,3.319443226E0,9.218349457E0
5.525198480E2,-1.841277003E0,2.944966555E0,8.320442200E0
5.530198480E2,-1.688136339E0,2.748156786E0,8.723034859E0
5.535198480E2,-1.810768485E0,2.190030813E0,1.009412193E1
5.540198480E2,-2.099701881E0,1.362712502E0,9.863214493E0
5.545198480E2,-1.298106313E0,1.840678811E0,1.058405304E1
5.550198480E2,-1.630708575E0,1.223928809E0,9.201599121E0
5.555198480E2,-1.302891970E0,1.030110121E0,9.668199539E0
5.560198480E2,-9.535398483E-1,1.478764415E0,9.274580956E0
5.565198480E2,-1.758126378E0,2.539382935E0,9.427721024E0
5.570198480E2,-3.379862010E-1,2.432902336E0,8.961718559E0
5.575198480E2,-6.221339107E-1,2.542374134E0,9.590433121E0
5.580198480E2,-6.394818425E-1,2.336591244E0,9.530014038E0
5.585198480E2,-6.861419082E-1,1.834098577E0,9.692128181E0
5.590198480E2,4.689932466E-1,3.937389612E0,8.743373871E0
5.595198480E2,-3.696911037E-1,1.901097536E0,9.203991890E0
5.600198480E2,-6.969096065E-1,1.413560033E0,9.847661972E0
5.605198480E2,-2.524427772E-1,1.028913736E0,9.802796364E0
5.610198480E2,-8.051848412E-1,1.113260746E0,1.006122112E1
5.615198480E2,-9.122636318E-1,3.445664644E-1,9.504291534E0
5.620198480E2,-2.871387079E-2,1.236491084E0,9.662218094E0
5.625198480E2,-1.355534077E0,1.238285661E0,9.437292099E0
5.630198480E2,-2.313261271E0,3.026920557E-1,1.013958549E1
5.635198480E2,-1.505683661E0,1.805384636E0,9.637093544E0
5.640198480E2,-1.722832322E0,7.046862841E-1,9.754341125E0
5.645198480E2,-1.573280931E0,1.244267821E0,9.505488396E0
5.650198480E2,-1.704886079E0,1.027119160E0,9.491130829E0
5.655198480E2,-2.106880426E0,1.006181955E0,9.598808289E0
5.660198480E2,-1.815554142E0,1.226321578E0,9.493523598E0
5.665198480E2,-2.047059774E0,1.243071318E0,9.404989243E0
5.670198480E2,-1.910668850E0,1.288534999E0,9.518648148E0
5.675198480E2,-1.779063582E0,1.356132269E0,1.108175945E1
5.680198480E2,-1.347757339E0,1.057627559E0,9.192028046E0
5.685198480E2,-1.621137381E0,2.374876499E0,9.096315384E0
5.690198480E2,3.924229145E-1,2.803191662E0,8.531010628E0
5.695198480E2,-7.495517135E-1,2.068595171E0,1.057747269E1
5.700198480E2,-1.485344648E0,1.652842283E0,9.570094109E0
5.705198480E2,-3.290131092E-1,2.172683001E0,8.677571297E0
5.710198480E2,-1.624128342E0,1.592423439E0,1.029751205E1
5.715198480E2,-2.693121910E0,5.120640397E-1,1.007019424E1
5.720198480E2,-2.566900492E0,1.379462242E0,9.270991325E0
5.725198480E2,-1.611566067E0,1.593619823E0,9.438488960E0
5.730198480E2,-1.750349760E0,1.990828395E0,9.852447510E0
5.735198480E2,-1.606182218E0,1.380060434E0,9.439086914E0
5.740198480E2,-1.377069473E0,2.255235434E0,1.031785107E1
5.745198480E2,-1.624128342E0,2.030908108E0,8.843872070E0
5.750198480E2,-1.877169371E0,8.195417523E-1,8.727820396E0
5.755198480E2,-1.901097536E0,1.389631748E0,9.295517921E0
5.760198480E2,-2.587239504E0,1.109073281E0,9.242876053E0
5.765198480E2,-1.552343726E0,1.750349760E0,9.340383530E0
5.770198480E2,-2.767299414E0,1.399203062E0,9.643074989E0
5.775198480E2,-1.039681435E0,2.207977057E0,9.213563919E0
5.780198480E2,-2.354537487E0,1.167697430E0,8.518448830E0
5.785198480E2,-2.807379246E0,1.517049551E0,9.638289452E0
5.790198480E2,-1.146760225E0,1.748555183E0,9.098708153E0
5.795198480E2,-1.788634896E0,1.596610904E0,1.003908730E1
5.800198480E2,-1.831705689E0,1.797608018E0,9.714859962E0
5.805198480E2,-2.568695068E0,1.560120344E0,9.492925644E0
5.810198480E2,-1.718046665E0,1.794616938E0,8.871390343E0
5.815198480E2,-2.525624275E0,1.741974831E0,9.151350021E0
5.820198480E2,-2.960519791E0,2.437089920E0,1.303908920E1
5.825198480E2,-3.851248026E0,1.496112347E0,9.550951958E0
5.830198480E2,-1.687538147E0,2.635095835E0,9.561718941E0
5.835198480E2,-2.463410854E0,2.188834429E0,1.020658493E1
5.840198480E2,-2.322832584E0,1.325623751E0,9.177671432E0
5.845198480E2,-9.176474810E-1,2.137987137E0,1.028076267E1
5.850198480E2,-8.410771489E-1,1.375274777E0,1.036570740E1
5.855198480E2,-1.293320656E0,1.109073281E0,9.996016502E0
5.860198480E2,-1.637887120E0,1.734198213E0,9.975079536E0
5.865198480E2,-1.883749604E0,1.660618901E0,9.791430473E0
5.870198480E2,-1.556531072E0,1.606182218E0,9.558130264E0
5.875198480E2,-1.551745534E0,1.791625977E0,8.717651367E0
5.880198480E2,-1.305284739E0,2.349751949E0,8.843872070E0
5.885198480E2,-1.502692580E0,2.291127682E0,1.088913727E1
5.890198480E2,-1.490130305E0,1.274178028E0,9.534201622E0
5.895198480E2,-1.241276741E0,2.522035122E0,1.019521904E1
5.900198480E2,-1.189831018E0,1.869392633E0,8.722436905E0
5.905198480E2,-1.917249203E0,2.402393818E0,1.003729248E1
5.910198480E2,-1.611566067E0,1.999203324E0,9.107083321E0
5.915198480E2,-6.221339107E-1,2.187039852E0,8.900103569E0
5.920198480E2,-1.590628862E0,1.979462504E0,9.771091461E0
5.925198480E2,-2.046461582E0,2.011765718E0,9.191430092E0
5.930198480E2,-1.277767301E0,2.000399828E0,8.684749603E0
5.935198480E2,-2.244467735E0,1.794616938E0,1.027597713E1
5.940198480E2,-1.682752490E0,1.984248161E0,9.376275063E0
5.945198480E2,-8.231309652E-1,2.085345030E0,9.617950439E0
5.950198480E2,-1.938186288E0,1.902892232E0,8.941379547E0
5.955198480E2,-5.724828243E-1,2.306680918E0,9.234500885E0
5.960198480E2,-1.674975872E0,2.088335991E0,9.936794281E0
5.965198480E2,-1.171286702E0,1.936989903E0,8.883952141E0
5.970198480E2,-2.440679073E0,1.665404558E0,9.976275444E0
5.975198480E2,-9.236295223E-1,2.483749866E0,8.994022369E0
5.980198480E2,-2.398804665E0,1.415354609E0,9.957133293E0
5.985198480E2,-6.209374666E-1,2.743969440E0,1.008156013E1
5.990198480E2,-2.713460922E0,1.330409408E0,9.827920914E0
5.995198480E2,-8.410771489E-1,2.266601324E0,8.874381065E0
6.000198480E2,-1.795813441E0,1.865205288E0,9.217152596E0
6.005198480E2,-1.369890928E0,1.936391711E0,1.039621639E1
6.010198480E2,-1.322632670E0,2.094317913E0,8.711668968E0
6.015198480E2,-2.386242390E0,1.566102386E0,9.960722923E0
6.020198480E2,-7.334001660E-1,2.635694027E0,9.628718376E0
6.025198480E2,-1.817348838E0,1.858026743E0,8.521439552E0
6.030198480E2,-2.491526604E0,1.604387641E0,1.138804150E1
6.035198480E2,-1.021137118E0,2.358126640E0,9.285946846E0
6.040198480E2,-1.290329576E0,2.329412937E0,8.700303078E0
6.045198480E2,-2.418545485E0,1.676770449E0,1.007079220E1
6.050198480E2,-1.603191137E0,1.954337835E0,9.991230965E0
6.055198480E2,-9.367900491E-1,2.788834810E0,9.043673515E0
6.060198480E2,-1.901695848E0,1.840678811E0,8.487939835E0
6.065198480E2,-2.472982168E0,1.421336651E0,1.013479996E1
6.070198480E2,-5.742774606E-1,2.427518606E0,9.406784058E0
6.075198480E2,-1.000199914E0,2.734398127E0,8.920442581E0
6.080198480E2,-1.976471543E0,1.903490424E0,8.599804878E0
6.085198480E2,-1.925025821E0,1.807777524E0,9.103493690E0
6.090198480E2,-2.354537487E0,1.671386600E0,1.005464077E1
6.095198480E2,-7.465606928E-1,2.839682341E0,9.996016502E0
6.100198480E2,-4.534398913E-1,3.031108141E0,8.875576973E0
6.105198480E2,-1.113260746E0,2.720041037E0,8.239685059E0
6.110198480E2,-5.712863803E-1,2.786442041E0,9.050851822E0
6.115198480E2,-1.813759565E0,1.753340840E0,8.628518105E0
6.120198480E2,-2.228914261E0,1.450050473E0,1.029990482E1
6.125198480E2,-1.341775298E0,1.976471543E0,1.034177971E1
6.130198480E2,-1.456630826E0,2.427518606E0,9.896714211E0
6.135198480E2,-1.198205948E0,2.228914261E0,9.434301376E0
6.140198480E2,-9.140582681E-1,2.304886341E0,9.454640388E0
6.145198480E2,-1.984248161E0,2.241476536E0,8.273183823E0
6.150198480E2,-1.430907965E0,2.061416626E0,8.622536659E0
6.155198480E2,-1.861616015E0,2.036890268E0,9.735796928E0
6.160198480E2,-1.711466432E0,2.219342947E0,1.026520920E1
6.165198480E2,-2.099701881E0,2.117049932E0,9.706484795E0
6.170198480E2,-1.262213945E0,2.638087034E0,8.179863930E0
6.175198480E2,-8.530412912E-1,3.026322365E0,9.681360245E0
6.180198480E2,-8.410771489E-1,2.625524759E0,8.357531548E0
6.185198480E2,-8.691928387E-1,3.025724173E0,1.142632675E1
6.190198480E2,-1.888535261E0,2.075175524E0,8.167900085E0
6.195198480E2,-1.775474429E0,1.969891191E0,1.038843918E1
6.200198480E2,-1.355534077E0,2.449054003E0,1.049970531E1
6.205198480E2,-1.193420291E0,2.385046005E0,9.347561836E0
6.210198480E2,-5.533402562E-1,3.189034462E0,9.349356651E0
6.215198480E2,-8.913264275E-1,2.029113531E0,7.966304779E0
6.220198480E2,-1.987239242E0,2.088335991E0,9.330811501E0
6.225198480E2,-2.525026083E0,1.627119422E0,9.848857880E0
6.230198480E2,-1.530210137E0,2.170888424E0,1.075035381E1
6.235198480E2,-1.197607756E0,2.403590441E0,9.903294563E0
6.240198480E2,-5.443671346E-1,2.764906645E0,9.443274498E0
6.245198480E2,-1.513460279E0,2.469393015E0,8.148159027E0
6.250198480E2,-2.470589399E0,2.082952023E0,8.768498421E0
6.255198480E2,-1.525424480E0,2.140978098E0,8.788239479E0
6.260198480E2,-2.142772675E0,2.015953064E0,9.108877182E0
6.265198480E2,-1.365703583E0,2.417947292E0,1.067498016E1
6.270198480E2,-5.264210105E-1,2.419741869E0,1.092263699E1
6.275198480E2,-4.462614357E-1,3.010170937E0,8.553144455E0
6.280198480E2,-4.450650215E-1,2.888735056E0,8.376673698E0
6.285198480E2,-1.246062398E0,2.629113913E0,8.869595528E0
6.290198480E2,-1.336989641E0,2.212164640E0,8.392227173E0
6.295198480E2,-1.655833244E0,2.293520451E0,9.002995491E0
6.300198480E2,-7.896314859E-1,2.303689957E0,1.100578785E1
6.305198480E2,-8.584251404E-1,2.836691141E0,1.097827053E1
6.310198480E2,-6.089733839E-1,2.638685226E0,8.395816803E0
6.315198480E2,-1.190429211E0,2.970689297E0,8.697312355E0
6.320198480E2,-9.056833982E-1,2.445464849E0,8.074580193E0
6.325198480E2,-1.834098577E0,2.032104731E0,9.137591362E0
6.330198480E2,-1.858624935E0,2.209173441E0,9.661021233E0
6.335198480E2,-1.376471281E0,2.344966173E0,1.081555843E1
6.340198480E2,-1.481755376E0,2.437688112E0,1.004327488E1
6.345198480E2,-4.438686073E-1,2.906681299E0,1.039083195E1
6.350198480E2,-8.961120844E-1,2.836691141E0,9.486943245E0
6.355198480E2,-1.721635938E0,1.987239242E0,8.339585304E0
6.360198480E2,-1.393819213E0,2.257030010E0,8.885149002E0
6.365198480E2,-1.895115495E0,2.258824587E0,1.083649540E1
6.370198480E2,-1.630110383E0,2.300100803E0,9.654440880E0
6.375198480E2,-3.894318938E-1,2.611765862E0,9.673583984E0
6.380198480E2,-1.140179992E0,2.828316450E0,9.347561836E0
6.385198480E2,-1.190429211E0,2.255235434E0,8.386244774E0
6.390198480E2,-9.822536707E-1,2.624328136E0,9.092725754E0
6.395198480E2,-1.527817249E0,2.129612207E0,8.842078209E0
6.400198480E2,-1.453639746E0,2.025524378E0,1.005942631E1
6.405198480E2,-6.209374666E-1,2.579462767E0,9.932008743E0
6.410198480E2,-3.092723191E-1,2.656033039E0,1.151545906E1
6.415198480E2,-2.739782035E-1,2.635095835E0,8.671588898E0
6.420198480E2,-1.932204217E-1,2.630908489E0,8.785248756E0
6.425198480E2,-1.631905079E0,1.892124534E0,9.245866776E0
6.430198480E2,-1.603191137E0,2.225325108E0,9.970293999E0
6.435198480E2,-9.475577474E-1,2.072184324E0,1.012941647E1
6.440198480E2,-7.082754970E-1,2.689532757E0,1.029990482E1
6.445198480E2,-5.012963414E-1,2.324627161E0,9.804591179E0
6.450198480E2,-1.031904817E0,3.198605776E0,8.344968796E0
6.455198480E2,-8.979067206E-1,2.078166485E0,9.831509590E0
6.460198480E2,-1.066002488E0,2.283949137E0,8.742177963E0
6.465198480E2,-1.926820397E0,2.304886341E0,1.186720371E1
6.470198480E2,-1.221535921E0,2.108675003E0,9.333803177E0
6.475198480E2,-4.564309120E-1,3.235096216E0,1.011984539E1
6.480198480E2,-4.989035130E-1,2.946162939E0,8.935996056E0
6.485198480E2,-5.790630579E-1,3.147160053E0,8.545966148E0
6.490198480E2,-1.365105271E0,2.468196630E0,7.304689407E0
6.495198480E2,-1.856830359E0,1.922633052E0,9.226723671E0
6.500198480E2,-9.924231768E-1,2.367697954E0,1.045304585E1
6.505198480E2,-5.455635786E-1,2.700898647E0,1.061934662E1
6.510198480E2,-9.212367237E-2,3.147160053E0,9.571290970E0
6.515198480E2,-7.740781307E-1,2.581257343E0,8.381459236E0
6.520198480E2,-3.218346536E-1,2.982653379E0,9.402596474E0
6.525198480E2,-1.705484390E0,1.987837434E0,9.190233231E0
6.530198480E2,-1.601994753E0,2.132603168E0,9.546165466E0
6.535198480E2,-1.010967612E0,2.575873613E0,1.019162941E1
6.540198480E2,-4.325026870E-1,3.335594654E0,1.142333508E1
6.545198480E2,-3.062812984E-1,3.073580742E0,8.800801277E0
6.550198480E2,-7.178468108E-1,3.279363394E0,8.883354187E0
6.555198480E2,-1.138983607E0,2.965903759E0,1.006062317E1
6.560198480E2,-9.870393276E-1,2.874976397E0,9.321240425E0
6.565198480E2,-5.599204898E-1,3.062813044E0,9.408578873E0
6.570198480E2,-2.045863420E-1,3.252444267E0,8.428717613E0
6.575198480E2,-1.032503009E0,2.863610506E0,1.058764172E1
6.580198480E2,-5.084748268E-1,3.068794966E0,9.946365356E0
6.585198480E2,-1.231107235E0,3.030509949E0,8.465806961E0
6.590198480E2,-1.049850941E0,2.922832966E0,1.008455086E1
6.595198480E2,-8.338986635E-1,3.139383316E0,8.140382767E0
6.600198480E2,-1.336391449E0,2.932404041E0,9.062815666E0
6.605198480E2,-6.203392744E-1,3.235096216E0,8.737391472E0
6.610198480E2,-1.296909928E0,2.721237659E0,1.008514881E1
6.615198480E2,-9.637092948E-1,2.850450039E0,9.318847656E0
6.620198480E2,-7.812566161E-1,2.979662418E0,1.049491978E1
6.625198480E2,-6.221339107E-1,3.150749207E0,8.208578110E0
6.630198480E2,-5.802595019E-1,3.256033421E0,9.504291534E0
6.635198480E2,-1.500898004E0,2.651247501E0,9.720842361E0
6.640198480E2,-8.997012973E-1,2.851048231E0,9.424132347E0
6.645198480E2,-1.249053478E0,2.639881611E0,9.661021233E0
6.650198480E2,-6.173482537E-1,2.928814888E0,1.072104168E1
6.655198480E2,3.816552162E-1,2.678166628E0,1.056550884E1
6.660198480E2,-1.627119333E-1,2.514258385E0,8.693722725E0
6.665198480E2,1.710868180E-1,2.810968399E0,1.020419216E1
6.670198480E2,1.042074203E0,2.791227579E0,1.045484066E1
6.675198480E2,-5.778666735E-1,2.573480844E0,9.472586632E0
6.680198480E2,-1.034895778E-1,2.145763636E0,8.505288124E0
6.685198480E2,-4.384847581E-1,2.340180635E0,8.036892891E0
6.690198480E2,-3.559323549E-1,2.242672920E0,9.432506561E0
6.695198480E2,-1.214357495E0,2.106880426E0,9.824930191E0
6.700198480E2,-1.278963685E0,2.091326952E0,9.571290970E0
6.705198480E2,-7.465606928E-1,2.563909531E0,9.780064583E0
6.710198480E2,-2.440679073E-1,2.590828657E0,8.229515076E0
6.715198480E2,-9.152546525E-1,2.042274237E0,9.780064583E0
6.720198480E2,-1.182054400E0,2.155334949E0,9.962516785E0
6.725198480E2,-6.987041831E-1,2.185843468E0,8.577671051E0
6.730198480E2,-6.526423693E-1,2.344966173E0,9.203991890E0
6.735198480E2,-1.437488198E0,2.316252232E0,9.335597992E0
6.740198480E2,-2.306680918E0,1.949552298E0,1.025563812E1
6.745198480E2,3.553341627E-1,3.485744476E0,9.317651749E0
6.750198480E2,-2.287538528E0,1.514058471E0,8.507680893E0
6.755198480E2,-1.525424480E0,2.575873613E0,1.009292603E1
6.760198480E2,-1.202393413E0,2.441875458E0,8.550751686E0
6.765198480E2,-6.281159520E-1,2.865405083E0,8.766105652E0
6.770198480E2,-6.879364848E-1,2.646461725E0,1.029751205E1
6.775198480E2,-1.633101463E0,2.487339020E0,8.921639442E0
6.780198480E2,-1.543968797E0,2.347957134E0,9.439086914E0
6.785198480E2,-1.422533035E0,2.456232548E0,9.740582466E0
6.790198480E2,-8.452646136E-1,2.686541557E0,9.028717995E0
6.795198480E2,-1.058824062E0,2.523829699E0,9.217152596E0
6.800198480E2,-6.957131624E-1,2.671586514E0,8.645866394E0
6.805198480E2,-6.299105883E-1,2.903092146E0,8.882157326E0
6.810198480E2,-7.064808607E-1,2.687737942E0,8.339585304E0
6.815198480E2,-1.131206870E0,2.710469961E0,8.763712883E0
6.820198480E2,-1.179063320E0,2.575873613E0,9.084949493E0
6.825198480E2,-9.379864931E-1,2.737389088E0,9.601799011E0
6.830198480E2,-5.491527915E-1,2.388036966E0,8.816354752E0
6.835198480E2,-1.128215909E0,2.550748825E0,9.701699257E0
6.840198480E2,-1.800599098E0,2.020738840E0,8.843872070E0
6.845198480E2,-1.214357495E0,2.721237659E0,9.930213928E0
6.850198480E2,-3.840480447E-1,2.702693224E0,9.839286804E0
6.855198480E2,-6.903293133E-1,2.749951363E0,9.467203140E0
6.860198480E2,-1.616351724E0,3.064009428E0,9.357132912E0
6.865198480E2,-1.426122308E0,3.434896946E0,9.153144836E0
6.870198480E2,-1.866401672E0,2.633301258E0,8.438288689E0
6.875198480E2,-1.812563181E0,2.650051117E0,8.742177963E0
6.880198480E2,-1.324427366E0,2.748754978E0,9.504291534E0
6.885198480E2,-7.046862841E-1,3.466003656E0,9.620343208E0
6.890198480E2,-1.064207911E0,2.970091105E0,8.993423462E0
6.895198480E2,-1.118644595E0,3.119044304E0,8.500502586E0
6.900198480E2,-1.228116274E0,2.955734253E0,9.212367058E0
6.905198480E2,-8.823533654E-1,3.128615618E0,9.485149384E0
6.910198480E2,-4.211367965E-1,3.250649452E0,9.375079155E0
6.915198480E2,-1.350748420E0,2.120040894E0,8.531010628E0
6.920198480E2,-1.257428288E0,2.233101845E0,8.258827209E0
6.925198480E2,-3.684946895E-1,3.089732170E0,8.977870941E0
6.930198480E2,-5.676971674E-1,2.611167669E0,9.171091080E0
6.935198480E2,-4.289134443E-1,3.014956474E0,1.017787075E1
6.940198480E2,-9.056833982E-1,2.335394859E0,1.025922680E1
6.945198480E2,-2.461616278E0,2.568695068E0,9.654440880E0
6.950198480E2,-1.829911113E0,2.769093990E0,9.436096191E0
6.955198480E2,-2.520240545E0,2.082952023E0,8.475378036E0
6.960198480E2,-2.477169752E0,2.255235434E0,9.203991890E0
6.965198480E2,-2.461018085E0,2.274976015E0,9.492925644E0
6.970198480E2,-3.099901676E0,1.762313843E0,9.851848602E0
6.975198480E2,-1.319043517E0,2.097309113E0,1.028255749E1
6.980198480E2,-1.060618639E0,2.228316069E0,9.193224907E0
6.985198480E2,-9.397810698E-1,2.453839540E0,9.410373688E0
6.990198480E2,-1.529611826E0,2.584248543E0,9.113663673E0
6.995198480E2,-1.268195987E0,3.086741209E0,8.709874153E0
7.000198480E2,-1.155135155E0,2.642872572E0,9.022735596E0
7.005198480E2,-1.264606714E0,2.083550215E0,9.593423843E0
7.010198480E2,-1.237687469E0,3.134597778E0,9.326025963E0
7.015198480E2,-1.721635938E0,2.925823927E0,8.916853905E0
7.020198480E2,-1.676770449E0,2.949153900E0,9.354142189E0
7.025198480E2,-1.125823021E0,2.863012314E0,9.016156197E0
7.030198480E2,-1.453639746E0,2.812164783E0,9.708877563E0
7.035198480E2,-1.751546144E0,2.542374134E0,9.134600639E0
7.040198480E2,-1.877169371E0,2.456232548E0,9.684351921E0
7.045198480E2,-1.566700578E0,2.118844509E0,9.129815102E0
7.050198480E2,-1.603191137E0,2.145763636E0,9.280562401E0
7.055198480E2,-1.722832322E0,2.248056889E0,9.553344727E0
7.060198480E2,-1.878963947E0,1.849053741E0,9.302098274E0
7.065198480E2,-1.274178028E0,1.973480463E0,9.234500885E0
7.070198480E2,-1.625324726E0,2.252244234E0,9.121439934E0
7.075198480E2,-1.475175142E0,2.784049034E0,9.342776299E0
7.080198480E2,-1.557129383E0,2.693121910E0,9.372088432E0
7.085198480E2,-1.394417405E0,3.024527788E0,9.290732384E0
7.090198480E2,-2.194816589E0,2.035095692E0,9.089735031E0
7.095198480E2,-1.392622828E0,2.263610125E0,9.108279228E0
7.100198480E2,-1.625324726E0,1.911267042E0,9.345169067E0
7.105198480E2,-1.671984792E0,1.759921074E0,9.610772133E0
7.110198480E2,-1.652244091E0,1.834098577E0,9.385847092E0
7.115198480E2,-1.625324726E0,1.922633052E0,9.266803741E0
7.120198480E2,-1.692323804E0,1.865205288E0,9.304491043E0
7.125198480E2,-1.743171334E0,1.728814363E0,9.347561836E0
7.130198480E2,-1.659422517E0,1.955534339E0,9.394221306E0
7.135198480E2,-1.756331801E0,1.848455548E0,9.438488960E0
7.140198480E2,-1.786242127E0,1.834098577E0,9.448060036E0
7.145198480E2,-1.737189293E0,1.805982947E0,9.427721024E0
7.150198480E2,-1.697707653E0,1.896910191E0,9.469595909E0
7.155198480E2,-1.786242127E0,1.838884234E0,9.513862610E0
7.160198480E2,-1.604985833E0,1.957328916E0,9.365508080E0
7.165198480E2,-1.686341763E0,1.901695848E0,9.473783493E0
7.170198480E2,-1.826920033E0,1.874776483E0,9.478569031E0
7.175198480E2,-1.609771490E0,1.836491346E0,9.449854851E0
7.180198480E2,-1.689332843E0,1.917249203E0,9.495916367E0
7.185198480E2,-1.722832322E0,1.865205288E0,9.421739578E0
7.190198480E2,-1.758126378E0,1.883749604E0,9.360722542E0
7.195198480E2,-1.698904037E0,1.828116536E0,9.385847092E0
7.200198480E2,-1.816750646E0,1.801197290E0,9.440881729E0
7.205198480E2,-2.083550215E0,1.974676847E0,8.755936623E0
7.210198480E2,-1.858624935E0,1.858026743E0,9.322437286E0
7.215198480E2,-1.834696770E0,1.841277003E0,9.344570160E0
7.220198480E2,-1.864607096E0,1.802393675E0,9.234500885E0
7.225198480E2,-1.846062660E0,1.799402595E0,9.394221306E0
7.230198480E2,-1.849053741E0,1.727617979E0,9.456435204E0
7.235198480E2,-1.849053741E0,1.737189293E0,9.486345291E0
7.240198480E2,-1.842473388E0,1.794616938E0,9.493523598E0
7.245198480E2,-1.745564103E0,1.874776483E0,9.442078590E0
7.250198480E2,-1.697707653E0,1.888535261E0,9.448657990E0
7.255198480E2,-1.891526341E0,1.829312921E0,9.311071396E0
7.260198480E2,-1.935195327E0,1.743769526E0,9.435498238E0
7.265198480E2,-1.838884234E0,1.801197290E0,9.429515839E0
7.270198480E2,-1.751546144E0,1.751546144E0,9.520442963E0
7.275198480E2,-1.872981906E0,1.796411633E0,9.400203705E0
7.280198480E2,-1.798206210E0,1.850848317E0,9.435498238E0
7.285198480E2,-1.758126378E0,1.855035782E0,9.409774780E0
7.290198480E2,-1.863410592E0,1.829312921E0,9.464211464E0
7.295198480E2,-1.835893154E0,1.810768485E0,9.368498802E0
7.300198480E2,-1.792822361E0,1.665404558E0,9.434301376E0
7.305198480E2,-1.702493310E0,1.649851203E0,9.491728783E0
7.310198480E2,-1.781456470E0,1.651047587E0,9.443274498E0
7.315198480E2,-1.825125456E0,1.698904037E0,9.354142189E0
7.320198480E2,-1.898704767E0,1.684547186E0,9.419346809E0
7.325198480E2,-1.836491346E0,1.877767563E0,9.236295700E0
7.330198480E2,-1.810768485E0,1.542174220E0,9.454640388E0
7.335198480E2,-1.838884234E0,1.566102386E0,9.497711182E0
7.340198480E2,-1.826920033E0,1.882553220E0,9.357730865E0
7.345198480E2,-1.762313843E0,9.870393276E-1,9.510273933E0
7.350198480E2,-1.846062660E0,1.131206870E0,9.467203140E0
7.355198480E2,-1.732403636E0,8.632107973E-1,9.675378799E0
7.360198480E2,-1.811964989E0,7.034898400E-1,9.458230019E0
7.365198480E2,-1.912463546E0,8.051848412E-1,1.029990482E1
7.370198480E2,-2.012962103E0,4.821537733E-1,9.820143700E0
7.375198480E2,-1.735992789E0,7.405785918E-1,9.577870369E0
7.380198480E2,-2.002194405E0,2.667997181E-1,9.641879082E0
7.385198480E2,-2.180459738E0,6.580262445E-3,9.530014038E0
7.390198480E2,-2.376671076E0,1.692921966E-1,9.319445610E0
7.395198480E2,-2.423331022E0,4.486542568E-2,9.638289452E0
7.400198480E2,-1.402194023E0,7.884350419E-1,8.896514893E0
7.405198480E2,-2.314457655E0,1.519442350E-1,9.633503914E0
7.410198480E2,-2.429911375E0,2.410768867E-1,8.755936623E0
7.415198480E2,-1.826321840E0,5.665007830E-1,9.907482147E0
7.420198480E2,-1.123430252E0,1.406979680E0,9.610772133E0
7.425198480E2,-1.839482427E0,4.354937077E-1,9.692726135E0
7.430198480E2,-6.717849374E-1,1.172483087E0,9.079565048E0
7.435198480E2,-1.948953986E0,7.286145091E-1,1.038185883E1
7.440198480E2,-1.779063582E0,1.124626637E0,8.942576408E0
7.445198480E2,-9.858429432E-1,1.099501967E0,9.750154495E0
7.450198480E2,-1.162911773E0,1.403988719E0,1.027777100E1
7.455198480E2,-1.507478237E0,1.037288666E0,9.252447128E0
7.460198480E2,-1.601994753E0,1.013360381E0,9.046066284E0
7.465198480E2,-1.543968797E0,1.027119160E0,9.783653259E0
7.470198480E2,-2.341975212E0,1.585245013E0,9.857233047E0
7.475198480E2,-2.324627161E0,1.389631748E0,8.843872070E0
7.480198480E2,-3.251247883E0,6.652047038E-1,9.083154678E0
7.485198480E2,-3.175873756E0,9.876375198E-1,8.180462837E0
7.490198480E2,-3.403790236E0,1.392622828E0,9.510871887E0
7.495198480E2,-2.784049034E0,1.528415442E0,9.284152031E0
7.500198480E2,-3.461217880E0,8.027920127E-1,9.228518486E0
7.505198480E2,-3.186043262E0,1.462612867E0,1.050449181E1
7.510198480E2,-3.299104214E0,1.377069473E0,9.821938515E0
7.515198480E2,-3.003590584E0,1.491326690E0,9.741779327E0
7.520198480E2,-2.700898647E0,1.097109199E0,9.419346809E0
7.525198480E2,-2.702095032E0,1.287338614E0,9.724431038E0
7.530198480E2,-2.391626120E0,1.606182218E0,1.020179939E1
7.535198480E2,-1.902892232E0,9.780662656E-1,7.313662529E0
7.540198480E2,-2.560320139E0,1.172483087E0,9.153742790E0
7.545198480E2,-1.501496196E0,1.412961721E0,1.030469036E1
7.550198480E2,-2.182254314E0,8.344969153E-1,9.203991890E0
7.555198480E2,-8.374879360E-1,1.319641709E0,9.981060982E0
7.560198480E2,-1.976471543E0,6.831508875E-1,8.767302513E0
7.565198480E2,-9.798609018E-1,1.558923960E0,1.078325558E1
7.570198480E2,-1.021137118E0,1.341177106E0,8.605786324E0
7.575198480E2,-2.285743713E0,8.536394835E-1,9.366703987E0
7.580198480E2,-1.949552298E0,7.226324677E-1,9.668798447E0
7.585198480E2,-1.855035782E0,9.463613629E-1,1.057986546E1
7.590198480E2,-1.271785259E0,1.393819213E0,9.566504478E0
7.595198480E2,-1.055832982E0,1.645065546E0,1.034177971E1
7.600198480E2,-1.022333503E0,1.510469317E0,1.093220806E1
7.605198480E2,-1.470987678E0,1.135394335E0,1.119482040E1
7.610198480E2,-1.521835208E0,1.087537885E0,9.159725189E0
7.615198480E2,-2.242672920E0,1.009771109E0,9.013164520E0
7.620198480E2,-2.114058733E0,1.373480201E0,8.127222061E0
7.625198480E2,-1.342971683E0,1.512263894E0,1.021914768E1
7.630198480E2,-2.727817774E0,9.415757060E-1,1.003250694E1
7.635198480E2,-1.872981906E0,1.306481123E0,9.735796928E0
7.640198480E2,-1.303490162E0,2.170888424E0,9.357730865E0
7.645198480E2,-2.056032896E0,1.482353687E0,9.992427826E0
7.650198480E2,-2.470589399E0,1.363908887E0,9.368498802E0
7.655198480E2,-2.542374134E0,9.272187948E-1,9.046664238E0
7.660198480E2,-1.850848317E0,1.558923960E0,1.045543861E1
7.665198480E2,-2.051247120E0,1.676770449E0,9.019146919E0
7.670198480E2,-1.981257200E0,1.228116274E0,8.236095428E0
7.675198480E2,-1.962114573E0,1.694118381E0,9.116654396E0
7.680198480E2,-1.770688772E0,1.327418327E0,9.323633194E0
7.685198480E2,-1.831705689E0,1.475175142E0,8.864809990E0
7.690198480E2,-2.378465652E0,1.542772412E0,9.534799576E0
7.695198480E2,-1.807179332E0,1.378265858E0,9.861420631E0
7.700198480E2,-1.928615093E0,1.624128342E0,1.013779163E1
7.705198480E2,-1.871187329E0,1.540977836E0,9.881160736E0
7.710198480E2,-2.242672920E0,1.488335729E0,9.808777809E0
7.715198480E2,-2.446661234E0,1.156929731E0,9.007781029E0
7.720198480E2,-2.616551638E0,1.503889084E0,9.393025398E0
7.725198480E2,-1.871187329E0,1.485344648E0,8.581858635E0
7.730198480E2,-1.975275040E0,1.383051515E0,1.018265629E1
7.735198480E2,-2.008774519E0,1.075573802E0,9.235098839E0
7.740198480E2,-2.178664923E0,1.261615753E0,8.584251404E0
7.745198480E2,-2.522035122E0,1.180259824E0,8.824729919E0
7.750198480E2,-2.657827854E0,1.725823283E0,9.639486313E0
7.755198480E2,-2.533401012E0,1.466202021E0,8.924032211E0
7.760198480E2,-2.030309916E0,1.496710539E0,1.017727280E1
7.765198480E2,-1.789831281E0,1.539781332E0,9.400801659E0
7.770198480E2,-2.461018085E0,1.534995675E0,9.595218658E0
7.775198480E2,-2.645265341E0,1.782054663E0,9.878767967E0
7.780198480E2,-1.969891191E0,2.154736757E0,8.685946465E0
7.785198480E2,-1.079761267E0,2.059023857E0,9.151947975E0
7.790198480E2,-1.383051515E0,1.798206210E0,9.134002686E0
7.795198480E2,-1.885544300E0,1.680957913E0,9.735796928E0
7.800198480E2,-1.786840320E0,1.639681697E0,8.467002869E0
7.805198480E2,-1.945963025E0,1.616351724E0,9.201599121E0
7.810198480E2,-1.962114573E0,2.206182480E0,1.023470020E1
7.815198480E2,-1.949552298E0,1.515853167E0,9.043673515E0
7.820198480E2,-2.197807550E0,1.786242127E0,1.018385315E1
7.825198480E2,-2.760120869E0,1.524826288E0,9.086145401E0
7.830198480E2,-2.986242771E0,1.896910191E0,9.196813583E0
7.835198480E2,-3.493520975E0,1.891526341E0,8.317451477E0
7.840198480E2,-4.157529354E0,1.761117458E0,8.494520187E0
7.845198480E2,-3.881158352E0,2.182254314E0,7.978867054E0
7.850198480E2,-3.869792461E0,1.850848317E0,8.395217896E0
7.855198480E2,-3.550948858E0,2.015953064E0,9.174081802E0
7.860198480E2,-3.270390272E0,1.838884234E0,8.801998138E0
7.865198480E2,-3.446861029E0,1.759921074E0,9.665208817E0
7.870198480E2,-3.855435371E0,1.753340840E0,8.859425545E0
7.875198480E2,-3.366103172E0,1.823330879E0,8.888139725E0
7.880198480E2,-2.930011272E0,2.080559254E0,9.686145782E0
7.885198480E2,-3.397808075E0,1.564906001E0,8.392227173E0
7.890198480E2,-3.387040377E0,1.621137381E0,8.400602341E0
7.895198480E2,-3.479164124E0,1.444068432E0,8.726025581E0
7.900198480E2,-3.594019651E0,1.729412556E0,1.033998489E1
7.905198480E2,-3.862015724E0,9.475577474E-1,9.763913155E0
7.910198480E2,-2.954537868E0,1.607976794E0,9.134600639E0
7.915198480E2,-2.683550596E0,1.998605132E0,9.558728218E0
7.920198480E2,-2.605185747E0,1.581057549E0,9.040083885E0
7.925198480E2,-2.791227579E0,1.422533035E0,9.272786140E0
7.930198480E2,-2.702693224E0,1.122832060E0,9.378668785E0
7.935198480E2,-1.574477315E0,1.623530149E0,9.236295700E0
7.940198480E2,-1.810768485E0,1.362114310E0,9.134600639E0
7.945198480E2,-2.267199516E0,1.110269666E0,9.818947792E0
7.950198480E2,-2.029113531E0,1.727617979E0,9.818947792E0
7.955198480E2,-2.236092806E0,1.247856975E0,8.773283958E0
7.960198480E2,-2.785245657E0,1.212562919E0,1.017248726E1
7.965198480E2,-1.981257200E0,1.283749342E0,9.128020287E0
7.970198480E2,-2.348555326E0,1.265205026E0,1.008933640E1
7.975198480E2,-2.445464849E0,1.272981644E0,9.204590797E0
7.980198480E2,-2.150549412E0,1.617548108E0,9.089735031E0
7.985198480E2,-2.644667149E0,9.457631707E-1,9.250652313E0
7.990198480E2,-1.852044702E0,1.448854089E0,9.700503349E0
7.995198480E2,-2.170888424E0,1.166501045E0,1.002233791E1
8.000198480E2,-1.735992789E0,1.371685624E0,8.944371223E0
8.005198480E2,-2.413161755E0,1.051645517E0,9.891928673E0
8.010198480E2,-1.913061738E0,1.372283816E0,9.086145401E0
8.015198480E2,-2.367099762E0,1.237687469E0,9.763913155E0
8.020198480E2,-1.955534339E0,1.253839016E0,8.687741280E0
8.025198480E2,-2.649452925E0,1.360917926E0,9.657432556E0
8.030198480E2,-2.198405743E0,1.089332461E0,9.687342644E0
8.035198480E2,-1.792822361E0,1.550549030E0,9.393025398E0
8.040198480E2,-2.946162939E0,1.051645517E0,9.434301376E0
8.045198480E2,-2.183450699E0,1.609173179E0,9.854840279E0
8.050198480E2,-2.665604353E0,7.238288522E-1,8.955737114E0
8.055198480E2,-2.247458696E0,1.497906923E0,1.076471043E1
8.060198480E2,-1.989632010E0,1.271187067E0,7.872386456E0
8.065198480E2,-2.432304144E0,1.302891970E0,1.001336479E1
8.070198480E2,-1.795813441E0,1.422533035E0,8.746963501E0
8.075198480E2,-2.975475073E0,9.774680734E-1,8.770293236E0
8.080198480E2,-2.265404940E0,1.333998680E0,9.991230965E0
8.085198480E2,-1.772483349E0,1.685743570E0,9.311071396E0
8.090198480E2,-2.348555326E0,1.405185103E0,8.087740898E0
8.095198480E2,-2.435893536E0,1.272981644E0,1.027478027E1
8.100198480E2,-1.389631748E0,1.846062660E0,8.706285477E0
8.105198480E2,-1.999203324E0,1.944168448E0,9.570094109E0
8.110198480E2,-2.778665304E0,1.290927768E0,9.002995491E0
8.115198480E2,-2.960519791E0,1.262213945E0,1.087478065E1
8.120198480E2,-1.606780410E0,2.066202402E0,8.878568649E0
8.125198480E2,-2.216950178E0,1.828116536E0,8.112865448E0
8.130198480E2,-3.224328518E0,1.293320656E0,9.817152977E0
8.135198480E2,-2.175673962E0,1.305284739E0,1.040578747E1
8.140198480E2,-1.529611826E0,2.153540373E0,8.974879265E0
8.145198480E2,-2.953939438E0,1.266401410E0,9.693922997E0
8.150198480E2,-1.633699656E0,2.080559254E0,9.881160736E0
8.155198480E2,-1.378265858E0,2.364108801E0,8.030312538E0
8.160198480E2,-2.416750908E0,1.453639746E0,9.696913719E0
8.165198480E2,-1.177268744E0,1.600200176E0,9.652647018E0
8.170198480E2,-1.569691658E0,1.785045743E0,1.005105114E1
8.175198480E2,-9.296116233E-1,1.433898926E0,8.965308189E0
8.180198480E2,-1.134197950E0,2.096112728E0,9.659226418E0
8.185198480E2,-1.272981644E0,1.386042476E0,9.567701340E0
8.190198480E2,-8.183453679E-1,1.966900229E0,9.620343208E0
8.195198480E2,-1.922034740E0,1.426122308E0,9.424730301E0
8.200198480E2,-1.022931695E0,1.419542074E0,9.433703423E0
8.205198480E2,-1.875972986E0,1.019342422E0,1.047398281E1
8.210198480E2,-1.125823021E0,1.091127157E0,9.323633194E0
8.215198480E2,-1.515254974E0,9.296116233E-1,9.325428009E0
8.220198480E2,-9.254241586E-1,1.024128079E0,9.548559189E0
8.225198480E2,-1.689332843E0,7.956135273E-1,9.544371605E0
8.230198480E2,-1.027119160E0,1.024128079E0,9.699306488E0
8.235198480E2,-1.460818172E0,8.871390224E-1,1.000977516E1
8.240198480E2,-1.638485312E0,8.338986635E-1,1.000199890E1
8.245198480E2,-1.249053478E0,1.001396298E0,9.257232666E0
8.250198480E2,-2.061416626E0,6.861419082E-1,1.030229759E1
8.255198480E2,-1.578066587E0,1.049252748E0,9.108877182E0
8.260198480E2,-1.908276081E0,1.102493048E0,9.429515839E0
8.265198480E2,-2.621337175E0,8.530412912E-1,9.754341125E0
8.270198480E2,-2.008774519E0,1.293918848E0,8.636295319E0
8.275198480E2,-2.088335991E0,1.003190875E0,9.699306488E0
8.280198480E2,-2.879163742E0,8.721838593E-1,9.550951958E0
8.285198480E2,-2.310270309E0,1.226321578E0,1.055234814E1
8.290198480E2,-1.927418590E0,1.390828133E0,8.298309326E0
8.295198480E2,-2.417947292E0,1.339980721E0,1.050927734E1
8.300198480E2,-2.501696110E0,1.470987678E0,9.464810371E0
8.305198480E2,-1.999203324E0,1.810768485E0,8.622536659E0
8.310198480E2,-2.137388945E0,1.553540111E0,9.305088997E0
8.315198480E2,-2.810968399E0,1.058824062E0,9.292527199E0
8.320198480E2,-1.777269006E0,1.875972986E0,9.523433685E0
8.325198480E2,-2.920439959E0,1.080359459E0,9.727422714E0
8.330198480E2,-1.877169371E0,1.777269006E0,7.569694519E0
8.335198480E2,-3.989433527E0,9.176474810E-1,9.989436150E0
8.340198480E2,-2.783450842E0,1.892124534E0,9.981659889E0
8.345198480E2,-3.935595036E0,1.339980721E0,9.217152596E0
8.350198480E2,-3.177668571E0,1.834098577E0,9.339784622E0
8.355198480E2,-3.662813187E0,1.138983607E0,9.195018768E0
8.360198480E2,-2.216950178E0,1.886740685E0,8.811569214E0
8.365198480E2,-2.123031855E0,1.448255897E0,1.049372387E1
8.370198480E2,-2.075773716E0,2.518445849E-1,8.381459236E0
8.375198480E2,-1.740778446E0,1.344766378E0,1.005105114E1
8.380198480E2,-1.724028707E0,5.647061467E-1,9.062815666E0
8.385198480E2,-1.905883193E0,1.178465128E0,1.049791145E1
8.390198480E2,-1.582253933E0,9.110672474E-1,1.025683403E1
8.395198480E2,-1.666600943E0,9.062815905E-1,9.309276581E0
8.400198480E2,-1.360917926E0,9.906286001E-1,9.317651749E0
8.405198480E2,-2.525624275E0,3.655036688E-1,9.834501266E0
8.410198480E2,-1.463211060E0,1.083350420E0,9.132207870E0
8.415198480E2,-2.359323025E0,3.074777126E-1,1.038604641E1
8.420198480E2,-2.258824587E0,1.030708313E0,9.177073479E0
8.425198480E2,-3.231507063E0,6.861419082E-1,9.257232666E0
8.430198480E2,-3.169891834E0,1.097109199E0,9.586843491E0
8.435198480E2,-3.381656647E0,1.009771109E0,9.263813019E0
8.440198480E2,-3.528217077E0,9.463613629E-1,9.284152031E0
8.445198480E2,-3.291327477E0,9.870393276E-1,9.094520569E0
8.450198480E2,-3.058027267E0,8.219345808E-1,9.101100922E0
8.455198480E2,-2.233700037E0,9.224331379E-1,9.805787086E0
8.460198480E2,-2.809173822E0,3.936193287E-1,9.448060036E0
8.465198480E2,-2.266601324E0,9.523434043E-1,1.015214825E1
8.470198480E2,-2.295315027E0,6.903293133E-1,9.108877182E0
8.475198480E2,-2.922832966E0,5.371887088E-1,9.728020668E0
8.480198480E2,-2.696112871E0,1.067198873E0,9.537791252E0
8.485198480E2,-2.327618122E0,8.536394835E-1,8.057829857E0
8.490198480E2,-3.013760090E0,7.208378315E-1,1.043928719E1
8.495198480E2,-2.286342144E0,9.409775138E-1,9.078369141E0
8.500198480E2,-2.463410854E0,1.008574724E0,8.625527382E0
8.505198480E2,-2.252842426E0,8.913264275E-1,8.671588898E0
8.510198480E2,-3.025724173E0,5.252245665E-1,1.023170948E1
8.515198480E2,-3.075973511E0,5.024927258E-1,9.803992271E0
8.520198480E2,-2.609373093E0,1.092323542E0,9.048459053E0
8.525198480E2,-2.087737799E0,1.000199914E0,8.338388443E0
8.530198480E2,-2.365305185E0,1.041476011E0,9.321240425E0
8.535198480E2,-2.481955290E0,8.554341197E-1,9.358927727E0
8.540198480E2,-3.415754318E0,3.696911037E-1,9.887143135E0
8.545198480E2,-2.489732027E0,8.051848412E-1,9.545567513E0
8.550198480E2,-2.482553482E0,1.170688510E0,9.442078590E0
8.555198480E2,-1.704886079E0,1.515254974E0,8.833105087E0
8.560198480E2,-1.567897081E0,1.690529227E0,8.810373306E0
8.565198480E2,-2.064407825E0,1.553540111E0,8.840283394E0
8.570198480E2,-2.863012314E0,6.921239495E-1,8.944371223E0
8.575198480E2,-3.348157167E0,5.473581553E-1,1.032622623E1
8.580198480E2,-3.075375319E0,5.090730190E-1,9.840482712E0
8.585198480E2,-3.257229805E0,7.094719410E-1,9.906285286E0
8.590198480E2,-2.306680918E0,1.410568953E0,9.329017639E0
8.595198480E2,-1.935195327E0,1.933400750E0,8.813364029E0
8.600198480E2,-2.492124796E0,1.342971683E0,8.227720261E0
8.605198480E2,-3.112463951E0,8.566305041E-1,8.586644173E0
8.610198480E2,-2.848655462E0,6.999006271E-1,9.288937569E0
8.615198480E2,-3.022733212E0,5.395814776E-1,9.568299294E0
8.620198480E2,-2.395813704E0,1.366899967E0,1.001815033E1
8.625198480E2,-1.737189293E0,1.508674622E0,8.981459618E0
8.630198480E2,-2.070987940E0,1.781456470E0,9.540781975E0
8.635198480E2,-2.252244234E0,1.210768223E0,8.149953842E0
8.640198480E2,-2.885744095E0,9.170492887E-1,8.950951576E0
8.645198480E2,-2.600399971E0,7.686942816E-1,8.626724243E0
8.650198480E2,-2.710469961E0,9.409775138E-1,1.029272652E1
8.655198480E2,-2.115255117E0,1.373480201E0,9.493523598E0
8.660198480E2,-2.755335331E0,1.530210137E0,1.066839981E1
8.665198480E2,-2.080559254E0,1.657627940E0,8.233104706E0
8.670198480E2,-2.557329178E0,1.408774376E0,8.811569214E0
8.675198480E2,-2.973082066E0,1.207777262E0,9.760921478E0
8.680198480E2,-2.720041037E0,1.446461320E0,1.003190899E1
8.685198480E2,-2.131406784E0,1.581057549E0,8.164310455E0
8.690198480E2,-2.592025042E0,1.466202021E0,9.442078590E0
8.695198480E2,-2.455035925E0,1.159920812E0,1.040399265E1
8.700198480E2,-2.336591244E0,1.323829174E0,9.290732384E0
8.705198480E2,-3.023331404E0,9.236295223E-1,9.866804123E0
8.710198480E2,-1.957328916E0,1.204187989E0,7.033702374E0
8.715198480E2,-2.395813704E0,6.747759581E-1,9.545567513E0
8.720198480E2,-2.572882652E0,1.314856052E0,8.321041107E0
8.725198480E2,-2.654238462E0,5.850451589E-1,1.017727280E1
8.730198480E2,-2.382055044E0,1.111466169E0,8.656036377E0
8.735198480E2,-3.078366280E0,5.665007830E-1,1.026401234E1
8.740198480E2,-2.062613010E0,1.221535921E0,9.119645119E0
8.745198480E2,-2.889333248E0,5.515456200E-1,9.046066284E0
8.750198480E2,-2.421536446E0,1.070788145E0,9.985847473E0
8.755198480E2,-2.791227579E0,8.805587292E-1,8.676374435E0
8.760198480E2,-3.002394199E0,4.031906128E-1,9.969695091E0
8.765198480E2,-1.923829436E0,1.475773335E0,9.539586067E0
8.770198480E2,-2.382055044E0,1.601396561E0,8.716454506E0
8.775198480E2,-2.852244616E0,1.188036442E0,9.785448074E0
8.780198480E2,-2.039881229E0,1.762313843E0,9.364311218E0
8.785198480E2,-2.886940479E0,1.204786181E0,9.512067795E0
8.790198480E2,-2.456830740E0,9.607182741E-1,8.872586250E0
8.795198480E2,-2.251047850E0,1.599601984E0,9.529416084E0
8.800198480E2,-2.764906645E0,8.518448472E-1,9.540781975E0
8.805198480E2,-2.143969059E0,1.573280931E0,9.714859962E0
8.810198480E2,-2.654238462E0,1.134197950E0,9.663414001E0
8.815198480E2,-1.777269006E0,1.788634896E0,9.202795982E0
8.820198480E2,-2.470589399E0,1.764706731E0,9.586843491E0
8.825198480E2,-2.191825628E0,1.540977836E0,9.388239861E0
8.830198480E2,-2.738585472E0,1.305284739E0,1.046740246E1
8.835198480E2,-2.456232548E0,1.024128079E0,9.094520569E0
8.840198480E2,-2.711666346E0,1.977667928E0,8.705088615E0
8.845198480E2,-3.654438496E0,1.785045743E0,1.065105152E1
8.850198480E2,-2.126022816E0,1.975275040E0,8.395217896E0
8.855198480E2,-3.013161898E0,2.027318954E0,1.028913784E1
8.860198480E2,-2.908475876E0,1.423131227E0,9.404989243E0
8.865198480E2,-3.174677372E0,1.289133191E0,8.114660263E0
8.870198480E2,-3.471387386E0,1.678565025E0,9.315856934E0
8.875198480E2,-3.207578659E0,1.174277663E0,8.950951576E0
8.880198480E2,-2.332403898E0,1.867598057E0,8.036892891E0
8.885198480E2,-2.464607239E0,1.124626637E0,7.077969551E0
8.890198480E2,-1.189831018E0,1.505683661E0,1.026341438E1
8.895198480E2,-8.452646136E-1,1.566700578E0,9.261420250E0
8.900198480E2,-1.929811478E0,1.614557028E0,7.229913712E0
8.905198480E2,-2.890529871E0,1.494915962E0,9.981659889E0
8.910198480E2,-2.657229662E0,1.140778184E0,9.772287369E0
8.915198480E2,-2.228316069E0,1.290927768E0,9.426525116E0
8.920198480E2,-1.743769526E0,1.741974831E0,9.589237213E0
8.925198480E2,-2.123031855E0,1.710269928E0,8.620143890E0
8.930198480E2,-1.154536963E0,1.442273855E0,9.491728783E0
8.935198480E2,-1.670190215E0,1.885544300E0,9.637093544E0
8.940198480E2,-1.711466432E0,1.011565804E0,8.638090134E0
8.945198480E2,-1.472782373E0,1.458425403E0,9.443274498E0
8.950198480E2,-1.546959877E0,1.164706469E0,9.589237213E0
8.955198480E2,-2.011765718E0,9.487541914E-1,1.005105114E1
8.960198480E2,-2.281556368E0,1.076770186E0,1.036690426E1
8.965198480E2,-2.501097918E0,4.821537733E-1,9.600004196E0
8.970198480E2,-2.048256159E0,1.475773335E0,9.901499748E0
8.975198480E2,-2.381456852E0,6.711867452E-1,9.183652878E0
8.980198480E2,-3.061616659E0,1.111466169E0,9.899705887E0
8.985198480E2,-3.710071564E0,1.051047325E0,1.081376362E1
8.990198480E2,-3.288934708E0,1.172483087E0,8.470592499E0
8.995198480E2,-2.807977438E0,1.533201098E0,8.826524734E0
9.000198480E2,-3.638885021E0,9.176474810E-1,7.925028801E0
9.005198480E2,-4.012165546E0,9.056833982E-1,9.161520004E0
9.010198480E2,-3.281157970E0,1.193420291E0,8.294719696E0
9.015198480E2,-3.279363394E0,1.020538807E0,9.416355133E0
9.020198480E2,-3.073580742E0,1.258624673E0,9.078369141E0
9.025198480E2,-3.055036306E0,1.125823021E0,9.429515839E0
9.030198480E2,-3.158525944E0,7.453642488E-1,8.786444664E0
9.035198480E2,-3.332603693E0,1.218544960E0,9.368498802E0
9.040198480E2,-2.477767944E0,1.286142230E0,9.569496155E0
9.045198480E2,-3.204587698E0,1.008574724E0,8.452646255E0
9.050198480E2,-3.083750248E0,7.130611539E-1,9.077172279E0
9.055198480E2,-3.436093330E0,4.384847581E-1,9.612566948E0
9.060198480E2,-2.745165825E0,9.583254457E-1,8.868997574E0
9.065198480E2,-2.876172781E0,8.327022791E-1,8.902496338E0
9.070198480E2,-2.495115757E0,1.051645517E0,9.851848602E0
9.075198480E2,-3.241078377E0,8.105686903E-1,8.602795601E0
9.080198480E2,-2.466402054E0,1.231705427E0,8.644669533E0
9.085198480E2,-2.825325251E0,1.044467092E0,9.546165466E0
9.090198480E2,-2.107478619E0,1.216750264E0,8.810373306E0
9.095198480E2,-2.643470764E0,8.356932998E-1,9.231510162E0
9.100198480E2,-2.604587555E0,1.280758262E0,1.026221848E1
9.105198480E2,-2.603390932E0,9.379864931E-1,8.688937187E0
9.110198480E2,-3.016751051E0,1.338784218E0,8.735597610E0
9.115198480E2,-2.951546669E0,1.137188911E0,9.909874916E0
9.120198480E2,-2.493321180E0,1.260419369E0,8.572885513E0
9.125198480E2,-2.981456995E0,1.196411371E0,9.319445610E0
9.130198480E2,-2.734398127E0,1.311266780E0,9.065208435E0
9.135198480E2,-2.319841623E0,1.188634634E0,8.060222626E0
9.140198480E2,-2.927020311E0,1.118046403E0,9.274580956E0
9.145198480E2,-3.316452265E0,8.506484628E-1,9.739984512E0
9.150198480E2,-2.935395241E0,8.961120844E-1,8.563314438E0
9.155198480E2,-2.215753794E0,1.228116274E0,9.041878700E0
9.160198480E2,-2.583052158E0,1.316052437E0,9.920642853E0
9.165198480E2,-3.017947674E0,1.034895778E0,9.820143700E0
9.170198480E2,-2.853441000E0,1.888535261E0,9.833304405E0
9.175198480E2,-2.020738840E0,1.563709617E0,8.378468513E0
9.180198480E2,-2.946761131E0,1.504487276E0,8.755936623E0
9.185198480E2,-3.413959742E0,1.055832982E0,1.014676476E1
9.190198480E2,-2.882154942E0,1.209571838E0,9.534799576E0
9.195198480E2,-2.343171597E0,1.724028707E0,8.405387878E0
9.200198480E2,-3.233899832E0,1.243071318E0,1.016291618E1
9.205198480E2,-2.438884497E0,1.480558991E0,9.789635658E0
9.210198480E2,-2.442473650E0,1.735394597E0,8.773283958E0
9.215198480E2,-3.524029493E0,9.487541914E-1,1.072104168E1
9.220198480E2,-2.647658348E0,1.261615753E0,8.534002304E0
9.225198480E2,-3.699303865E0,9.870393276E-1,1.021256733E1
9.230198480E2,-2.204387903E0,1.429711580E0,8.971888542E0
9.235198480E2,-3.601796389E0,5.886343718E-1,1.009472084E1
9.240198480E2,-2.839682341E0,1.062413216E0,9.841081619E0
9.245198480E2,-3.317648649E0,8.757730722E-1,8.981459618E0
9.250198480E2,-2.276770830E0,1.408774376E0,8.875576973E0
9.255198480E2,-3.064607620E0,8.404789567E-1,9.117850304E0
9.260198480E2,-2.462812662E0,1.494317770E0,8.907281876E0
9.265198480E2,-2.726023197E0,9.810572863E-1,8.729017258E0
9.270198480E2,-2.036890268E0,9.984052777E-1,8.451449394E0
9.275198480E2,-3.151945591E0,1.141974568E0,1.017248726E1
9.280198480E2,-2.807379246E0,8.153542876E-1,8.763712883E0
9.285198480E2,-3.492324591E0,8.027920127E-1,9.144171715E0
9.290198480E2,-2.175673962E0,1.262213945E0,8.521439552E0
9.295198480E2,-3.135794163E0,8.949156404E-1,9.041878700E0
9.300198480E2,-2.519043922E0,9.104689956E-1,9.705288887E0
9.305198480E2,-2.531606436E0,9.409775138E-1,8.725427628E0
9.310198480E2,-3.155534744E0,7.130611539E-1,9.485149384E0
9.315198480E2,-3.497110367E0,6.903293133E-1,9.912865639E0
9.320198480E2,-2.341377020E0,1.269990563E0,9.056235313E0
9.325198480E2,-2.508874655E0,8.919246197E-1,9.550353050E0
9.330198480E2,-2.956332445E0,7.962117195E-1,1.026999474E1
9.335198480E2,-2.758326292E0,9.158528447E-1,9.084351540E0
9.340198480E2,-2.143969059E0,1.298106313E0,9.084949493E0
9.345198480E2,-2.043470621E0,1.091127157E0,8.175078392E0
9.350198480E2,-2.845664263E0,1.180858016E0,1.010728264E1
9.355198480E2,-2.980260611E0,1.416550994E0,1.041715336E1
9.360198480E2,-2.657827854E0,1.386640668E0,1.014736271E1
9.365198480E2,-2.332403898E0,1.423131227E0,9.008378983E0
9.370198480E2,-1.783251047E0,1.732403636E0,9.336793900E0
9.375198480E2,-3.077169895E0,9.254241586E-1,9.947562218E0
9.380198480E2,-2.836691141E0,1.250249863E0,9.928419113E0
9.385198480E2,-1.812563181E0,1.677966833E0,8.882157326E0
9.390198480E2,-3.193820000E0,1.101894855E0,9.065806389E0
9.395198480E2,-2.721835852E0,1.457827210E0,1.020778179E1
9.400198480E2,-2.501097918E0,1.582852125E0,8.711071014E0
9.405198480E2,-3.504288673E0,8.679963946E-1,1.042014408E1
9.410198480E2,-2.109273195E0,1.686341763E0,8.498109818E0
9.415198480E2,-3.154936552E0,1.022931695E0,9.694520950E0
9.420198480E2,-2.188834429E0,1.947757602E0,9.027522087E0
9.425198480E2,-2.683550596E0,1.265205026E0,9.684351921E0
9.430198480E2,-1.956132531E0,1.630110383E0,9.534799576E0
9.435198480E2,-2.556730986E0,1.536192179E0,9.352945328E0
9.440198480E2,-2.344966173E0,1.396211982E0,9.141778946E0
9.445198480E2,-2.934797049E0,1.356132269E0,9.418149948E0
9.450198480E2,-3.349951744E0,1.056431174E0,9.052646637E0
9.455198480E2,-2.350948334E0,1.432104349E0,8.775676727E0
9.460198480E2,-2.951546669E0,1.277767301E0,8.866603851E0
9.465198480E2,-3.120240688E0,1.436890006E0,9.681360245E0
9.470198480E2,-2.167897224E0,9.583254457E-1,1.067797089E1
9.475198480E2,-1.673779488E0,1.794616938E0,9.249456406E0
9.480198480E2,-3.229114056E0,1.684547186E0,1.280758286E1
9.485198480E2,-2.499303341E0,1.970489502E0,8.738588333E0
9.490198480E2,-2.482553482E0,2.236092806E0,9.717850685E0
9.495198480E2,-2.059023857E0,1.825125456E0,1.004506969E1
9.500198480E2,-1.963310957E0,1.874178290E0,9.316454887E0
9.505198480E2,-1.879562140E0,2.252244234E0,9.448060036E0
9.510198480E2,-1.677966833E0,2.418545485E0,9.258428574E0
9.515198480E2,-2.970091105E0,1.788036704E0,7.569096088E0
9.520198480E2,-2.289333105E0,2.035693884E0,9.338588715E0
9.525198480E2,-2.437089920E0,2.336591244E0,8.937790871E0
9.530198480E2,-1.403988719E0,3.403790236E0,9.802796364E0
9.535198480E2,-2.683550596E0,1.767697692E0,1.026819992E1
9.540198480E2,-2.596810818E0,2.027917147E0,1.039741230E1
9.545198480E2,-1.926820397E0,2.869592667E0,1.024606609E1
9.550198480E2,-3.067598581E0,1.618744493E0,9.169296265E0
9.555198480E2,-1.965703845E0,2.556730986E0,8.330612183E0
9.560198480E2,-1.276570916E0,3.016152859E0,9.241081238E0
9.565198480E2,-1.009771109E0,2.391626120E0,9.961918831E0
9.570198480E2,-1.764108539E0,1.834696770E0,9.348159790E0
9.575198480E2,-2.469393015E0,1.724028707E0,9.201001167E0
9.580198480E2,-2.443670034E0,1.616351724E0,8.859425545E0
9.585198480E2,-3.049652576E0,1.271785259E0,1.012044334E1
9.590198480E2,-2.729612350E0,1.283749342E0,9.265008926E0
9.595198480E2,-3.080759048E0,1.533201098E0,8.741579056E0
9.600198480E2,-3.460021496E0,1.192822099E0,9.469595909E0
9.605198480E2,-2.977867842E0,1.223330617E0,8.696713448E0
9.610198480E2,-2.954537868E0,9.732806087E-1,8.598608017E0
9.615198480E2,-2.629113913E0,1.871187329E0,1.018086243E1
9.620198480E2,-2.043470621E0,2.060818434E0,9.132207870E0
9.625198480E2,-1.582852125E0,2.009970903E0,8.968298912E0
9.630198480E2,-2.541177750E0,1.578066587E0,9.912865639E0
9.635198480E2,-2.081755638E0,3.008974552E0,9.164510727E0
9.640198480E2,-2.415554523E0,2.520838737E0,9.824930191E0
9.645198480E2,-1.828116536E0,2.816950560E0,9.376275063E0
9.650198480E2,-2.268395901E0,2.539981127E0,8.933005333E0
9.655198480E2,-2.395813704E0,2.172683001E0,9.600004196E0
9.660198480E2,-2.370090723E0,1.871187329E0,9.209376335E0
9.665198480E2,-2.444268227E0,1.714457393E0,9.418149948E0
9.670198480E2,-2.327019930E0,2.056032896E0,9.451649666E0
9.675198480E2,-2.389831543E0,2.118844509E0,9.352347374E0
9.680198480E2,-2.164906263E0,1.609771490E0,8.504091263E0
9.685198480E2,-2.310270309E0,1.073180914E0,9.294919968E0
9.690198480E2,-2.519043922E0,6.233302951E-1,9.233304024E0
9.695198480E2,-2.494517565E0,7.022934556E-1,9.607781410E0
9.700198480E2,-2.520240545E0,6.861419082E-1,9.366703987E0
9.705198480E2,-2.416750908E0,7.453642488E-1,9.373284340E0
9.710198480E2,-2.420340061E0,7.609176040E-1,9.352945328E0
9.715198480E2,-2.401197433E0,7.453642488E-1,9.440881729E0
9.720198480E2,-2.525624275E0,7.022934556E-1,9.402596474E0
9.725198480E2,-2.402393818E0,7.190431952E-1,9.445069313E0
9.730198480E2,-2.529811859E0,6.472585201E-1,9.399007797E0
9.735198480E2,-2.526820660E0,6.765705943E-1,9.379864693E0
9.740198480E2,-2.444268227E0,5.724828243E-1,9.384650230E0
9.745198480E2,-2.405385017E0,5.970092416E-1,9.400203705E0
9.750198480E2,-2.429313183E0,6.568298340E-1,9.373882294E0
9.755198480E2,-2.516052961E0,6.999006271E-1,9.416355133E0
9.760198480E2,-2.498106956E0,6.903293133E-1,9.344570160E0
9.765198480E2,-2.423331022E0,6.729813814E-1,9.438488960E0
9.770198480E2,-2.428116798E0,7.369893789E-1,9.322437286E0
9.775198480E2,-2.335394859E0,7.878368497E-1,9.343374252E0
9.780198480E2,-2.397608280E0,6.891329288E-1,9.326025963E0
9.785198480E2,-2.493321180E0,7.022934556E-1,9.393025398E0
9.790198480E2,-2.416750908E0,7.016952634E-1,9.357132912E0
9.795198480E2,-2.434098721E0,6.987041831E-1,9.472586632E0
9.800198480E2,-2.502892494E0,6.640082598E-1,9.336793900E0
9.805198480E2,-2.563909531E0,6.257231236E-1,9.448060036E0
9.810198480E2,-2.498106956E0,6.664010882E-1,9.301499367E0
9.815198480E2,-2.493321180E0,7.016952634E-1,9.368498802E0
9.820198480E2,-2.597409010E0,6.281159520E-1,9.416355133E0
9.825198480E2,-2.495115757E0,6.317051649E-1,9.431310654E0
9.830198480E2,-2.414956331E0,6.699903607E-1,9.464211464E0
9.835198480E2,-2.438884497E0,6.334998012E-1,9.445667267E0
9.840198480E2,-2.287538528E0,7.668996453E-1,9.408578873E0
9.845198480E2,-2.510669231E0,6.831508875E-1,9.363713264E0
9.850198480E2,-2.351546526E0,7.591229677E-1,9.362516403E0
9.855198480E2,-2.461616278E0,5.772684813E-1,9.443872452E0
9.860198480E2,-2.499303341E0,1.184447184E-1,9.516854286E0
9.865198480E2,-2.367697954E0,2.662015259E-1,9.466006279E0
9.870198480E2,-2.445464849E0,2.691925466E-1,9.547362328E0
9.875198480E2,-2.418545485E0,2.979064286E-1,9.464211464E0
9.880198480E2,-2.475374937E0,4.085744619E-1,9.588638306E0
9.885198480E2,-2.322832584E0,5.665007830E-1,9.256634712E0
9.890198480E2,-2.344966173E0,2.775674164E-1,9.395418167E0
9.895198480E2,-2.349751949E0,4.133601189E-1,9.428917885E0
9.900198480E2,-2.294118643E0,-9.571290761E-2,9.385847092E0
9.905198480E2,-2.617748022E0,-1.734796464E-1,9.499505997E0
9.910198480E2,-2.491526604E0,-5.084748194E-2,9.445667267E0
9.915198480E2,-2.234896421E0,-9.272187948E-2,9.426525116E0
9.920198480E2,-2.609373093E0,-5.012963414E-1,9.488738060E0
9.925198480E2,-2.618944407E0,-5.012963414E-1,9.640084267E0
9.930198480E2,-2.705684185E0,-6.305087805E-1,9.820143700E0
9.935198480E2,-3.145963669E0,-9.744769931E-1,9.810572624E0
9.940198480E2,-2.819941521E0,-1.299900889E0,1.048415279E1
9.945198480E2,-2.762513638E0,3.409772217E-1,9.495916367E0
9.950198480E2,-2.273181438E0,6.041877344E-2,9.535996437E0
9.955198480E2,-2.748156786E0,-5.090730190E-1,1.002592659E1
9.960198480E2,-2.767897606E0,-5.054838061E-1,9.129216194E0
9.965198480E2,-2.402393818E0,-6.556333899E-1,9.786644936E0
9.970198480E2,-1.429113269E0,6.203392744E-1,8.840283394E0
9.975198480E2,-1.885544300E0,6.819544733E-2,9.850652695E0
9.980198480E2,-9.511470199E-1,2.572284266E-2,1.033101177E1
9.985198480E2,-1.920240164E0,-9.930214286E-2,9.901499748E0
9.990198480E2,-2.049452543E0,-3.230310604E-2,9.166305542E0
9.995198480E2,-2.531606436E0,2.333002090E-1,9.443872452E0
1.000019848E3,-1.936391711E0,-5.623133108E-2,8.712865829E0
1.000519848E3,-2.011765718E0,3.780659735E-1,9.142376900E0
1.001019848E3,-2.921038151E0,1.435693540E-2,1.017248726E1
1.001519848E3,-2.609971285E0,-2.572284341E-1,9.751948357E0
1.002019848E3,-2.258824587E0,9.272187948E-2,9.254241943E0
1.002519848E3,-2.029113531E0,4.468596280E-1,9.638289452E0
1.003019848E3,-3.017947674E0,1.722832322E-1,8.982656479E0
1.003519848E3,-2.802593470E0,4.115654826E-1,9.044869423E0
1.004019848E3,-2.334198475E0,3.122633696E-1,8.776873589E0
1.004519848E3,-1.799402595E0,6.364908218E-1,9.373284340E0
1.005019848E3,-1.989033818E0,5.862415582E-2,1.060379314E1
1.005519848E3,-1.701895118E0,2.697907388E-1,1.024008465E1
1.006019848E3,-2.893520832E0,-5.467599630E-1,9.604789734E0
1.006519848E3,-9.906286001E-1,7.160521746E-1,6.899703979E0
1.007019848E3,-2.710469961E0,-7.477570772E-1,1.143290615E1
1.007519848E3,-2.244467735E0,3.840480447E-1,8.193024635E0
1.008019848E3,-7.639086246E-1,8.997012973E-1,1.069950676E1
1.008519848E3,-2.464607239E0,-3.888336718E-1,8.604590416E0
1.009019848E3,-1.775474429E0,-1.184447184E-1,1.054935646E1
1.009519848E3,-8.979067206E-1,6.855437160E-1,1.024726295E1
1.010019848E3,-2.482553482E0,-6.520441771E-1,8.660821915E0
1.010519848E3,-1.585245013E0,9.870393574E-2,1.185703468E1
1.011019848E3,-1.314856052E0,9.810572863E-1,8.430512428E0
1.011519848E3,-2.563311338E0,-1.579262912E-1,8.230113029E0
1.012019848E3,-3.383451223E0,-1.365703583E0,9.936794281E0
1.012519848E3,-1.302891970E0,-1.663011760E-1,1.061635590E1
1.013019848E3,-7.944171429E-1,9.523434043E-1,8.246863365E0
1.013519848E3,-1.552343726E0,9.158528447E-1,9.493523598E0
1.014019848E3,-1.558325768E0,4.755735099E-1,8.357531548E0
1.014519848E3,-1.898704767E0,6.699903607E-1,8.861220360E0
1.015019848E3,-2.020738840E0,-1.663011760E-1,8.498109818E0
1.015519848E3,-2.070987940E0,1.375873089E-1,9.625128746E0
1.016019848E3,-2.111665964E0,-8.315058798E-2,9.161520004E0
1.016519848E3,-1.866401672E0,2.967100143E-1,9.309874535E0
1.017019848E3,-2.047059774E0,-7.543373108E-1,7.808976650E0
1.017519848E3,-1.782054663E0,5.276173949E-1,9.206384659E0
1.018019848E3,-1.534995675E0,-1.166501045E-1,9.182456970E0
1.018519848E3,-1.271187067E0,1.027717352E0,9.469595909E0
1.019019848E3,-1.507478237E0,9.894321561E-1,9.077172279E0
1.019519848E3,-2.238485575E0,7.160521746E-1,9.463015556E0
1.020019848E3,-2.700898647E0,4.486542568E-2,9.548559189E0
1.020519848E3,-2.466402054E0,9.511470199E-1,1.022512913E1
1.021019848E3,-3.951148272E0,-3.361915946E-1,9.853643417E0
1.021519848E3,-2.691327333E0,4.307080805E-1,9.710074425E0
1.022019848E3,-3.214757204E0,7.770691514E-1,9.537791252E0
1.022519848E3,-2.494517565E0,1.591825247E0,7.473383427E0
1.023019848E3,-2.743371248E0,1.447657645E-1,9.821938515E0
1.023519848E3,-2.026122570E0,1.070788145E0,1.054098225E1
1.024019848E3,-2.767299414E0,5.898307562E-1,1.072163963E1
1.024519848E3,-2.982653379E0,4.462614357E-1,9.174081802E0
1.025019848E3,-1.934597135E0,1.257428288E0,9.780064583E0
1.025519848E3,-2.537588358E0,7.962117195E-1,9.404989243E0
1.026019848E3,-2.178664923E0,1.384247899E0,1.023649502E1
1.026519848E3,-2.596810818E0,1.188036442E0,9.121439934E0
1.027019848E3,-1.781456470E0,1.548754454E0,9.627521515E0
1.027519848E3,-2.710469961E0,9.302098155E-1,1.046919727E1
1.028019848E3,-2.212164640E0,1.486541033E0,9.462417603E0
1.028519848E3,-2.293520451E0,1.344766378E0,9.824930191E0
1.029019848E3,-2.222334146E0,1.599601984E0,9.747162819E0
1.029519848E3,-1.878963947E0,1.560120344E0,9.488140106E0
1.030019848E3,-2.769692183E0,1.155135155E0,9.471988678E0
1.030519848E3,-2.702693224E0,1.123430252E0,9.527023315E0
1.031019848E3,-2.513660192E0,7.932206988E-1,9.412167549E0
1.031519848E3,-1.872981906E0,2.061416626E0,8.572287560E0
1.032019848E3,-2.329412937E0,1.962114573E0,9.081359863E0
1.032519848E3,-2.016551256E0,1.753340840E0,8.282755852E0
1.033019848E3,-3.556930780E0,5.138586760E-1,9.014361382E0
1.033519848E3,-2.887538671E0,1.164706469E0,1.014676476E1
1.034019848E3,-2.030309916E0,1.165902853E0,8.685946465E0
1.034519848E3,-2.193620205E0,5.581258535E-1,9.357730865E0
1.035019848E3,-3.200400352E0,6.664010882E-1,9.439086914E0
1.035519848E3,-2.086541414E0,1.573280931E0,9.512666702E0
1.036019848E3,-2.756531715E0,1.392622828E0,8.971888542E0
1.036519848E3,-3.006581545E0,1.073180914E0,9.090931892E0
1.037019848E3,-3.026322365E0,1.272981644E0,9.378069878E0
1.037519848E3,-3.830310822E0,1.030708313E0,8.815158844E0
1.038019848E3,-4.466801643E0,1.067198873E0,8.394021988E0
1.038519848E3,-4.675575256E0,8.679963946E-1,9.153742790E0
1.039019848E3,-4.959722996E0,8.967102766E-1,8.548358917E0
1.039519848E3,-4.633700848E0,9.475577474E-1,8.806783676E0
1.040019848E3,-5.020142078E0,1.037288666E0,8.886942863E0
1.040519848E3,-4.862215519E0,1.394417405E0,8.934800148E0
1.041019848E3,-4.940580368E0,7.716853023E-1,8.615956306E0
1.041519848E3,-4.645066738E0,8.117650747E-1,9.922437668E0
1.042019848E3,-4.774279594E0,7.722834945E-1,8.702097893E0
1.042519848E3,-4.935794830E0,4.977070987E-1,8.207381248E0
