"Time (s)","Gyroscope x (rad/s)","Gyroscope y (rad/s)","Gyroscope z (rad/s)"
2.836202120E-1,-1.146898642E-1,9.880737960E-2,9.162971750E-3
7.877229200E-1,-1.119409725E-1,1.608101577E-1,1.572976820E-2
1.291826931E0,-2.017380893E-1,-1.134681329E-1,2.382372692E-2
1.795932400E0,6.264418364E-1,2.183841541E-2,5.192350596E-2
2.300039118E0,-2.970330119E-1,-4.413498193E-2,4.306596518E-2
2.804146879E0,-2.249509543E-1,5.436696485E-2,3.207040019E-3
3.308255212E0,-4.276053607E-2,-3.145953640E-2,8.002328873E-2
3.812363806E0,-5.955931731E-3,2.779434808E-2,7.864884287E-2
4.316472504E0,-4.199695215E-2,6.475166976E-2,1.032361463E-1
4.820581202E0,-5.421425030E-2,1.055268943E-1,1.508836001E-1
5.324690056E0,-4.581485875E-3,1.398880333E-1,1.266017258E-1
5.828798962E0,-1.847865991E-2,1.175914705E-1,1.884517819E-1
6.332907764E0,-3.970621154E-2,1.200349256E-1,2.168570012E-1
6.837016150E0,-6.261363626E-2,1.464548260E-1,2.044869810E-1
7.341124118E0,-1.527161989E-2,1.284343153E-1,1.879936308E-1
7.845231566E0,-2.214384824E-2,5.940660089E-2,1.556178033E-1
8.349338389E0,-3.390299529E-2,5.100720748E-2,9.987638891E-2
8.853444743E0,-3.512472659E-2,6.582067907E-2,6.017018110E-2
9.357550629E0,4.734201822E-3,5.971203372E-2,4.550942779E-2
9.861655889E0,-5.345067009E-3,1.511890348E-2,1.695149764E-2
1.036576084E1,6.261364091E-3,-2.458730713E-2,7.635809598E-4
1.086986547E1,-1.206457894E-2,3.665188793E-3,-1.435532235E-2
1.137396980E1,2.122755162E-2,2.336557768E-2,-2.306014486E-2
1.187807355E1,1.374445739E-3,-8.093958721E-3,1.634063199E-2
1.238217667E1,-1.802051067E-2,-1.466075517E-2,-1.298087649E-2
1.288627901E1,2.962694131E-2,-8.857538924E-3,1.786779426E-2
1.339038068E1,-1.649334840E-2,1.847865991E-2,-1.634063199E-2
1.389448172E1,3.375028074E-2,-1.038470119E-2,-6.108647794E-4
1.439858230E1,-2.993237413E-2,-5.039634649E-3,-2.672533318E-2
1.490268282E1,9.621120058E-3,-3.298669681E-2,3.100138716E-2
1.540678344E1,-2.046396956E-2,1.160643063E-2,1.313359290E-2
1.591088417E1,2.290742937E-3,-1.007926930E-2,1.572976820E-2
1.641498495E1,1.374445739E-3,1.863137633E-2,-1.069013402E-2
1.691908563E1,1.527161949E-4,7.177661173E-3,-2.122755162E-2
1.742318625E1,-3.817904973E-3,-7.635809598E-4,-5.497782957E-3
1.792728662E1,1.847865991E-2,-1.435532235E-2,2.596175298E-3
1.843138678E1,-6.108647794E-4,2.886336111E-2,-2.168569900E-2
1.893548667E1,8.093958721E-3,-2.580903657E-2,2.382372692E-2
1.943958620E1,-5.497782957E-3,-2.474002354E-2,3.054323839E-3
1.994368537E1,3.665188793E-3,1.237001177E-2,4.581485991E-4
2.044778422E1,6.872228812E-3,3.817904973E-3,2.519817278E-2
2.095188282E1,-1.069013379E-3,-6.261364091E-3,9.621120058E-3
2.145598110E1,-1.343902480E-2,8.857538924E-3,-1.237001177E-2
2.196007922E1,4.886918236E-3,4.886918236E-3,6.108647794E-4
2.246417719E1,-1.343902480E-2,-1.832594350E-2,1.084284950E-2
2.296827506E1,7.483093534E-3,1.084284950E-2,6.566796452E-3
2.347237287E1,7.635809598E-4,-4.428769462E-3,1.267544460E-2
2.397647052E1,-1.114828233E-2,-1.389717404E-2,2.290742937E-3
2.448056813E1,-3.665188793E-3,4.581485991E-4,-1.053741761E-2
2.498466558E1,3.054323839E-3,7.635809598E-4,7.483093534E-3
2.548876292E1,1.069013379E-3,-4.123337101E-3,5.650499370E-3
2.599286011E1,4.734201822E-3,3.970621154E-3,0.000000000E0
2.649695719E1,-6.963858753E-2,3.573558852E-2,-8.323032409E-2
2.700105396E1,-5.039634649E-3,-9.010255337E-3,-1.069013402E-2
2.750515047E1,2.550360374E-2,1.985310577E-3,2.397644334E-2
2.800924662E1,5.406153202E-2,4.886918142E-2,9.010255337E-3
2.851334245E1,-2.351829410E-2,-1.470656991E-1,-6.566796452E-3
2.901743787E1,-9.010255337E-3,3.863719851E-2,-1.099556591E-2
2.952153287E1,2.443459118E-3,1.725693047E-2,7.941242307E-3
3.002562771E1,-8.093958721E-3,1.007926930E-2,-2.443459118E-3
3.052972209E1,1.069013379E-3,-1.527161920E-3,5.345067009E-3
3.103381610E1,-4.276053514E-3,1.023198478E-2,-6.108647794E-4
3.153790974E1,2.290742937E-3,4.886918236E-3,6.108647794E-4
3.204200308E1,-2.092211880E-2,-1.298087649E-2,-2.748891478E-3
3.254609610E1,-3.054323839E-3,3.054323897E-4,5.345067009E-3
3.305018870E1,7.635809947E-3,1.450803876E-2,3.207040019E-3
3.355428099E1,-1.374445739E-3,8.246674202E-3,-1.527161949E-4
3.405837308E1,-1.038470119E-2,2.748891478E-3,-6.719512399E-3
3.456246490E1,-3.512472380E-3,-3.054323897E-4,-6.719512399E-3
3.506655651E1,3.054323979E-2,-6.566796452E-3,2.138026757E-3
3.557064782E1,-1.786779426E-2,1.771507785E-2,3.207040019E-3
3.607473901E1,-1.527161920E-3,2.901607659E-3,1.374445739E-3
3.657883032E1,-3.665188793E-3,6.414080039E-3,-1.221729559E-3
3.708292183E1,-1.160643063E-2,-3.359756200E-3,-8.857538924E-3
3.758701386E1,5.345067009E-3,1.832594397E-3,5.650499370E-3
3.809110683E1,3.512472380E-3,8.246674202E-3,7.788525894E-3
3.859520089E1,-7.635809598E-4,3.665188793E-3,1.527161920E-3
3.909929604E1,-4.581485991E-4,3.817904973E-3,-1.527161920E-3
3.960339240E1,-5.192350596E-3,-6.108647794E-4,-5.345067009E-3
4.010748969E1,-3.359756200E-3,-7.941242307E-3,0.000000000E0
4.061158776E1,8.246674202E-3,9.315688163E-3,3.817904973E-3
4.111568646E1,3.207040019E-3,-1.374445739E-3,3.970621154E-3
4.161978579E1,-2.290742937E-3,-3.054323897E-4,1.069013379E-3
4.212388553E1,-3.665188793E-3,-5.345067009E-3,1.679878100E-3
4.262798537E1,6.108647794E-4,5.345067009E-3,-4.276053514E-3
4.313208526E1,3.054323897E-4,7.330377586E-3,-4.123337101E-3
4.363618516E1,2.809977904E-2,1.084284950E-2,-3.054323897E-4
4.414028495E1,9.193515033E-2,1.542433538E-2,3.955349326E-2
4.464438454E1,-8.567378670E-2,-2.290742844E-2,2.321286127E-2
4.514848391E1,8.857538924E-3,-7.330377586E-3,2.489273995E-2
4.565258303E1,2.809978127E-1,1.756236330E-2,4.031707719E-2
4.615668193E1,-3.029889166E-1,-1.237001196E-1,1.450803876E-2
4.666078052E1,-1.766926348E-1,-3.405570984E-2,1.206457894E-2
4.716487881E1,-9.407317638E-2,-4.108065739E-2,-1.313359290E-2
4.766897672E1,1.660024971E-1,1.157588735E-1,-1.117882580E-1
4.817307438E1,-9.590577334E-2,-6.246092543E-2,-2.229656465E-2
4.867717162E1,-4.001164436E-2,1.435532235E-2,1.038470119E-2
4.918126865E1,-1.679878123E-2,9.162971750E-3,-1.221729559E-3
4.968536602E1,-3.695731983E-2,3.817904973E-3,-1.191186346E-2
5.018946258E1,-1.023198478E-2,9.468403645E-3,1.038470119E-2
5.069355889E1,-1.466075517E-2,1.130099874E-2,1.588248461E-2
5.119765503E1,-1.130099874E-2,1.970038936E-2,1.863137633E-2
5.170175102E1,-1.374445762E-2,8.246674202E-3,2.046396956E-2
5.220584701E1,-8.857538924E-3,3.756818548E-2,1.710421406E-2
5.270994284E1,-1.023198478E-2,1.771507785E-2,-3.054323897E-4
5.321403873E1,-1.023198478E-2,-7.177661173E-3,-4.276053514E-3
5.371813456E1,-4.444041103E-2,-8.032871783E-2,1.227838174E-1
5.422223040E1,-1.710421406E-2,3.191768378E-2,3.970621154E-2
5.472632608E1,8.399390616E-3,6.108647678E-3,-8.277218044E-2
5.523042160E1,6.872228812E-3,-1.175914705E-2,7.177661173E-3
5.573451696E1,3.970621154E-3,3.512472380E-3,1.038470119E-2
5.623861217E1,-1.069013379E-3,-2.107483521E-2,-5.039634649E-3
5.674270774E1,3.497200832E-2,-1.603520103E-2,-9.468403645E-3
5.724680384E1,-1.267544460E-2,-1.069013379E-3,-2.031125315E-2
5.775090009E1,8.246674202E-3,-2.458730713E-2,3.329212964E-2
5.825499634E1,4.276053514E-3,-7.024944760E-3,-3.054323839E-3
5.875909233E1,8.704823442E-3,9.315688163E-3,-4.428769462E-3
5.926318811E1,-6.108647794E-4,-2.748891525E-2,1.954767294E-2
5.976728358E1,-6.719512399E-3,3.039052337E-2,-9.162971983E-4
6.027137894E1,-1.985310577E-3,2.474002354E-2,1.206457894E-2
6.077547425E1,-1.007926930E-2,4.123337101E-3,1.374445762E-2
6.127956936E1,-8.093958721E-3,-1.985310577E-3,1.420260593E-2
6.178366441E1,-2.183841541E-2,1.634063199E-2,-1.420260593E-2
6.228775930E1,-1.802051067E-2,3.054323839E-3,3.817904973E-3
6.279185425E1,-1.420260593E-2,-5.192350596E-3,3.115410358E-2
6.329594920E1,-8.093958721E-3,2.076940238E-2,5.009091273E-2
6.380004415E1,-9.162971750E-3,2.183841541E-2,1.047633067E-1
6.430413915E1,-2.092211880E-2,1.420260593E-2,1.377500147E-1
6.480823415E1,-2.183841541E-2,5.375609919E-2,1.560759544E-1
6.531232904E1,-1.740964688E-2,4.734202102E-2,2.014326602E-1
6.581642378E1,-1.832594350E-2,5.528326333E-2,2.350302190E-1
6.632051831E1,-2.764163166E-2,5.803215504E-2,2.747364342E-1
6.682461274E1,-8.246674202E-3,4.932733253E-2,3.145953715E-1
6.732870712E1,-4.214967042E-2,4.734202102E-2,2.997818887E-1
6.783280134E1,-3.649916872E-2,8.826996386E-2,2.625191510E-1
6.833689534E1,-1.496618707E-2,6.688969582E-2,2.562577724E-1
6.884098910E1,-5.497782957E-3,6.200277433E-2,2.197586000E-1
6.934508264E1,-2.825249545E-2,7.177661359E-2,1.420260668E-1
6.984917597E1,2.687804960E-2,4.199695215E-2,9.880737960E-2
7.035326915E1,7.635809598E-4,1.450803876E-2,9.468403645E-3
7.085736222E1,1.114828233E-2,-1.649334840E-2,-4.123337194E-2
7.136145508E1,1.267544460E-2,-2.535088919E-2,-1.001818255E-1
7.186554795E1,2.535088919E-2,-1.954767294E-2,-1.085812151E-1
7.236964066E1,3.711003438E-2,-1.328630932E-2,-1.554650813E-1
7.287373326E1,3.863719851E-2,-3.527744114E-2,-2.095266134E-1
7.337782581E1,4.780016840E-2,-7.635809481E-2,-2.472475171E-1
7.388191831E1,3.405570984E-2,-7.040216774E-2,-2.988655865E-1
7.438601066E1,3.833176568E-2,-9.575305134E-2,-2.813032269E-1
7.489010305E1,6.383536756E-2,-7.925970852E-2,-3.133736253E-1
7.539419566E1,2.977965772E-2,-8.826996386E-2,-2.993237376E-1
7.589828842E1,4.352411628E-2,-5.009091273E-2,-2.843575478E-1
7.640238113E1,5.849030241E-2,-5.115992576E-2,-2.273944169E-1
7.690647389E1,2.290742937E-3,-7.162389904E-2,-1.996000707E-1
7.741056665E1,-1.130099874E-2,-3.741546720E-2,-1.087339297E-1
7.791465951E1,-2.519817278E-2,1.069013379E-3,-7.757982612E-2
7.841875238E1,3.512472659E-2,-4.214967042E-2,-2.015853859E-2
7.892284519E1,-2.382372692E-2,-1.527161920E-3,-5.039634649E-3
7.942693795E1,-1.221729559E-3,-5.192350596E-3,-6.719512399E-3
7.993103071E1,-1.130099874E-2,-1.908952370E-2,-1.527161949E-4
8.043512342E1,-9.621120058E-3,-9.162971750E-3,2.443459118E-3
8.093921613E1,4.734201822E-3,1.282816008E-2,1.130099874E-2
8.144330889E1,-9.926552884E-3,-5.955931731E-3,2.535088919E-2
8.194740170E1,1.007926930E-2,1.252272818E-2,4.886918236E-3
8.245149446E1,7.330377586E-3,-2.092211880E-2,2.122755162E-2
8.295558722E1,-3.252854943E-2,-1.588248461E-2,2.290742937E-3
8.345967983E1,1.527161989E-2,1.527161920E-3,1.847865991E-2
8.396377243E1,9.621120058E-3,1.710421406E-2,-3.817904973E-3
8.446786488E1,1.237001177E-2,3.512472380E-3,1.985310577E-3
8.497195727E1,-7.483093534E-3,-3.665188793E-3,1.527161920E-3
8.547604967E1,-1.435532235E-2,-1.175914705E-2,-6.414080039E-3
8.598014196E1,4.123337101E-3,1.404988952E-2,4.428769462E-3
8.648423415E1,1.145371422E-2,-4.886918236E-3,1.542433538E-2
8.698832618E1,-5.803215317E-3,-1.496618707E-2,1.527161989E-2
8.749241811E1,-1.221729536E-2,9.010255337E-3,-1.130099874E-2
8.799650993E1,4.734201822E-3,2.748891478E-3,9.621120058E-3
8.850060165E1,-9.468403645E-3,-1.527161949E-4,-8.552107029E-3
8.900469321E1,-8.399390616E-3,-5.955931731E-3,1.511890348E-2
8.950878467E1,4.734201822E-3,7.024944760E-3,1.618791744E-2
9.001287597E1,-1.527161920E-3,-1.817322709E-2,-7.635809598E-4
9.051696706E1,-4.428769462E-3,-1.985310577E-3,-1.527161949E-4
9.102105816E1,-1.359174121E-2,-5.039634649E-3,-5.345067009E-3
9.152514941E1,-1.863137633E-2,2.107483521E-2,-1.725693047E-2
9.202924081E1,-3.970621154E-3,1.374445739E-3,-2.138026757E-3
9.253333227E1,6.261364091E-3,0.000000000E0,1.420260593E-2
9.303742384E1,3.665188793E-3,-3.817904973E-3,5.192350596E-3
9.354151540E1,-5.955931731E-3,-1.267544460E-2,1.527161949E-4
9.404560706E1,-1.679878123E-2,-1.527161949E-4,-2.229656465E-2
9.454969868E1,-9.468403645E-3,2.260199748E-2,-4.917461425E-2
9.505379024E1,2.031125315E-2,3.665188793E-3,2.244928107E-2
9.555788170E1,-3.817904973E-3,-2.443459118E-3,1.679878100E-3
9.606197316E1,-1.221729559E-3,-2.443459118E-3,2.443459118E-3
9.656606451E1,-1.069013402E-2,1.114828233E-2,-7.177661173E-3
9.707015587E1,-3.817904973E-3,3.817904973E-3,-7.788525894E-3
9.757424712E1,3.054323897E-4,-8.552107029E-3,6.414080039E-3
9.807833821E1,1.679878100E-3,4.428769462E-3,1.221729559E-3
9.858242920E1,1.374445739E-3,1.069013379E-3,1.527161920E-3
9.908652003E1,-4.581485991E-4,-1.069013379E-3,6.108647794E-4
9.959061087E1,-9.010255337E-3,3.054323839E-3,-6.719512399E-3
1.000947016E2,-1.527161920E-3,-1.527161920E-3,-1.374445739E-3
1.005987923E2,3.665188793E-3,3.054323897E-4,6.108647678E-3
1.011028828E2,-1.069013379E-3,3.054323839E-3,1.679878100E-3
1.016069733E2,-8.246674202E-3,1.084284950E-2,1.527161920E-3
1.021110636E2,-8.246674202E-3,-1.679878100E-3,-7.024944760E-3
1.026151537E2,-3.665188793E-3,2.901607659E-3,-2.443459118E-3
1.031192438E2,-3.054323897E-4,7.941242307E-3,5.345067009E-3
1.036233338E2,-2.901607659E-3,5.803215317E-3,1.221729559E-3
1.041274237E2,-4.734201822E-3,6.414080039E-3,6.108647794E-4
1.046315136E2,-1.679878100E-3,-1.527161949E-4,7.635809598E-4
1.051356034E2,-9.926552884E-3,-2.901607659E-3,-7.941242307E-3
1.056396930E2,-2.443459118E-3,1.374445739E-3,-1.679878100E-3
1.061437824E2,3.512472380E-3,3.817904973E-3,6.719512399E-3
1.066478716E2,4.581485991E-4,4.581485875E-3,9.162971983E-4
1.071519608E2,-1.374445739E-3,6.108647794E-4,7.635809598E-4
1.076560499E2,-8.704823442E-3,-1.374445739E-3,-6.261364091E-3
1.081601389E2,-1.527161920E-3,3.054323839E-3,-7.635809598E-4
1.086642280E2,2.290742937E-3,2.443459118E-3,5.803215317E-3
1.091683170E2,-1.069013379E-3,2.443459118E-3,0.000000000E0
1.096724055E2,-1.527161920E-3,3.665188793E-3,1.374445739E-3
1.101764944E2,-5.955931731E-3,-7.483093534E-3,-2.138026757E-3
1.106805832E2,-4.123337101E-3,7.330377586E-3,-4.581485875E-3
1.111846720E2,7.483093534E-3,4.276053514E-3,7.635809947E-3
1.116887609E2,1.637117565E-1,6.566796452E-3,-2.855792828E-2
1.121928500E2,-5.039634556E-2,-2.382372692E-2,1.007926930E-2
1.126969390E2,-1.679878100E-3,-7.941242307E-3,5.497782957E-3
1.132010280E2,-1.298087649E-2,-7.330377586E-3,1.985310577E-3
1.137051171E2,-1.084284950E-2,-3.054323839E-3,2.748891478E-3
1.142092062E2,-1.175914705E-2,-1.679878100E-3,-7.330377586E-3
1.147132954E2,5.803215317E-3,3.054323897E-4,6.719512399E-3
1.152173846E2,-4.581485991E-4,1.069013379E-3,6.108647794E-4
1.157214739E2,9.162971983E-4,1.985310577E-3,1.069013379E-3
1.162255629E2,-7.635809598E-4,1.527161949E-4,4.581485991E-4
1.167296518E2,-9.773836471E-3,-4.581485991E-4,-7.483093534E-3
1.172337405E2,-5.345067009E-3,1.374445739E-3,-4.581485875E-3
1.177378291E2,5.192350596E-3,9.162971983E-4,7.635809947E-3
1.182419175E2,1.985310577E-3,1.985310577E-3,4.123337101E-3
1.187460058E2,-5.039634649E-3,9.315688163E-3,-1.053741761E-2
1.192500942E2,3.054323897E-4,2.596175298E-3,3.665188793E-3
1.197541824E2,-1.771507785E-2,-2.748891478E-3,-1.603520103E-2
1.202582705E2,-3.207040019E-3,-1.191186346E-2,1.649334840E-2
1.207623586E2,-4.581485875E-3,2.244928107E-2,3.970621154E-3
1.212664465E2,-3.359756200E-3,1.145371422E-2,2.550360374E-2
1.217705343E2,-5.497782957E-3,9.162971750E-3,1.572976820E-2
1.222746221E2,-1.756236330E-2,9.315688163E-3,1.725693047E-2
1.227787100E2,-2.443459118E-3,1.466075517E-2,2.718348242E-2
1.232827980E2,-2.138026757E-3,1.924224012E-2,5.650499370E-3
1.237868861E2,1.038470119E-2,-7.024944760E-3,1.557705179E-2
1.242909742E2,-5.345067009E-3,5.192350596E-3,-2.122755162E-2
1.247950624E2,-2.901607659E-3,2.138026757E-3,-9.468403645E-3
1.252991506E2,1.527161989E-2,-3.878991306E-2,1.939495653E-2
1.258032389E2,1.527161920E-3,1.053741761E-2,-2.260199748E-2
1.263073271E2,-3.207040019E-3,2.901607659E-3,-1.695149764E-2
1.268114154E2,9.621120058E-3,1.527161949E-4,-1.328630932E-2
1.273155037E2,1.832594397E-3,6.261364091E-3,-1.420260593E-2
1.278195919E2,-7.177661173E-3,-4.886918236E-3,-1.359174121E-2
1.283236801E2,6.719512399E-3,-1.542433538E-2,-5.039634649E-3
1.288277682E2,1.832594397E-3,-4.886918236E-3,-1.359174121E-2
1.293318562E2,-3.054323897E-4,-1.420260593E-2,-1.160643063E-2
1.298359442E2,-5.345067009E-3,-1.221729536E-2,-4.276053514E-3
1.303400321E2,-2.367101051E-2,-2.519817278E-2,-2.443459118E-3
1.308441200E2,3.543015569E-2,-3.512472380E-3,3.252854943E-2
1.313482078E2,-3.359756200E-3,6.414080039E-3,2.260199748E-2
1.318522956E2,-1.557705179E-2,-1.298087649E-2,2.443459118E-3
1.323563835E2,-2.138026757E-3,7.635809598E-4,1.252272818E-2
1.328604715E2,9.926552884E-3,3.283398226E-2,1.664606482E-2
1.333645597E2,-0.000000000E0,-1.756236330E-2,2.947422490E-2
1.338686480E2,2.138026757E-3,2.229656465E-2,-1.450803876E-2
1.343727363E2,-4.001164436E-2,-8.552107029E-3,1.359174121E-2
1.348768248E2,-3.008509055E-2,6.414080039E-3,5.345067009E-3
1.353809132E2,1.954767294E-2,-7.941242307E-3,3.145953640E-2
1.358850018E2,2.000582218E-2,4.123337194E-2,1.603520103E-2
1.363891028E2,2.611446939E-2,3.054323979E-2,1.206457894E-2
1.368931793E2,3.084867075E-2,2.031125315E-2,-1.832594397E-3
1.373972682E2,-1.221729559E-3,1.282816008E-2,-5.253437161E-2
1.379013570E2,3.313941509E-2,-1.618791744E-2,-6.994401664E-2
1.384054458E2,1.954767294E-2,-1.435532235E-2,-1.342375278E-1
1.389095345E2,3.848448023E-2,-2.611446939E-2,-1.678351015E-1
1.394136233E2,3.634645417E-2,-4.825831577E-2,-2.209803313E-1
1.399177120E2,4.963276163E-2,-2.550360374E-2,-2.774853408E-1
1.404218008E2,7.651081681E-2,-3.497200832E-2,-3.037525117E-1
1.409258896E2,6.490438432E-2,-3.848448023E-2,-3.280344009E-1
1.414299786E2,6.734783947E-2,-7.009673119E-2,-3.234528899E-1
1.419340678E2,5.161807314E-2,-8.032871783E-2,-2.938259542E-1
1.424381574E2,6.627883017E-2,-3.985892609E-2,-2.739728391E-1
1.429422472E2,9.468404204E-2,-2.474002354E-2,-3.077231348E-1
1.434463374E2,-5.192350596E-3,-1.189659163E-1,-1.809686869E-1
1.439504280E2,2.687804960E-2,-2.596175298E-2,-1.815795600E-1
1.444545191E2,2.504545636E-2,2.443459118E-3,-7.819069177E-2
1.449586109E2,-1.191186346E-2,-5.681042373E-2,-3.680460155E-2
1.454627036E2,3.054323839E-3,-2.932151034E-2,-2.260199748E-2
1.459667968E2,-3.970621154E-3,-1.832594350E-2,-7.635809598E-4
1.464708906E2,3.054323897E-4,-2.733619884E-2,1.588248461E-2
1.469749849E2,-8.552107029E-3,-6.108647794E-4,6.414080039E-3
1.474790795E2,-2.901607752E-2,-1.404988952E-2,8.093958721E-3
1.479831743E2,1.175914705E-2,-5.039634649E-3,1.756236330E-2
1.484872691E2,-4.123337101E-3,5.192350596E-3,1.114828233E-2
1.489913639E2,7.483093534E-3,-4.581485991E-4,1.038470119E-2
1.494954587E2,-9.162971983E-4,4.581485991E-4,1.496618707E-2
1.499995535E2,-2.092211880E-2,5.497782957E-3,3.817904973E-3
1.505036484E2,1.267544460E-2,-1.084284950E-2,1.740964688E-2
1.510077433E2,3.512472380E-3,1.404988952E-2,2.183841541E-2
1.515118383E2,7.941242307E-3,6.872228812E-3,-3.359756200E-3
1.520159332E2,-3.359756200E-3,4.581485875E-3,-7.483093534E-3
1.525200280E2,-1.786779426E-2,-1.145371422E-2,1.374445739E-3
1.530241228E2,1.817322709E-2,7.635809947E-3,1.389717404E-2
1.535282174E2,8.399390616E-3,-5.650499370E-3,-6.872228812E-3
1.540323119E2,-1.252272818E-2,5.192350596E-3,-1.481347065E-2
1.545364063E2,-6.261364091E-3,-5.039634649E-3,-4.734201822E-3
1.550405004E2,3.054323839E-3,9.162971983E-4,4.123337101E-3
1.555445944E2,1.343902480E-2,9.315688163E-3,1.130099874E-2
1.560486882E2,6.719512399E-3,3.054323839E-3,2.779434808E-2
1.565527818E2,-1.618791744E-2,5.497782957E-3,2.748891478E-3
1.570568754E2,-7.330377586E-3,8.552107029E-3,-1.084284950E-2
1.575609690E2,8.857538924E-3,3.817904973E-3,5.650499370E-3
1.580650625E2,1.069013379E-3,1.527161949E-4,-3.970621154E-3
1.585691558E2,-6.414080039E-3,1.481347065E-2,-8.704823442E-3
1.590732490E2,-4.734201822E-3,-5.345067009E-3,1.359174121E-2
1.595773420E2,-1.130099874E-2,2.809977904E-2,-6.872228812E-3
1.600814350E2,-1.817322709E-2,8.399390616E-3,-1.679878100E-3
1.605855278E2,-1.069013402E-2,1.557705179E-2,-9.162971750E-3
1.610896206E2,-4.581485875E-3,-1.527161949E-4,-1.985310577E-3
1.615937138E2,1.114828233E-2,9.468403645E-3,1.298087649E-2
1.620978055E2,1.328630932E-2,-9.468403645E-3,2.336557768E-2
1.626018978E2,-6.108647794E-4,-5.497782957E-3,5.345067009E-3
1.631059899E2,-1.237001177E-2,4.428769462E-3,-1.084284950E-2
1.636100819E2,-1.985310577E-2,1.466075517E-2,-6.918043643E-2
1.641141739E2,2.809977904E-2,-3.084867075E-2,1.725693047E-2
1.646182662E2,9.162971750E-3,-1.191186346E-2,1.130099874E-2
1.651223587E2,8.246674202E-3,-4.886918236E-3,5.650499370E-3
1.656264515E2,4.886918236E-3,-1.374445739E-3,9.162971983E-4
1.661305446E2,6.108647678E-3,-4.734201822E-3,3.665188793E-3
1.666346380E2,-1.221729559E-3,-1.374445739E-3,4.581485991E-4
1.671387317E2,-7.788525894E-3,-1.389717404E-2,-5.192350596E-3
1.676428257E2,4.581485875E-3,3.054323897E-4,3.970621154E-3
1.681469200E2,2.138026757E-3,4.276053514E-3,3.054323839E-3
1.686510144E2,-1.069013379E-3,-2.138026757E-3,1.832594397E-3
1.691551089E2,0.000000000E0,-1.985310577E-3,1.832594397E-3
1.696592038E2,-1.130099874E-2,-5.497782957E-3,-6.261364091E-3
1.701632982E2,-1.069013379E-3,-0.000000000E0,-9.162971983E-4
1.706673926E2,4.123337101E-3,2.748891478E-3,4.581485875E-3
1.711714872E2,2.290742937E-3,-3.359756200E-3,3.512472380E-3
1.716755821E2,1.527161920E-3,1.221729559E-3,-3.054323897E-4
1.721796773E2,-4.581485875E-3,-2.596175298E-3,-2.138026757E-3
1.726837730E2,-8.857538924E-3,-3.817904973E-3,-6.108647678E-3
1.731878689E2,5.803215317E-3,5.497782957E-3,4.734201822E-3
1.736919649E2,2.443459118E-3,-7.635809598E-4,4.581485875E-3
1.741960612E2,2.443459118E-3,-1.527161920E-3,9.162971983E-4
1.747001576E2,-1.221729559E-3,-2.596175298E-3,-3.054323897E-4
1.752042539E2,-8.093958721E-3,-4.276053514E-3,-5.497782957E-3
1.757083501E2,6.108647678E-3,-1.069013379E-3,5.345067009E-3
1.762124463E2,4.581485991E-4,2.901607659E-3,-1.221729559E-3
1.767165423E2,-4.123337101E-3,8.857538924E-3,-1.053741761E-2
1.772206382E2,-2.138026757E-3,9.162971983E-4,-6.872228812E-3
1.777247339E2,7.635809598E-4,-2.504545636E-2,1.771507785E-2
1.782288296E2,6.108647678E-3,-3.054323897E-4,3.359756200E-3
1.787329251E2,1.527161920E-3,1.099556591E-2,-1.527161949E-4
1.792370206E2,-1.130099874E-2,9.621120058E-3,-5.039634649E-3
1.797411158E2,-9.162971750E-3,3.512472380E-3,-9.468403645E-3
1.802452109E2,5.039634649E-3,5.497782957E-3,-1.527161920E-3
1.807493058E2,4.799869955E-1,1.356119812E-1,2.565632015E-2
1.812534005E2,5.207622424E-2,-3.492619395E-1,1.153007299E-1
1.817574950E2,-2.406807244E-1,1.221729591E-1,5.497782957E-3
1.822615896E2,-7.757982612E-2,0.000000000E0,5.955931731E-3
1.827656840E2,-2.000582218E-2,-6.108647794E-4,2.825249545E-2
1.832697784E2,-2.657261863E-2,4.917461425E-2,3.665188793E-3
1.837738726E2,-1.466075517E-2,-1.924224012E-2,3.176496923E-2
1.842779667E2,-1.725693047E-2,2.290742937E-3,1.725693047E-2
1.847820606E2,5.497782957E-3,4.367683083E-2,-8.246674202E-3
1.852861544E2,-1.084284950E-2,-1.832594350E-2,1.679878100E-3
1.857902482E2,-1.374445762E-2,-1.389717404E-2,-1.954767294E-2
1.862943420E2,2.901607752E-2,-1.481347065E-2,2.275471389E-2
1.867984356E2,-1.649334840E-2,1.328630932E-2,-3.955349326E-2
1.873025292E2,-4.428769462E-3,6.261364091E-3,-2.855792828E-2
1.878066226E2,-9.010255337E-3,-2.901607659E-3,-2.092211880E-2
1.883107160E2,-4.581485991E-4,-1.771507785E-2,4.734201822E-3
1.888148092E2,2.794706449E-2,-1.191186346E-2,4.474584386E-2
1.893189024E2,2.138026757E-3,1.221729559E-3,1.970038936E-2
1.898229955E2,-2.168569900E-2,1.420260593E-2,-1.069013379E-3
1.903270885E2,-1.557705179E-2,1.618791744E-2,3.222311661E-2
1.908311814E2,4.428769462E-3,3.375028074E-2,4.413498193E-2
1.913352743E2,-1.878409274E-2,3.359756200E-3,2.886336111E-2
1.918393672E2,1.175914705E-2,6.108647957E-2,2.092211880E-2
1.923434601E2,1.023198478E-2,2.932151034E-2,-5.192350596E-3
1.928475529E2,2.672533318E-2,2.901607752E-2,5.497782957E-3
1.933516458E2,-8.704823442E-3,6.795870513E-2,-6.643154472E-2
1.938557387E2,1.847865991E-2,1.664606482E-2,-1.301141977E-1
1.943598316E2,3.130681813E-2,-2.657261863E-2,-1.493564397E-1
1.948639244E2,3.772090003E-2,-7.024945319E-2,-2.235765159E-1
1.953680171E2,6.169734150E-2,-7.147117704E-2,-2.269362658E-1
1.958721098E2,4.917461425E-2,-6.032289565E-2,-2.915352285E-1
1.963762024E2,6.093376130E-2,-5.955931544E-2,-3.191768527E-1
1.968802950E2,8.078686893E-2,-4.932733253E-2,-3.190241456E-1
1.973843875E2,7.635809481E-2,-7.177661359E-2,-3.489564955E-1
1.978884801E2,9.514218569E-2,-3.588830680E-2,-3.268126547E-1
1.983925727E2,4.474584386E-2,-9.880737960E-2,-2.965748608E-1
1.988966651E2,4.230238497E-2,-4.749473557E-2,-2.809978127E-1
1.994007577E2,3.176496923E-2,-5.665770918E-2,-1.806632578E-1
1.999048506E2,-1.389717404E-2,-8.429934084E-2,-1.247691289E-1
2.004089436E2,2.596175298E-3,-6.780599058E-2,-3.252854943E-2
2.009130369E2,-1.175914705E-2,-2.580903657E-2,2.428187430E-2
2.014171302E2,3.359756200E-3,-3.604102135E-2,4.230238497E-2
2.019212236E2,-3.420842811E-2,-5.345067009E-3,2.748891478E-3
2.024253169E2,-1.908952370E-2,2.519817278E-2,2.076940238E-2
2.029294101E2,1.634063199E-2,-2.107483521E-2,6.230820715E-2
2.034335034E2,7.941242307E-3,2.932151034E-2,3.451386094E-2
2.039375966E2,-2.779434808E-2,1.328630932E-2,3.207040019E-3
2.044416897E2,-2.290742937E-3,-1.832594397E-3,-1.069013379E-3
2.049457827E2,1.023198478E-2,-1.832594397E-3,9.773836471E-3
2.054498757E2,-7.635809947E-3,3.375028074E-2,-4.581485875E-3
2.059539685E2,-4.734201822E-3,2.550360374E-2,-3.512472380E-3
2.064580613E2,-3.069595434E-2,1.007926930E-2,-3.054323979E-2
2.069621542E2,5.192350596E-3,-8.857538924E-3,8.399390616E-3
2.074662470E2,-1.832594397E-3,7.177661173E-3,-5.955931731E-3
2.079703398E2,3.512472380E-3,1.069013379E-3,2.290742937E-3
2.084744326E2,-1.084284950E-2,1.069013379E-3,-1.084284950E-2
2.089785255E2,-1.664606482E-2,-1.924224012E-2,-8.399390616E-3
2.094826183E2,-6.414080039E-3,-2.901607752E-2,5.436696485E-2
2.099867113E2,-1.160643063E-2,1.069013379E-3,7.849612087E-2
2.104908047E2,-1.740964688E-2,2.458730713E-2,1.192713454E-1
2.109948986E2,-3.115410358E-2,1.527161920E-3,1.734855920E-1
2.114989929E2,-3.695731983E-2,4.581485991E-4,2.420551628E-1
2.120030876E2,7.330377586E-3,4.734202102E-2,2.875646055E-1
2.125071827E2,-4.382954910E-2,9.621120244E-2,2.955058515E-1
2.130112780E2,-5.986474827E-2,2.428187430E-2,3.449858725E-1
2.135153735E2,-7.192932814E-2,8.399390616E-3,3.144426346E-1
2.140194692E2,-2.565632015E-2,4.825831577E-2,2.606865466E-1
2.145235648E2,-1.007926930E-2,5.803215317E-3,2.535088956E-1
2.150276606E2,-3.039052337E-2,5.513054505E-2,1.798996776E-1
2.155317566E2,-5.803215504E-2,4.291325063E-2,1.220202371E-1
2.160358524E2,-2.229656465E-2,-3.588830680E-2,1.053741723E-1
2.165399483E2,-5.955931731E-3,2.290742937E-3,8.200860023E-2
2.170440441E2,-8.246674202E-3,2.611446939E-2,7.467821985E-2
2.175481399E2,-1.313359290E-2,1.817322709E-2,3.894263133E-2
2.180522359E2,1.985310577E-2,3.298669681E-2,2.748891525E-2
2.185563320E2,1.160643063E-2,9.773836471E-3,1.802051067E-2
2.190604283E2,8.552107029E-3,-6.719512399E-3,-5.039634649E-3
2.195645247E2,-3.054323839E-3,-1.588248461E-2,-1.756236330E-2
2.200686211E2,1.572976820E-2,1.007926930E-2,-2.901607659E-3
2.205727176E2,3.817904973E-3,-1.175914705E-2,7.941242307E-3
2.210768140E2,-1.496618707E-2,1.924224012E-2,-1.970038936E-2
2.215809105E2,-3.970621154E-3,1.374445739E-3,2.596175298E-3
2.220850070E2,-2.901607659E-3,2.611446939E-2,-1.527161989E-2
2.225891041E2,2.183841541E-2,-1.435532235E-2,2.794706449E-2
2.230932017E2,-3.558287397E-2,1.542433538E-2,-6.841685623E-2
2.235972997E2,4.734201822E-3,-1.374445739E-3,2.962694131E-2
2.241013980E2,-1.435532235E-2,-4.734201822E-3,-2.443459071E-2
2.246054964E2,1.252272818E-2,-2.122755162E-2,2.443459118E-3
2.251095950E2,2.748891525E-2,3.726275265E-2,-2.138026757E-3
2.256136935E2,-1.435532235E-2,-8.093958721E-3,1.023198478E-2
2.261177920E2,-9.468403645E-3,4.886918236E-3,-3.008509055E-2
2.266218904E2,7.330377586E-3,1.527161920E-3,1.404988952E-2
2.271259886E2,-3.084867075E-2,1.496618707E-2,1.069013379E-3
2.276300867E2,-1.481347065E-2,-3.756818548E-2,-6.246092543E-2
2.281341845E2,1.430950761E-1,-4.902189970E-2,6.200277433E-2
2.286382822E2,-1.085812151E-1,-2.260199748E-2,-3.726275265E-2
2.291423798E2,8.964440972E-2,-4.016435891E-2,6.108647794E-4
2.296464766E2,-1.069013379E-3,-3.054323897E-4,-1.191186346E-2
2.301505737E2,3.115410358E-2,-3.817904741E-2,4.153880477E-2
2.306546706E2,2.611446939E-2,1.527161920E-3,-2.596175298E-3
2.311587675E2,2.703076601E-2,-2.290742937E-3,6.719512399E-3
2.316628641E2,-1.359174121E-2,-1.939495653E-2,-4.581485991E-4
2.321669607E2,1.374445762E-2,8.399390616E-3,1.389717404E-2
2.326710574E2,-4.276053514E-3,-1.985310577E-3,1.298087649E-2
2.331751540E2,4.123337101E-3,-6.108647678E-3,2.687804960E-2
2.336792506E2,-1.908952370E-2,7.635809947E-3,1.252272818E-2
2.341833470E2,1.786779426E-2,-9.162971750E-3,2.229656465E-2
2.346874435E2,2.351829410E-2,-2.229656465E-2,1.099556591E-2
2.351915398E2,-2.611446939E-2,1.298087649E-2,5.497782957E-3
2.356956360E2,-5.115992576E-2,2.015853859E-2,-8.399390616E-3
2.361997321E2,4.474584386E-2,2.596175298E-3,1.817322709E-2
2.367038282E2,-2.916879393E-2,3.054323897E-4,-3.512472380E-3
2.372079243E2,5.803215317E-3,3.833176568E-2,-5.039634649E-3
2.377120202E2,-3.527744114E-2,-2.580903657E-2,-5.192350596E-3
2.382161161E2,-1.023198478E-2,4.886918236E-3,-1.359174121E-2
2.387202117E2,-9.621120058E-3,-1.023198478E-2,2.748891478E-3
2.392243074E2,-1.206457894E-2,-5.955931731E-3,3.207040019E-3
2.397284029E2,-2.901607659E-3,-6.719512399E-3,8.246674202E-3
2.402324985E2,-5.803215317E-3,1.664606482E-2,4.581485991E-4
2.407365941E2,-6.108647678E-3,2.748891478E-3,0.000000000E0
2.412406897E2,1.679878100E-3,4.123337101E-3,5.955931731E-3
2.417447852E2,3.054323839E-3,1.756236330E-2,-3.665188793E-3
2.422488807E2,-4.276053514E-3,8.399390616E-3,4.886918236E-3
2.427529761E2,-6.108647794E-4,-1.374445739E-3,-1.832594397E-3
2.432570714E2,-9.010255337E-3,-1.221729559E-3,-3.665188793E-3
2.437611667E2,-3.802633286E-2,2.855792828E-2,-9.728021920E-2
2.442652620E2,3.008509055E-2,-4.932733253E-2,4.108065739E-2
2.447693573E2,7.635809947E-3,-1.618791744E-2,7.483093534E-3
2.452734599E2,-2.901607659E-3,-3.665188793E-3,-3.665188793E-3
2.457775474E2,4.581485875E-3,7.788525894E-3,2.443459118E-3
2.462816424E2,-6.108647678E-3,-4.581485875E-3,-1.130099874E-2
2.467857372E2,9.468403645E-3,3.512472380E-3,2.901607659E-3
2.472898319E2,-1.679878100E-3,4.123337101E-3,-2.901607659E-3
2.477939267E2,-2.596175298E-3,3.054323839E-3,-3.207040019E-3
2.482980216E2,1.832594397E-3,-1.679878100E-3,6.108647794E-4
2.488021167E2,3.054323839E-3,-6.108647678E-3,2.748891478E-3
2.493062119E2,4.123337101E-3,3.207040019E-3,5.039634649E-3
2.498103072E2,-3.207040019E-3,-5.650499370E-3,-5.497782957E-3
2.503144024E2,3.359756200E-3,-3.359756200E-3,-6.108647794E-4
2.508184975E2,3.054323839E-3,3.054323839E-3,2.596175298E-3
2.513225926E2,3.054323839E-3,-1.221729559E-3,1.985310577E-3
2.518266880E2,1.374445739E-3,-1.985310577E-3,-9.162971983E-4
2.523307835E2,-0.000000000E0,1.527161920E-3,6.108647794E-4
2.528348791E2,-3.054323897E-4,-3.054323839E-3,-4.581485991E-4
2.533389747E2,-5.192350596E-3,-1.069013379E-3,-3.054323839E-3
2.538430703E2,3.054323839E-3,5.345067009E-3,1.679878100E-3
2.543471659E2,3.054323897E-4,8.093958721E-3,-1.069013379E-3
2.548512615E2,6.108647794E-4,-9.162971983E-4,0.000000000E0
2.553553572E2,-4.581485991E-4,-6.108647794E-4,9.162971983E-4
2.558594528E2,-2.901607659E-3,-1.069013379E-3,-3.359756200E-3
2.563635486E2,-6.566796452E-3,-5.192350596E-3,-6.719512399E-3
2.568676443E2,6.261364091E-3,1.527161949E-4,5.497782957E-3
2.573717400E2,2.138026757E-3,1.221729559E-3,9.162971983E-4
2.578758358E2,4.886918236E-3,2.443459118E-3,-1.374445739E-3
2.583799315E2,-9.162971750E-3,2.596175298E-3,-5.955931731E-3
2.588840275E2,-1.511890348E-2,-4.581485991E-4,-7.483093534E-3
2.593881235E2,-1.221729559E-3,6.108647678E-3,-6.108647794E-4
2.598922199E2,-8.704823442E-3,1.313359290E-2,-1.114828233E-2
2.603963165E2,1.069013379E-3,-9.315688163E-3,-1.679878100E-3
2.609004134E2,2.901607659E-3,-5.650499370E-3,5.192350596E-3
2.614045105E2,-2.076940238E-2,5.650499370E-3,-1.221729559E-3
2.619086077E2,-3.207040019E-3,1.740964688E-2,8.552107029E-3
2.624127051E2,-9.162971983E-4,-7.941242307E-3,3.558287397E-2
2.629168025E2,-9.315688163E-3,7.024944760E-3,4.245510325E-2
2.634209001E2,-2.901607659E-3,1.206457894E-2,5.039634556E-2
2.639249978E2,-1.908952370E-2,1.038470119E-2,5.314523727E-2
2.644290954E2,-1.328630932E-2,2.367101051E-2,4.108065739E-2
2.649331930E2,3.145953640E-2,5.742128938E-2,2.932151034E-2
2.654372905E2,2.474002354E-2,1.695149764E-2,2.596175298E-3
2.659413880E2,3.252854943E-2,-1.817322709E-2,-3.359756200E-3
2.664454853E2,8.857538924E-3,3.787361458E-2,-6.933315098E-2
2.669495826E2,-3.665188793E-3,1.221729559E-3,-8.063415438E-2
2.674536800E2,5.192350596E-2,4.673115537E-2,-9.590577334E-2
2.679577772E2,7.040216774E-2,3.680460155E-2,-7.498364896E-2
2.684618743E2,2.290742937E-3,-9.392046183E-2,3.512472380E-3
2.689659712E2,-1.389717404E-2,-2.825249545E-2,-2.840521187E-2
2.694700681E2,-1.802051067E-2,-5.406153202E-2,-4.444041103E-2
2.699741648E2,-2.733619884E-2,-3.329212964E-2,-2.306014486E-2
2.704782613E2,1.206457894E-2,1.221729559E-3,3.054323979E-2
2.709823577E2,-1.985310577E-3,-8.246674202E-3,5.329795182E-2
2.714864541E2,-3.039052337E-2,-4.581485875E-3,1.878409274E-2
2.719905503E2,-2.871064469E-2,-1.359174121E-2,5.406153202E-2
2.724946465E2,-4.123337194E-2,-1.572976820E-2,1.302669197E-1
2.729987426E2,-4.031707719E-2,2.183841541E-2,1.867718995E-1
2.735028387E2,-1.450803876E-2,4.337139800E-2,2.554942071E-1
2.740069347E2,-4.627300799E-2,6.047561392E-2,3.139844835E-1
2.745110307E2,-2.825249545E-2,7.131846249E-2,3.498727977E-1
2.750151268E2,-6.719512492E-2,4.321868345E-2,3.714057803E-1
2.755192228E2,-5.100720748E-2,4.367683083E-2,3.958403766E-1
2.760233187E2,-6.902772188E-2,6.582067907E-2,3.332267404E-1
2.765274145E2,-3.023780696E-2,3.985892609E-2,2.632827163E-1
2.770315102E2,-1.908952370E-2,3.313941509E-2,1.840230078E-1
2.775356058E2,-1.649334840E-2,-2.748891525E-2,1.240055487E-1
2.780397013E2,-1.374445762E-2,2.092211880E-2,6.154462695E-2
2.785437966E2,5.955931731E-3,9.773836471E-3,5.054906011E-2
2.790478920E2,-7.024944760E-3,1.343902480E-2,1.420260593E-2
2.795519875E2,-1.084284950E-2,-8.704823442E-3,1.374445762E-2
2.800560828E2,2.901607659E-3,9.162971750E-3,1.084284950E-2
2.805601782E2,-8.246674202E-3,6.108647678E-3,4.276053514E-3
2.810642736E2,2.748891525E-2,1.130099874E-2,1.237001177E-2
2.815683692E2,-6.872228812E-3,7.635809947E-3,-7.330377586E-3
2.820724651E2,-7.941242307E-3,-1.298087649E-2,1.221729559E-3
2.825765611E2,-3.970621154E-3,-3.359756200E-3,-1.023198478E-2
2.830806574E2,1.649334840E-2,-1.450803876E-2,3.970621154E-2
2.835847541E2,-1.603520103E-2,7.330377586E-3,-1.847865991E-2
2.840888513E2,4.153880477E-2,-1.466075517E-2,2.641990222E-2
2.845929490E2,-5.513054505E-2,9.621120058E-3,-8.246674202E-3
2.850970471E2,5.803215317E-3,4.123337101E-3,4.581485991E-4
2.856011454E2,-1.389717404E-2,9.926552884E-3,-3.665188793E-3
2.861052440E2,5.955931544E-2,-3.512472380E-3,2.764163166E-2
2.866093431E2,-3.329212964E-2,1.939495653E-2,-5.497782957E-3
2.871134430E2,-3.970621154E-3,5.039634649E-3,-1.679878100E-3
2.876175442E2,9.773836471E-3,2.596175298E-3,-4.428769462E-3
2.881216465E2,-5.039634649E-3,4.581485875E-3,-9.315688163E-3
2.886257495E2,1.038470119E-2,1.175914705E-2,-2.244928107E-2
2.891298530E2,1.313359290E-2,1.069013402E-2,-9.621120058E-3
2.896339568E2,1.206457894E-2,1.084284950E-2,-2.809977904E-2
2.901380608E2,2.764163166E-2,3.970621154E-3,-6.658425927E-2
2.906421649E2,2.000582218E-2,-1.114828233E-2,-9.361502528E-2
2.911462693E2,-1.252272818E-2,-2.031125315E-2,-1.336266696E-1
2.916503737E2,-1.878409274E-2,-3.466657549E-2,-1.182023361E-1
2.921544781E2,2.061668597E-2,-9.605848789E-2,-8.231402934E-2
2.926585825E2,1.114828233E-2,-1.527161920E-3,1.527161920E-3
2.931626868E2,-9.010255337E-3,2.779434808E-2,7.131846249E-2
2.936667910E2,-4.199695215E-2,2.901607659E-3,1.065959036E-1
2.941708953E2,-2.657261863E-2,6.887500733E-2,1.006399691E-1
2.946749994E2,-1.771507785E-2,1.404988952E-2,1.067486182E-1
2.951791035E2,-1.481347065E-2,-6.108647794E-4,6.811141968E-2
2.956832074E2,-2.748891478E-3,6.566796452E-3,4.077522457E-2
2.961873110E2,9.162971983E-4,2.855792828E-2,1.313359290E-2
2.966914143E2,8.093958721E-3,-1.863137633E-2,3.084867075E-2
2.971955174E2,-1.679878123E-2,-1.298087649E-2,-1.802051067E-2
2.976996203E2,2.076940238E-2,-6.108647794E-4,1.588248461E-2
2.982037231E2,1.725693047E-2,4.276053514E-3,1.832594397E-3
2.987078258E2,-1.175914705E-2,-4.734201822E-3,-1.023198478E-2
2.992119284E2,1.237001177E-2,-4.581485875E-3,-1.343902480E-2
2.997160310E2,7.024944760E-3,2.901607659E-3,-2.932151034E-2
3.002201336E2,2.321286127E-2,-1.466075517E-2,-3.665188700E-2
3.007242362E2,-4.581485991E-4,-1.221729536E-2,1.695149764E-2
3.012283387E2,-3.054323897E-4,4.428769462E-3,8.399390616E-3
3.017324413E2,-1.404988952E-2,1.786779426E-2,8.093958721E-3
3.022365441E2,8.552107029E-3,-7.483093534E-3,2.183841541E-2
3.027406470E2,-5.650499370E-3,7.483093534E-3,5.345067009E-3
3.032447502E2,-1.863137633E-2,-2.748891525E-2,4.886918236E-3
3.037488534E2,8.246674202E-3,3.008509055E-2,7.635809947E-3
3.042529567E2,-8.399390616E-3,8.552107029E-3,2.290742937E-3
3.047570601E2,1.099556591E-2,-1.970038936E-2,1.679878123E-2
3.052611635E2,-6.108647794E-4,7.330377586E-3,7.483093534E-3
3.057652668E2,-2.748891478E-3,-1.237001177E-2,4.886918236E-3
3.062693702E2,-2.748891525E-2,1.863137633E-2,-2.031125315E-2
3.067734735E2,-4.276053514E-3,-8.093958721E-3,-2.229656465E-2
3.072775768E2,3.054323839E-3,-4.276053514E-3,-3.359756200E-3
3.077816802E2,-7.635809598E-4,-4.581485875E-3,8.399390616E-3
3.082857840E2,7.635809947E-3,-1.069013379E-3,5.345067009E-3
3.087898880E2,-1.832594397E-3,-2.443459118E-3,7.635809598E-4
3.092939925E2,-1.084284950E-2,-6.872228812E-3,-6.414080039E-3
3.097980974E2,-1.985310577E-3,-1.221729559E-3,-3.054323839E-3
3.103022027E2,1.527161949E-4,5.803215317E-3,7.635809947E-3
3.108063083E2,-1.985310577E-3,7.635809598E-4,2.901607659E-3
3.113104140E2,-1.985310577E-3,5.803215317E-3,-7.635809598E-4
3.118145197E2,-5.345067009E-3,6.566796452E-3,1.221729559E-3
3.123186257E2,-8.399390616E-3,1.679878100E-3,-4.886918236E-3
3.128227320E2,2.138026757E-3,-1.252272818E-2,-6.566796452E-3
3.133268388E2,1.832594397E-3,-1.527161949E-4,4.123337101E-3
3.138309462E2,4.581485991E-4,4.734201822E-3,5.497782957E-3
3.143350543E2,4.581485991E-4,1.985310577E-3,1.374445739E-3
3.148391628E2,-4.428769462E-3,2.290742937E-3,-0.000000000E0
3.153432717E2,-3.665188793E-3,4.123337101E-3,2.138026757E-3
3.158473810E2,6.108647678E-3,-4.123337101E-3,1.374445739E-3
3.163514904E2,1.221729559E-3,-6.261364091E-3,-5.497782957E-3
3.168555999E2,-3.665188793E-3,-6.414080039E-3,-7.788525894E-3
3.173597094E2,1.985310577E-3,4.886918236E-3,3.054323839E-3
3.178638191E2,4.581485991E-4,5.039634649E-3,5.955931731E-3
3.183679287E2,-1.069013379E-3,9.162971983E-4,2.290742937E-3
3.188720383E2,2.290742937E-3,-5.039634649E-3,4.581485991E-4
3.193761479E2,-7.788525894E-3,7.177661173E-3,-3.512472380E-3
3.198802573E2,-1.420260593E-2,7.941242307E-3,-2.138026757E-3
3.203843665E2,-9.926552884E-3,2.290742937E-3,-4.734201822E-3
3.208884754E2,-5.039634649E-3,-2.290742937E-3,-1.038470119E-2
3.213925842E2,1.069013379E-3,7.024944760E-3,2.901607659E-3
3.218966929E2,-8.552107029E-3,1.114828233E-2,-8.704823442E-3
3.224008013E2,-6.108647678E-3,1.832594397E-3,1.527161949E-4
3.229049096E2,-1.252272818E-2,-1.420260593E-2,-1.527161949E-4
3.234090176E2,-9.162971750E-3,3.359756200E-3,2.367101051E-2
3.239131254E2,-3.512472380E-3,4.108065739E-2,1.802051067E-2
3.244172329E2,-7.177661173E-3,-1.221729559E-3,2.748891525E-2
3.249213401E2,-8.246674202E-3,1.985310577E-2,3.191768378E-2
3.254254471E2,-3.665188793E-3,3.802633286E-2,-3.054323839E-3
3.259295540E2,0.000000000E0,1.725693047E-2,-1.328630932E-2
3.264336605E2,-0.000000000E0,2.748891478E-3,-1.725693047E-2
3.269377667E2,6.108647678E-3,-1.374445739E-3,-2.993237413E-2
3.274418728E2,1.786779426E-2,-1.756236330E-2,-1.496618707E-2
3.279459785E2,2.076940238E-2,1.114828233E-2,-2.092211880E-2
3.284500840E2,2.901607659E-3,-7.635809598E-4,-1.374445739E-3
3.289541893E2,3.512472380E-3,-5.345067009E-3,-1.404988952E-2
3.294582944E2,1.023198478E-2,-5.039634649E-3,-1.924224012E-2
3.299623994E2,-1.267544460E-2,-2.367101051E-2,-1.221729559E-3
3.304665043E2,1.038470119E-2,7.635809598E-4,-1.985310577E-3
3.309706091E2,1.359174121E-2,-3.039052337E-2,2.107483521E-2
3.314747137E2,2.290742937E-3,3.695731983E-2,-4.734201822E-3
3.319788183E2,1.527161949E-4,-1.084284950E-2,-2.550360374E-2
3.324829228E2,1.007926930E-2,-9.468403645E-3,2.886336111E-2
3.329870274E2,-1.603520103E-2,-1.511890348E-2,-2.092211880E-2
3.334911320E2,-1.527161949E-4,1.023198478E-2,1.435532235E-2
3.339952366E2,1.374445739E-3,1.985310577E-3,9.621120058E-3
3.344993410E2,-1.069013379E-3,-9.315688163E-3,1.756236330E-2
3.350034455E2,8.246674202E-3,5.192350596E-3,8.246674202E-3
3.355075498E2,-1.725693047E-2,-1.374445739E-3,1.527161989E-2
3.360116541E2,-2.183841541E-2,-4.398226365E-2,7.941242307E-3
3.365157583E2,-2.748891478E-3,5.192350596E-3,2.535088919E-2
3.370198752E2,-2.290742937E-3,-1.221729559E-3,3.252854943E-2
3.375239668E2,-2.000582218E-2,-1.664606482E-2,6.398808211E-2
3.380280710E2,-3.955349326E-2,1.114828233E-2,1.055268943E-1
3.385321751E2,-2.229656465E-2,6.582067907E-2,1.178968996E-1
3.390362792E2,1.664606482E-2,1.679878123E-2,1.177441850E-1
3.395403831E2,-1.710421406E-2,-1.985310577E-3,3.344484791E-2
3.400444870E2,2.428187430E-2,2.932151034E-2,1.313359290E-2
3.405485907E2,4.734201822E-3,2.031125315E-2,-7.254019380E-2
3.410526945E2,1.893680729E-2,-9.468403645E-3,-9.941824526E-2
3.415567981E2,3.069595434E-2,-7.635809598E-4,-1.145371497E-1
3.420609017E2,2.657261863E-2,-2.748891525E-2,-1.079703495E-1
3.425650051E2,3.817904973E-3,-3.863719851E-2,-9.269873053E-2
3.430691084E2,9.468403645E-3,1.099556591E-2,-7.925970852E-2
3.435732116E2,9.162971750E-3,2.443459118E-3,-4.535670951E-2
3.440773147E2,3.054323897E-4,-1.893680729E-2,-4.016435891E-2
3.445814178E2,-5.497782957E-3,-9.773836471E-3,-1.481347065E-2
3.450855209E2,-1.359174121E-2,1.160643063E-2,-5.955931731E-3
3.455896240E2,-1.527161949E-4,1.924224012E-2,3.359756200E-3
3.460937271E2,7.177661173E-3,9.468403645E-3,-2.916879393E-2
3.465978303E2,1.817322709E-2,-1.374445739E-3,-3.176496923E-2
3.471019335E2,1.771507785E-2,5.803215317E-3,-6.185005978E-2
3.476060368E2,7.330377586E-3,-1.572976820E-2,-8.857539296E-2
3.481101403E2,1.023198478E-2,-1.359174121E-2,-5.115992576E-2
3.486142439E2,-2.015853859E-2,-2.672533318E-2,-2.748891478E-3
3.491183477E2,-1.069013402E-2,-7.788526267E-2,5.681042373E-2
3.496224515E2,4.734201822E-3,-8.246674202E-3,1.201876476E-1
3.501265552E2,-8.399390616E-3,9.117157012E-2,1.519526094E-1
3.506306589E2,-1.466075517E-2,8.093958721E-3,1.734855920E-1
3.511347626E2,-4.963276163E-2,-4.046979174E-2,1.860083193E-1
3.516388662E2,-3.756818548E-2,-3.329212964E-2,1.916588247E-1
3.521429700E2,-2.703076601E-2,-1.374445762E-2,2.040288299E-1
3.526470737E2,-4.703658819E-2,-2.993237413E-2,1.922696829E-1
3.531511774E2,-4.199695215E-2,-2.779434808E-2,2.031125426E-1
3.536552811E2,-1.328630932E-2,1.572976820E-2,2.399171442E-1
3.541593847E2,-2.977965772E-2,3.207040206E-2,2.565632164E-1
3.546634881E2,-4.352411628E-2,6.368265301E-2,2.814559340E-1
3.551675915E2,-1.130099874E-2,6.872228812E-3,2.640463114E-1
3.556716949E2,-2.199113183E-2,8.582650125E-2,2.014326602E-1
3.561757981E2,-3.207040019E-3,5.528326333E-2,1.267544478E-1
3.566799014E2,-1.053741761E-2,1.023198478E-2,3.772090003E-2
3.571840046E2,-2.000582218E-2,-2.229656465E-2,4.123337101E-3
3.576881076E2,-1.374445739E-3,2.672533318E-2,7.483093534E-3
3.581922105E2,6.872228812E-3,2.428187430E-2,4.581485875E-3
3.586963133E2,-2.901607659E-3,1.557705179E-2,1.527161949E-4
3.592004160E2,-3.054323897E-4,8.093958721E-3,-1.175914705E-2
3.597045186E2,-5.803215317E-3,3.054323897E-4,-1.313359290E-2
3.602086212E2,1.649334840E-2,7.483093534E-3,-2.901607659E-3
3.607127236E2,1.267544460E-2,1.252272818E-2,5.192350596E-3
3.612168259E2,8.552107029E-3,1.710421406E-2,-2.199113183E-2
3.617209281E2,9.926552884E-3,3.054323839E-3,-2.611446939E-2
3.622250302E2,4.886918236E-3,5.650499370E-3,-6.490438432E-2
3.627291322E2,4.108065739E-2,-1.130099874E-2,-2.550360374E-2
3.632332341E2,6.414080039E-3,-5.192350596E-3,-6.169734150E-2
3.637373359E2,1.282816008E-2,-1.893680729E-2,-6.505709887E-2
3.642414380E2,1.114828233E-2,-3.756818548E-2,-7.009673119E-2
3.647455403E2,9.315688163E-3,-2.977965772E-2,-8.170316368E-2
3.652496428E2,2.260199748E-2,-2.138026757E-3,-9.865466505E-2
3.657537455E2,2.809977904E-2,7.635809947E-3,-9.193515033E-2
3.662578483E2,2.443459071E-2,1.007926930E-2,-9.773836285E-2
3.667619510E2,2.626718581E-2,1.985310577E-3,-1.009454057E-1
3.672660536E2,1.954767294E-2,-5.650499370E-3,-1.119409725E-1
3.677701562E2,2.855792828E-2,-1.725693047E-2,-1.241582632E-1
3.682742587E2,1.149952933E-1,-4.306596518E-2,-1.160643101E-1
3.687783613E2,5.528326333E-2,-2.672533318E-2,-1.244636998E-1
3.692824637E2,1.947131455E-1,2.809977904E-2,-1.777616441E-1
3.697865661E2,7.757982612E-2,-3.084867075E-2,-1.310304999E-1
3.702906683E2,8.857538924E-3,-2.000582218E-2,-1.322522312E-1
3.707947706E2,2.687804960E-2,-1.725693047E-2,-1.253799945E-1
3.712988729E2,1.145371422E-2,-4.917461425E-2,-1.377500147E-1
3.718029751E2,4.352411628E-2,-3.711003438E-2,-1.151480079E-1
3.723070774E2,6.261363626E-2,-2.535088919E-2,-9.682206810E-2
3.728111798E2,5.375609919E-2,1.618791744E-2,-1.214093715E-1
3.733152822E2,-5.192350596E-3,-5.039634556E-2,-1.461493969E-1
3.738193846E2,2.153298259E-2,-4.642572254E-2,-1.220202371E-1
3.743234871E2,1.481347065E-2,-5.177079141E-2,-1.003345400E-1
3.748275898E2,1.191186346E-2,-2.840521187E-2,-1.030834317E-1
3.753316925E2,1.435532235E-2,-2.993237413E-2,-7.696896046E-2
3.758357952E2,-9.315688163E-3,-3.436114267E-2,-7.651081681E-2
3.763398978E2,6.108647678E-3,-3.283398226E-2,-8.704823442E-3
3.768440004E2,3.512472380E-3,-6.261364091E-3,-6.261364091E-3
3.773481029E2,-7.024944760E-3,-7.941242307E-3,1.679878100E-3
3.778522055E2,-3.191768378E-2,-6.108647678E-3,-3.817904973E-3
3.783563080E2,-1.359174121E-2,6.719512399E-3,6.108647678E-3
3.788604106E2,-2.183841541E-2,1.343902480E-2,9.162971750E-3
3.793645130E2,1.099556591E-2,3.817904973E-3,6.414080039E-3
3.798686154E2,-4.581485991E-4,2.138026757E-3,3.665188793E-3
3.803727177E2,-9.010255337E-3,-1.175914705E-2,-4.734201822E-3
3.808768200E2,-5.192350596E-3,1.527161949E-4,-5.497782957E-3
3.813809223E2,-4.123337101E-3,4.581485991E-4,-2.443459118E-3
3.818850246E2,-1.954767294E-2,-4.581485991E-4,1.679878100E-3
3.823891269E2,-4.123337101E-3,-4.428769462E-3,3.512472380E-3
3.828932292E2,-6.108647794E-4,1.863137633E-2,-9.468403645E-3
3.833973316E2,-6.108647794E-4,8.704823442E-3,1.130099874E-2
3.839014340E2,-4.734201822E-3,-4.581485991E-4,-6.566796452E-3
3.844055363E2,9.010255337E-3,-8.857538924E-3,1.832594350E-2
3.849096386E2,-6.566796452E-3,-0.000000000E0,-2.748891478E-3
3.854137409E2,-3.878991306E-2,1.267544460E-2,-3.756818548E-2
3.859178433E2,9.315688163E-3,9.162971750E-3,-2.474002354E-2
3.864219455E2,1.267544460E-2,-1.404988952E-2,2.428187430E-2
3.869260479E2,-6.261364091E-3,-7.941242307E-3,1.374445739E-3
3.874301503E2,9.315688163E-3,-3.359756200E-3,3.665188793E-3
3.879342528E2,3.665188793E-3,-6.108647794E-4,6.261364091E-3
3.884383552E2,-6.719512399E-3,-1.007926930E-2,-1.069013379E-3
3.889424576E2,-2.748891478E-3,1.832594397E-3,-7.788525894E-3
3.894465600E2,3.512472380E-3,-2.138026757E-3,7.788525894E-3
3.899506624E2,-1.832594397E-3,3.512472380E-3,1.374445739E-3
3.904547648E2,3.054323897E-4,-1.527161949E-4,4.581485875E-3
3.909588672E2,-5.497782957E-3,-6.108647678E-3,-3.359756200E-3
3.914629695E2,7.635809947E-3,9.162971983E-4,3.817904973E-3
3.919670718E2,-3.817904973E-3,3.359756200E-3,8.093958721E-3
3.924711741E2,-4.886918236E-3,6.108647794E-4,5.345067009E-3
3.929752764E2,1.527161920E-3,-4.428769462E-3,2.092211880E-2
3.934793788E2,2.443459118E-3,9.926552884E-3,7.635809947E-3
3.939834811E2,-1.053741761E-2,-0.000000000E0,2.641990222E-2
3.944875833E2,-2.596175298E-3,-3.512472380E-3,-9.162971983E-4
3.949916854E2,4.581485991E-4,3.817904973E-3,-1.832594397E-3
3.954957876E2,-9.162971983E-4,7.635809598E-4,-7.635809598E-4
3.959998898E2,5.192350596E-2,9.621120058E-3,-5.345067009E-3
3.965039922E2,-2.748891478E-3,2.000582218E-2,-5.955931731E-3
3.970080945E2,7.177661173E-3,-2.168569900E-2,8.857538924E-3
3.975121968E2,4.978547990E-2,-6.093376130E-2,1.038470119E-2
3.980162991E2,7.483093534E-3,-1.725693047E-2,-2.092211880E-2
3.985204013E2,-2.672533318E-2,2.260199748E-2,-1.740964688E-2
3.990245034E2,-1.527161949E-4,8.857538924E-3,6.108647794E-4
3.995286054E2,7.635809947E-3,6.108647678E-3,2.901607659E-3
4.000327075E2,2.138026757E-3,2.748891478E-3,-6.108647794E-4
4.005368094E2,1.069013379E-3,3.817904973E-3,1.832594397E-3
4.010409113E2,-6.566796452E-3,4.734201822E-3,-8.704823442E-3
4.015450130E2,-7.788525894E-3,6.108647794E-4,-6.108647678E-3
4.020491149E2,5.650499370E-3,2.901607659E-3,1.038470119E-2
4.025532167E2,3.207040019E-3,-1.985310577E-3,3.665188793E-3
4.030573185E2,1.374445739E-3,2.748891478E-3,2.138026757E-3
4.035614203E2,-3.359756200E-3,3.817904973E-3,-5.192350596E-3
4.040655221E2,-4.276053514E-3,-4.123337101E-3,-7.177661173E-3
4.045696239E2,9.621120058E-3,-0.000000000E0,6.261364091E-3
4.050737261E2,7.177661173E-3,-3.054323897E-4,3.970621154E-3
4.055778286E2,7.330377586E-3,-1.527161949E-4,1.374445739E-3
4.060819310E2,6.108647794E-4,-1.069013379E-3,1.221729559E-3
4.065860335E2,1.679878100E-3,-6.108647794E-4,-5.803215317E-3
4.070901360E2,-5.803215317E-3,2.138026757E-3,-1.206457894E-2
4.075942384E2,4.581485875E-3,-2.748891478E-3,4.428769462E-3
4.080983407E2,1.374445739E-3,1.802051067E-2,2.748891478E-3
4.086024430E2,3.054323897E-4,-5.650499370E-3,2.138026757E-3
4.091065454E2,3.359756200E-3,-1.206457894E-2,2.290742937E-3
4.096106477E2,-1.832594397E-3,-5.192350596E-3,1.985310577E-3
4.101147502E2,-1.802051067E-2,-1.252272818E-2,-3.817904973E-3
4.106188527E2,-8.093958721E-3,1.985310577E-3,-1.374445739E-3
4.111229554E2,7.635809598E-4,7.177661173E-3,5.039634649E-3
4.116270585E2,-4.581485875E-3,5.955931731E-3,6.108647794E-4
4.121311619E2,-1.007926930E-2,1.527161920E-3,1.985310577E-3
4.126352658E2,-2.535088919E-2,-3.054323839E-3,-4.581485875E-3
4.131393701E2,-4.581485875E-3,2.138026757E-3,-6.108647678E-3
4.136434747E2,1.527161920E-3,-4.581485875E-3,4.734201822E-3
4.141475794E2,-2.443459118E-3,-1.832594397E-3,0.000000000E0
4.146516841E2,-2.290742937E-3,6.414080039E-3,-6.108647678E-3
4.151557890E2,-1.374445739E-3,-5.650499370E-3,4.734201822E-3
4.156598940E2,-2.153298259E-2,1.084284950E-2,-2.764163166E-2
4.161639988E2,-8.857538924E-3,-3.359756200E-3,1.404988952E-2
4.166681036E2,1.527161949E-4,9.010255337E-3,1.939495653E-2
4.171722083E2,-7.941242307E-3,6.719512399E-3,2.031125315E-2
4.176763130E2,-3.207040019E-3,6.719512399E-3,1.771507785E-2
4.181804175E2,-1.695149764E-2,-7.635809598E-4,1.114828233E-2
4.186845220E2,-1.893680729E-2,1.618791744E-2,-1.557705179E-2
4.191886264E2,3.817904973E-3,8.857538924E-3,-1.985310577E-3
4.196927308E2,3.512472380E-3,-1.023198478E-2,7.635809598E-4
4.201968351E2,1.679878123E-2,-3.527744114E-2,1.740964688E-2
4.207009393E2,-1.099556591E-2,3.390299529E-2,-3.145953640E-2
4.212050434E2,-4.886918236E-3,-1.496618707E-2,-8.552107029E-3
4.217091474E2,3.512472380E-3,-4.276053514E-3,-7.483093534E-3
4.222132513E2,9.621120058E-3,1.985310577E-3,2.458730713E-2
4.227173553E2,-1.527161989E-2,6.108647794E-4,-2.748891478E-3
4.232214595E2,-3.207040019E-3,-1.572976820E-2,4.993819445E-2
4.237255640E2,-1.618791744E-2,8.246674202E-3,3.573558852E-2
4.242296688E2,-2.290742844E-2,-1.374445739E-3,6.337722391E-2
4.247337737E2,-2.076940238E-2,9.621120058E-3,4.642572254E-2
4.252378786E2,-1.282816008E-2,1.099556591E-2,6.734783947E-2
4.257419836E2,-2.474002354E-2,7.635809947E-3,5.329795182E-2
4.262460886E2,5.497782957E-3,1.618791744E-2,6.750056148E-2
4.267501935E2,2.290742937E-3,3.390299529E-2,2.672533318E-2
4.272542984E2,-8.552107029E-3,2.244928107E-2,2.596175298E-2
4.277584031E2,-9.162971750E-3,1.817322709E-2,2.443459118E-3
4.282625078E2,-3.207040019E-3,-5.039634649E-3,5.345067009E-3
4.287666123E2,-3.512472380E-3,-9.621120058E-3,-5.497782957E-3
4.292707168E2,1.863137633E-2,8.857538924E-3,6.108647678E-3
4.297748216E2,1.221729559E-3,6.872228812E-3,5.955931731E-3
4.302789266E2,2.138026757E-3,-9.926552884E-3,6.719512399E-3
4.307830322E2,3.054323979E-2,-1.435532235E-2,1.343902480E-2
4.312871383E2,-1.557705179E-2,1.404988952E-2,1.069013379E-3
4.317912449E2,-6.719512399E-3,1.527161949E-4,1.221729536E-2
4.322953520E2,1.679878123E-2,-3.512472380E-3,1.908952370E-2
4.327994593E2,5.177079141E-2,7.910698652E-2,-6.215549260E-2
4.333035667E2,-4.382954910E-2,-4.459312931E-2,2.932151034E-2
4.338076740E2,3.207040019E-3,5.345067009E-3,2.641990222E-2
4.343117811E2,-1.908952370E-2,9.162971983E-4,1.466075517E-2
4.348158883E2,-9.010255337E-3,6.108647678E-3,-2.748891478E-3
4.353199956E2,-1.175914705E-2,9.162971750E-3,-1.985310577E-2
4.358241032E2,7.483093534E-3,-8.246674202E-3,-2.718348242E-2
4.363282111E2,1.191186346E-2,4.276053514E-3,-3.863719851E-2
4.368323194E2,1.450803876E-2,-1.466075517E-2,-2.031125315E-2
4.373364283E2,-1.847865991E-2,-4.795288667E-2,2.855792828E-2
4.378405377E2,-4.092793912E-2,-8.704823442E-3,3.420842811E-2
4.383446479E2,-1.725693047E-2,2.596175298E-3,5.971203372E-2
4.388487590E2,-1.007926930E-2,6.918043643E-2,3.970621154E-2
4.393528710E2,2.244928107E-2,7.162389904E-2,-2.641990222E-2
4.398569840E2,2.031125315E-2,6.017018110E-2,-5.864302069E-2
4.403610976E2,5.085449293E-2,1.618791744E-2,-9.101885557E-2
4.408652119E2,4.001164436E-2,6.872228812E-3,-1.368337125E-1
4.413693267E2,4.688387364E-2,-1.466075517E-2,-1.771507859E-1
4.418734419E2,6.505709887E-2,-1.389717404E-2,-1.530216336E-1
4.423775575E2,5.054906011E-2,-8.093958721E-3,-1.536324918E-1
4.428816733E2,5.681042373E-2,-6.719512399E-3,-1.585194170E-1
4.433857893E2,5.268708616E-2,-1.175914705E-2,-1.600465775E-1
4.438899054E2,5.207622424E-2,-2.244928107E-2,-1.757763475E-1
4.443940215E2,4.001164436E-2,-4.535670951E-2,-1.346956789E-1
4.448981377E2,4.413498193E-2,-4.856374860E-2,-1.143844277E-1
4.454022539E2,-1.099556591E-2,-6.230820715E-2,-8.093958348E-2
4.459063701E2,-9.621120058E-3,-7.223475724E-2,-4.963276163E-2
4.464104864E2,1.664606482E-2,-1.267544460E-2,2.138026757E-3
4.469146027E2,-1.374445739E-3,2.290742937E-3,6.108647678E-3
4.474187194E2,-1.221729559E-3,-5.345067009E-3,1.099556591E-2
4.479228366E2,-1.221729536E-2,1.130099874E-2,6.414080039E-3
4.484269542E2,1.832594397E-3,8.399390616E-3,-1.527161989E-2
4.489310721E2,1.404988952E-2,-9.773836471E-3,9.010255337E-3
4.494351903E2,9.010255337E-3,-7.024944760E-3,8.093958721E-3
4.499393088E2,-9.468403645E-3,1.221729536E-2,3.359756200E-3
4.504434276E2,7.635809947E-3,-7.330377586E-3,9.773836471E-3
4.509475467E2,-5.803215317E-3,7.635809947E-3,-2.748891478E-3
4.514516659E2,6.108647794E-4,4.276053514E-3,-2.138026757E-3
4.519557852E2,-3.817904973E-3,-2.138026757E-3,1.221729559E-3
4.524599043E2,1.175914705E-2,-2.122755162E-2,9.010255337E-3
4.529640232E2,1.481347065E-2,-1.939495653E-2,1.053741761E-2
4.534681419E2,-5.039634649E-3,5.650499370E-3,-1.863137633E-2
4.539722605E2,-4.123337101E-3,2.596175298E-3,-8.552107029E-3
4.544763789E2,-3.054323839E-3,-1.053741761E-2,-1.771507785E-2
4.549804969E2,-3.512472380E-3,-7.330377586E-3,1.924224012E-2
4.554846145E2,-8.552107029E-3,-5.650499370E-3,1.679878123E-2
4.559887318E2,-6.566796452E-3,-9.468403645E-3,4.520399496E-2
4.564928486E2,-3.054323979E-2,-5.650499370E-3,6.582067907E-2
4.569969652E2,-1.679878123E-2,-7.788525894E-3,8.826996386E-2
4.575010814E2,-2.886336111E-2,1.282816008E-2,9.392046183E-2
4.580051973E2,-1.588248461E-2,-1.679878100E-3,1.039997265E-1
4.585093129E2,-1.664606482E-2,-3.512472380E-3,1.296560466E-1
4.590134282E2,-2.290742844E-2,7.330377586E-3,1.421787739E-1
4.595175431E2,-3.558287397E-2,4.581485875E-3,1.519526094E-1
4.600216576E2,-2.428187430E-2,2.199113183E-2,1.488982886E-1
4.605257718E2,-1.343902480E-2,2.351829410E-2,1.464548260E-1
4.610298858E2,6.719512399E-3,4.673115537E-2,1.363755614E-1
4.615339997E2,3.145953640E-2,6.734783947E-2,1.183550507E-1
4.620381136E2,3.817904973E-3,5.971203372E-2,6.826414168E-2
4.625422274E2,3.329212964E-2,1.053741761E-2,4.276053607E-2
4.630463414E2,-5.650499370E-3,5.039634649E-3,3.955349326E-2
4.635504553E2,2.031125315E-2,4.291325063E-2,4.413498193E-2
4.640545692E2,7.345648855E-2,-4.428769462E-3,-8.460476995E-2
4.645586831E2,3.145953640E-2,-5.558869615E-2,9.162971750E-3
4.650627970E2,1.817322709E-2,3.817904973E-3,-2.672533318E-2
4.655669108E2,1.771507785E-2,1.634063199E-2,-4.138609022E-2
4.660710247E2,7.803797722E-2,-1.058323234E-1,-1.186604798E-1
4.665751385E2,3.084867075E-2,-3.207040019E-3,-5.497783050E-2
4.670792523E2,9.101885557E-2,-7.727439702E-2,-5.711585656E-2
4.675833661E2,-1.970038936E-2,-1.069013402E-2,-6.291907281E-2
4.680874797E2,7.483093534E-3,-1.893680729E-2,-6.383536756E-2
4.685915933E2,1.527161989E-2,-1.450803876E-2,-7.208204269E-2
4.690957068E2,-3.207040019E-3,-1.893680729E-2,-6.078104675E-2
4.695998204E2,7.483093534E-3,-4.428769648E-2,-1.908952370E-2
4.701039339E2,-1.038470119E-2,-6.108647794E-4,2.825249545E-2
4.706080472E2,-1.130099874E-2,-1.679878100E-3,3.527744114E-2
4.711121603E2,-8.246674202E-3,-2.703076601E-2,5.528326333E-2
4.716162734E2,-1.007926930E-2,-5.650499370E-3,4.489856213E-2
4.721203864E2,-2.794706449E-2,4.123337101E-3,3.604102135E-2
4.726244994E2,-5.497782957E-3,-1.985310577E-3,3.497200832E-2
4.731286124E2,4.581485875E-3,-4.581485991E-4,2.687804960E-2
4.736327254E2,-1.527161949E-4,-4.428769462E-3,4.092793912E-2
4.741368384E2,4.428769462E-3,1.511890348E-2,2.107483521E-2
4.746409512E2,-7.024944760E-3,6.108647678E-3,-1.695149764E-2
4.751450639E2,-3.680460155E-2,-4.428769462E-3,-2.168569900E-2
4.756491765E2,1.084284950E-2,5.039634649E-3,-9.926552884E-3
4.761532889E2,1.343902480E-2,-1.908952370E-2,2.153298259E-2
4.766574012E2,8.857538924E-3,5.039634649E-3,4.581485991E-4
4.771615135E2,2.748891478E-3,-9.010255337E-3,1.679878100E-3
4.776656258E2,1.206457894E-2,-1.221729559E-3,5.650499370E-3
4.781697380E2,5.955931731E-3,-5.192350596E-3,1.527161920E-3
4.786738503E2,-3.512472380E-3,-1.527161989E-2,-1.832594397E-3
4.791779627E2,8.246674202E-3,-1.588248461E-2,-9.010255337E-3
4.796820753E2,7.941242307E-3,9.468403645E-3,1.466075517E-2
4.801861886E2,-5.955931731E-3,3.817904973E-3,5.345067009E-3
4.806903027E2,7.941242307E-3,-6.719512399E-3,-9.162971983E-4
4.811944177E2,2.122755162E-2,-6.765327603E-2,-2.046396956E-2
4.816985335E2,1.511890348E-2,-2.748891478E-3,-2.260199748E-2
4.822026500E2,-4.581485875E-3,-1.847865991E-2,-1.832594397E-3
4.827067670E2,1.527161920E-3,-3.665188793E-3,-7.635809947E-3
4.832108843E2,-2.901607659E-3,4.886918236E-3,-8.093958721E-3
4.837150018E2,3.054323897E-4,5.192350596E-3,-4.734201822E-3
4.842191195E2,-2.046396956E-2,-4.886918236E-3,3.359756200E-3
4.847232373E2,3.665188793E-3,-2.550360374E-2,-9.926552884E-3
4.852273551E2,6.414080039E-3,-1.374445739E-3,2.596175298E-3
4.857314730E2,-1.023198478E-2,-9.162971983E-4,-4.581485875E-3
4.862355910E2,-4.428769462E-3,-5.955931731E-3,-9.315688163E-3
4.867397088E2,1.527161920E-3,2.138026757E-3,3.726275265E-2
4.872438265E2,0.000000000E0,1.313359290E-2,2.076940238E-2
4.877479440E2,-5.955931731E-3,-1.985310577E-3,-1.679878100E-3
4.882520612E2,-4.123337101E-3,1.069013379E-3,4.428769462E-3
4.887561784E2,-9.010255337E-3,5.497782957E-3,-7.635809598E-4
4.892602954E2,-1.206457894E-2,5.039634649E-3,-4.734201822E-3
4.897644122E2,-7.330377586E-3,1.740964688E-2,-2.183841541E-2
4.902685289E2,4.657844082E-2,2.428187430E-2,1.252272818E-2
4.907726454E2,-2.168569900E-2,-1.420260593E-2,-1.374445762E-2
4.912767619E2,2.183841541E-2,6.108647794E-4,5.039634649E-3
4.917808784E2,1.374445739E-3,-1.679878100E-3,3.940077871E-2
4.922849950E2,0.000000000E0,4.581485991E-4,4.214967042E-2
4.927891119E2,-8.093958721E-3,9.010255337E-3,4.016435891E-2
4.932932288E2,-4.886918236E-3,2.000582218E-2,3.207040206E-2
4.937973459E2,-1.527161920E-3,1.725693047E-2,1.970038936E-2
4.943014628E2,3.359756200E-3,1.069013402E-2,4.734201822E-3
4.948055797E2,9.621120058E-3,1.343902480E-2,-3.665188793E-3
4.953096965E2,5.726857483E-2,-3.405570984E-2,2.138026757E-3
4.958138132E2,1.290451884E-1,4.550942779E-2,-4.520399496E-2
4.963179299E2,1.771507785E-2,-1.221729559E-3,5.803215317E-3
4.968220466E2,6.108647678E-3,2.886336111E-2,-1.542433538E-2
4.973261634E2,-4.276053607E-2,-4.780016840E-2,-9.468403645E-3
4.978302803E2,1.023198478E-2,1.221729536E-2,-1.496618707E-2
4.983343973E2,-1.175914705E-2,-4.581485991E-4,-1.298087649E-2
4.988385143E2,8.063415438E-2,4.963276163E-2,1.267544460E-2
4.993426314E2,1.739437431E-1,2.977965772E-2,1.771507785E-2
4.998467486E2,2.596175298E-3,4.276053514E-3,8.063415438E-2
5.003508659E2,2.748891478E-3,3.512472659E-2,-7.147117704E-2
5.008549831E2,-1.881463528E-1,-1.069013379E-3,1.171333194E-1
5.013591003E2,-1.039997265E-1,1.221729559E-3,-1.481347065E-2
5.018632175E2,-5.161807314E-2,-1.527161949E-4,1.603520103E-2
5.023673346E2,-2.916879393E-2,3.665188793E-3,4.153880477E-2
5.028714516E2,3.359756200E-3,-7.635809598E-4,4.856374860E-2
5.033755686E2,-8.246674202E-3,5.192350596E-3,8.277218044E-2
5.038796855E2,-1.282816008E-2,3.375028074E-2,7.956513762E-2
5.043838024E2,-2.000582218E-2,6.643154472E-2,7.483093441E-2
5.048879192E2,-1.832594397E-3,2.641990222E-2,1.079703495E-1
5.053920360E2,-4.108065739E-2,7.024944760E-3,1.001818255E-1
5.058961525E2,4.581485875E-3,4.214967042E-2,7.864884287E-2
5.064002689E2,4.734201822E-3,4.581485689E-2,4.749473557E-2
5.069043852E2,-1.191186346E-2,1.542433538E-2,2.748891525E-2
5.074085015E2,-3.970621154E-3,1.679878123E-2,1.145371422E-2
5.079126176E2,1.527161920E-3,3.283398226E-2,-1.053741761E-2
5.084167336E2,-1.740964688E-2,1.221729559E-3,-1.038470119E-2
5.089208496E2,3.665188793E-3,1.130099874E-2,3.054323897E-4
5.094249655E2,4.581485991E-4,2.748891525E-2,-6.414080039E-3
5.099290813E2,-5.192350596E-3,9.010255337E-3,-3.054323839E-3
5.104331971E2,2.687804960E-2,-1.527161989E-2,1.282816008E-2
5.109373129E2,2.290742937E-3,3.512472380E-3,-1.130099874E-2
5.114414289E2,-1.527161989E-2,1.099556591E-2,-2.244928107E-2
5.119455449E2,2.153298259E-2,2.138026757E-3,3.054323839E-3
5.124496610E2,-1.099556591E-2,-1.542433538E-2,-5.497782957E-3
5.129537770E2,1.023198478E-2,4.734201822E-3,1.267544460E-2
5.134578929E2,-8.093958721E-3,6.872228812E-3,-4.123337101E-3
5.139620089E2,-4.428769462E-3,4.123337101E-3,-3.665188793E-3
5.144661246E2,5.955931731E-3,8.704823442E-3,-3.665188793E-3
5.149702402E2,-5.955931731E-3,2.901607659E-3,-4.123337101E-3
5.154743556E2,-2.886336111E-2,-4.581485991E-4,-1.527161989E-2
5.159784710E2,1.130099874E-2,-3.207040206E-2,3.817904973E-3
5.164825865E2,3.008509055E-2,-2.901607659E-3,2.641990222E-2
5.169867024E2,2.474002354E-2,1.038470119E-2,8.399390616E-3
5.174908186E2,-5.024362728E-2,-3.970621154E-3,-3.772090003E-2
5.179949352E2,-1.710421406E-2,-3.054323897E-4,-7.788525894E-3
5.184990522E2,1.160643063E-2,-2.993237413E-2,5.955931731E-3
5.190031698E2,3.711003438E-2,-4.581485875E-3,-4.581485991E-4
5.195072882E2,-2.138026757E-3,1.985310577E-2,2.443459118E-3
5.200114074E2,2.718348242E-2,2.474002354E-2,-7.024944760E-3
5.205155277E2,-1.038470119E-2,2.718348242E-2,-3.970621154E-2
5.210196488E2,-1.832594350E-2,-2.382372692E-2,-3.191768378E-2
5.215237708E2,-5.345067009E-3,-4.306596518E-2,-1.863137633E-2
5.220278933E2,1.374445762E-2,-2.031125315E-2,-2.550360374E-2
5.225320162E2,7.024944760E-3,-2.244928107E-2,-2.428187430E-2
5.230361396E2,-2.626718581E-2,-2.290742937E-3,-3.145953640E-2
5.235402632E2,2.382372692E-2,-1.130099874E-2,-4.123337101E-3
5.240443871E2,-2.672533318E-2,-2.290742937E-3,-3.023780696E-2
5.245485111E2,1.389717404E-2,-8.552107029E-3,-2.015853859E-2
5.250526358E2,-7.177661173E-3,-3.359756200E-3,-3.054323897E-4
5.255567594E2,-1.114828233E-2,-3.054323897E-4,-2.596175298E-3
5.260608835E2,-1.221729559E-3,1.832594397E-3,-2.092211880E-2
5.265650075E2,-1.527161949E-4,4.734201822E-3,-1.649334840E-2
5.270691314E2,-4.123337101E-3,-2.443459118E-3,-1.649334840E-2
5.275732549E2,-4.886918236E-3,-1.145371422E-2,-1.053741761E-2
5.280773783E2,1.099556610E-1,-8.674279600E-2,-9.926552884E-3
5.285815013E2,9.315688163E-3,-6.566796452E-3,-1.160643063E-2
5.290856242E2,7.330377586E-3,8.093958721E-3,-5.955931731E-3
5.295897468E2,9.773836471E-3,-3.665188793E-3,-3.970621154E-3
5.300938692E2,1.527161949E-4,-4.123337101E-3,-3.069595434E-2
5.305979914E2,3.817904973E-3,-3.054323897E-4,-8.063415438E-2
5.311021133E2,1.450803876E-2,-1.527161989E-2,-9.590577334E-2
5.316062350E2,1.985310577E-2,-5.497783050E-2,-1.472184062E-1
5.321103567E2,5.054906011E-2,-5.528326333E-2,-1.907425225E-1
5.326144782E2,7.192932814E-2,-7.223475724E-2,-2.266308367E-1
5.331185997E2,7.147117704E-2,-1.017089859E-1,-2.565632164E-1
5.336227210E2,5.009091273E-2,-1.139262840E-1,-3.032943606E-1
5.341268422E2,7.055488229E-2,-1.189659163E-1,-3.242164850E-1
5.346309632E2,9.376774728E-2,-6.795870513E-2,-3.329212964E-1
5.351350841E2,7.101303339E-2,-1.374445707E-1,-3.199404180E-1
5.356392047E2,3.588830680E-2,-1.449276656E-1,-1.912006736E-1
5.361433253E2,3.726275265E-2,-8.888082206E-2,-1.247691289E-1
5.366474457E2,7.788525894E-3,-3.359756246E-2,-9.468404204E-2
5.371515660E2,-2.382372692E-2,-1.542433538E-2,-3.848448023E-2
5.376556861E2,-2.382372692E-2,-7.177661173E-3,-1.343902480E-2
5.381598059E2,-8.857538924E-3,1.679878100E-3,1.389717404E-2
5.386639255E2,-6.872228812E-3,-2.764163166E-2,2.871064469E-2
5.391680451E2,-1.175914705E-2,1.435532235E-2,3.359756200E-3
5.396721646E2,-3.329212964E-2,2.031125315E-2,-8.857538924E-3
5.401762840E2,6.261364091E-3,0.000000000E0,1.511890348E-2
5.406804033E2,-4.276053514E-3,5.955931731E-3,1.878409274E-2
5.411845226E2,-8.704823442E-3,2.351829410E-2,-5.497782957E-3
5.416886419E2,-1.756236330E-2,1.175914705E-2,-1.832594397E-3
5.421927612E2,-1.679878123E-2,2.596175298E-3,-1.985310577E-3
5.426968803E2,5.039634649E-3,-1.664606482E-2,1.970038936E-2
5.432009993E2,-1.557705179E-2,3.100138716E-2,1.527161989E-2
5.437051183E2,1.313359290E-2,8.857538924E-3,2.092211880E-2
5.442092372E2,-6.108647678E-3,1.084284950E-2,7.635809947E-3
5.447133559E2,-3.054323897E-4,1.985310577E-3,4.581485875E-3
5.452174745E2,-1.847865991E-2,6.719512399E-3,-1.404988952E-2
5.457215930E2,1.450803876E-2,-1.588248461E-2,2.199113183E-2
5.462257114E2,-1.481347065E-2,3.665188793E-3,-7.024944760E-3
5.467298295E2,-2.596175298E-3,2.138026757E-3,1.527161949E-4
5.472339475E2,-2.138026757E-3,0.000000000E0,3.970621154E-3
5.477380655E2,-5.803215317E-3,-4.276053514E-3,4.276053514E-3
5.482421832E2,-1.343902480E-2,2.901607659E-3,-1.832594397E-3
5.487463011E2,8.857538924E-3,1.679878100E-3,1.313359290E-2
5.492504195E2,-1.343902480E-2,1.832594350E-2,-4.734201822E-3
5.497545384E2,-1.069013379E-3,1.069013402E-2,1.237001177E-2
5.502586580E2,-6.414080039E-3,5.955931731E-3,1.160643063E-2
5.507627780E2,-7.788525894E-3,1.634063199E-2,6.566796452E-3
5.512668985E2,-2.183841541E-2,-1.374445739E-3,-5.345067009E-3
5.517710191E2,1.527161920E-3,-1.985310577E-3,1.099556591E-2
5.522751401E2,8.246674202E-3,8.246674202E-3,4.581485875E-3
5.527792611E2,-1.298087649E-2,9.010255337E-3,6.108647794E-4
5.532833821E2,-2.779434808E-2,-3.665188793E-3,4.734201822E-3
5.537875031E2,-1.939495653E-2,-2.748891478E-3,-7.177661173E-3
5.542916239E2,-6.566796452E-3,-6.276635826E-2,-1.130099874E-2
5.547957445E2,-4.428769462E-3,-5.345067009E-3,1.664606482E-2
5.552998649E2,-3.405570984E-2,-5.803215317E-3,3.359756246E-2
5.558039850E2,-3.665188793E-3,1.359174121E-2,5.910116807E-2
5.563081050E2,2.336557768E-2,-4.123337101E-3,9.453132749E-2
5.568122246E2,-5.161807314E-2,-2.596175298E-3,1.101083755E-1
5.573163440E2,-1.618791744E-2,5.955931544E-2,1.014035568E-1
5.578204632E2,-3.558287397E-2,3.787361458E-2,1.461493969E-1
5.583245822E2,-5.100720748E-2,6.062832847E-2,1.988364905E-1
5.588287011E2,1.893680729E-2,2.703076601E-2,2.275471240E-1
5.593328199E2,-6.963858753E-2,9.712749720E-2,2.579376400E-1
5.598369388E2,-5.406153202E-2,7.712167501E-2,3.081812859E-1
5.603410579E2,-8.292489499E-2,5.009091273E-2,3.300196826E-1
5.608451774E2,-1.817322709E-2,5.650499091E-2,2.970330119E-1
5.613492972E2,-5.681042373E-2,5.329795182E-2,3.069595397E-1
5.618534171E2,-1.221729536E-2,1.542433538E-2,2.541197538E-1
5.623575371E2,-5.543597788E-2,1.492037177E-1,1.687513888E-1
5.628616572E2,-3.848448023E-2,-3.512472380E-3,9.941824526E-2
5.633657774E2,-3.344484791E-2,-7.635809947E-3,1.064431891E-1
5.638698976E2,-1.740964688E-2,7.895427197E-2,4.260781780E-2
5.643740176E2,-1.786779426E-2,-5.192350596E-3,2.351829410E-2
5.648781375E2,-2.596175298E-3,1.343902480E-2,1.527161989E-2
5.653822572E2,1.985310577E-3,-1.053741761E-2,2.443459118E-3
5.658863768E2,4.276053514E-3,2.321286127E-2,1.282816008E-2
5.663904963E2,2.748891478E-3,8.704823442E-3,2.901607659E-3
5.668946155E2,-7.635809598E-4,5.650499370E-3,1.069013379E-3
5.673987347E2,-1.237001177E-2,-8.399390616E-3,1.099556591E-2
5.679028538E2,1.267544460E-2,-2.443459118E-3,1.282816008E-2
5.684069728E2,1.725693047E-2,-2.641990222E-2,-5.039634649E-3
5.689110915E2,8.246674202E-3,3.054323897E-4,-3.817904973E-3
5.694152101E2,-3.512472380E-3,2.748891478E-3,-4.581485991E-4
5.699193285E2,3.970621154E-3,1.679878123E-2,-3.817904973E-3
5.704234468E2,7.177661173E-3,7.635809947E-3,-6.108647794E-4
5.709275650E2,-2.122755162E-2,-2.886336111E-2,1.511890348E-2
5.714316831E2,1.160643063E-2,1.572976820E-2,1.069013379E-3
5.719358012E2,8.093958721E-3,1.664606482E-2,-1.221729559E-3
5.724399194E2,6.414080039E-3,-1.740964688E-2,-4.734201822E-3
5.729440377E2,-1.786779426E-2,4.428769462E-3,1.007926930E-2
5.734481560E2,-7.788525894E-3,-1.267544460E-2,1.450803876E-2
5.739522744E2,1.206457894E-2,2.275471389E-2,-3.665188793E-3
5.744563930E2,-1.511890348E-2,8.093958721E-3,-1.343902480E-2
5.749605120E2,1.389717404E-2,-1.084284950E-2,3.848448023E-2
5.754646315E2,-2.107483521E-2,-7.483093534E-3,-1.618791744E-2
5.759687516E2,-3.512472380E-3,7.024944760E-3,-6.261364091E-3
5.764728721E2,1.832594350E-2,-2.443459118E-3,1.496618707E-2
5.769769928E2,-1.237001177E-2,-4.581485991E-4,-6.108647794E-4
5.774811134E2,-1.206457894E-2,-9.468403645E-3,1.221729536E-2
5.779852341E2,2.214384824E-2,1.007926930E-2,-5.345067009E-3
5.784893546E2,-1.496618707E-2,-0.000000000E0,2.290742937E-3
5.789934751E2,-1.527161949E-4,-5.955931731E-3,1.069013379E-3
5.794975956E2,5.192350596E-3,6.872228812E-3,9.621120058E-3
5.800017159E2,3.207040019E-3,1.053741761E-2,-4.123337101E-3
5.805058362E2,-6.414080039E-3,1.924224012E-2,-1.603520103E-2
5.810099563E2,1.740964688E-2,1.206457894E-2,-2.000582218E-2
5.815140761E2,1.588248461E-2,-1.099556591E-2,-3.039052337E-2
5.820181958E2,1.069013402E-2,-1.908952370E-2,-4.337139800E-2
5.825223153E2,2.779434808E-2,-1.863137633E-2,-3.802633286E-2
5.830264348E2,1.359174121E-2,-1.527161920E-3,-3.863719851E-2
5.835305543E2,-3.512472380E-3,-6.459894776E-2,-1.069013379E-3
5.840346736E2,5.039634649E-3,-4.138609022E-2,-7.330377586E-3
5.845387927E2,-5.039634649E-3,-4.092793912E-2,4.062250629E-2
5.850429117E2,-1.588248461E-2,-1.725693047E-2,5.589412898E-2
5.855470304E2,8.093958721E-3,4.001164436E-2,2.153298259E-2
5.860511491E2,2.748891478E-3,6.566796452E-2,-9.162971750E-3
5.865552676E2,-2.000582218E-2,4.581485991E-4,5.345067009E-3
5.870593860E2,3.359756200E-3,1.175914705E-2,-2.748891478E-3
5.875635043E2,4.581485875E-3,6.566796452E-3,1.527161920E-3
5.880676224E2,1.343902480E-2,1.511890348E-2,-9.468403645E-3
5.885717404E2,-3.039052337E-2,-4.062250629E-2,-8.246674202E-3
5.890758581E2,2.458730713E-2,1.679878123E-2,4.428769462E-3
5.895799761E2,-7.635809947E-3,-1.175914705E-2,4.276053514E-3
5.900840935E2,1.237001177E-2,9.926552884E-3,-1.527161920E-3
5.905882108E2,-1.389717404E-2,-8.857538924E-3,-9.621120058E-3
5.910923281E2,9.773836471E-3,-8.093958721E-3,4.886918236E-3
5.915964453E2,-8.857538924E-3,-3.207040019E-3,1.771507785E-2
5.921005627E2,3.665188793E-3,1.099556591E-2,-1.069013402E-2
5.926046804E2,1.313359290E-2,2.596175298E-3,9.315688163E-3
5.931087984E2,-5.955931731E-3,4.276053514E-3,-6.414080039E-3
5.936129165E2,-1.069013379E-3,-1.328630932E-2,-1.527161949E-4
5.941170349E2,-8.399390616E-3,-3.252854943E-2,7.635809598E-4
5.946211535E2,1.679878100E-3,1.282816008E-2,-1.359174121E-2
5.951252721E2,4.123337101E-3,6.566796452E-3,1.130099874E-2
5.956293908E2,1.679878100E-3,9.926552884E-3,-1.985310577E-3
5.961335094E2,-7.635809598E-4,1.221729536E-2,1.328630932E-2
5.966376278E2,-6.108647678E-3,1.664606482E-2,-7.330377586E-3
5.971417462E2,8.399390616E-3,-6.414080039E-3,1.114828233E-2
5.976458645E2,-2.290742844E-2,1.985310577E-3,-1.237001177E-2
5.981499827E2,5.955931731E-3,6.108647794E-4,-1.328630932E-2
5.986541008E2,5.803215317E-3,-2.138026757E-3,5.497782957E-3
5.991582189E2,-9.926552884E-3,2.138026757E-3,6.719512399E-3
5.996623370E2,9.468403645E-3,-6.872228812E-3,1.069013402E-2
6.001664549E2,-1.985310577E-3,7.635809598E-4,-9.162971750E-3
6.006705727E2,2.901607659E-3,9.621120058E-3,2.748891478E-3
6.011746903E2,6.108647794E-4,-2.138026757E-3,-3.970621154E-3
6.016788078E2,-9.926552884E-3,1.527161949E-4,-3.970621154E-3
6.021829252E2,7.941242307E-3,1.175914705E-2,9.468403645E-3
6.026870426E2,2.611446939E-2,-5.192350596E-3,-6.108647794E-4
6.031911602E2,-1.496618707E-2,-5.039634649E-3,-7.635809947E-3
6.036952780E2,-1.374445739E-3,2.443459118E-3,2.748891478E-3
6.041993959E2,2.443459118E-3,-8.704823442E-3,1.221729559E-3
6.047035140E2,2.443459118E-3,-3.359756200E-3,-6.414080039E-3
6.052076322E2,-4.428769462E-3,1.572976820E-2,-1.221729536E-2
6.057117505E2,5.803215317E-3,-3.207040019E-3,4.581485991E-4
6.062158685E2,4.123337101E-3,-2.519817278E-2,1.893680729E-2
6.067199861E2,1.679878100E-3,4.581485875E-3,-8.093958721E-3
6.072241031E2,-9.468403645E-3,1.542433538E-2,-1.038470119E-2
6.077282194E2,-7.177661173E-3,-1.527161920E-3,4.886918236E-3
6.082323351E2,4.428769462E-3,-6.261364091E-3,6.261364091E-3
6.087364501E2,1.740964688E-2,2.596175298E-3,3.207040019E-3
6.092405645E2,9.621120058E-3,-5.497782957E-3,5.497782957E-3
6.097446783E2,1.450803876E-2,-2.428187430E-2,-3.665188793E-3
6.102487915E2,-1.756236330E-2,-1.252272818E-2,-4.886918236E-3
6.107529042E2,-1.527161949E-4,2.596175298E-3,1.160643063E-2
6.112570163E2,-1.298087649E-2,1.404988952E-2,-1.527161920E-3
6.117611282E2,-2.122755162E-2,-1.343902480E-2,1.572976820E-2
6.122652397E2,4.581485875E-3,5.787943676E-2,-2.138026757E-3
6.127693509E2,4.062250629E-2,6.200277433E-2,-3.970621154E-3
6.132734619E2,-5.803215317E-3,-1.802051067E-2,2.641990222E-2
6.137775727E2,-2.901607659E-3,1.695149764E-2,2.825249545E-2
6.142816832E2,-2.901607659E-3,5.039634649E-3,3.237583488E-2
6.147857934E2,-3.817904973E-3,5.650499370E-3,2.626718581E-2
6.152899033E2,-6.414080039E-3,1.099556591E-2,1.802051067E-2
6.157940128E2,-4.276053514E-3,2.183841541E-2,9.773836471E-3
6.162981221E2,3.207040019E-3,1.389717404E-2,6.719512399E-3
6.168022310E2,1.313359290E-2,-2.015853859E-2,1.435532235E-2
6.173063396E2,-2.412915789E-2,-5.742128938E-2,3.940077871E-2
6.178104478E2,-2.000582218E-2,-4.306596518E-2,1.740964688E-2
6.183145559E2,7.483093534E-3,4.764745384E-2,-2.550360374E-2
6.188186636E2,4.428769462E-3,-3.359756246E-2,1.924224012E-2
6.193227711E2,-9.010255337E-3,-1.557705179E-2,5.955931731E-3
6.198268784E2,2.580903657E-2,1.496618707E-2,3.054323839E-3
6.203309857E2,-4.581485875E-3,-1.206457894E-2,-1.679878100E-3
6.208350932E2,-1.481347065E-2,2.076940238E-2,-5.497782957E-3
6.213392020E2,-1.802051067E-2,-3.222311661E-2,6.872228812E-3
6.218433126E2,1.160643063E-2,2.031125315E-2,-9.010255337E-3
6.223474251E2,-7.483093534E-3,-1.267544460E-2,1.481347065E-2
6.228515394E2,1.634063199E-2,5.345067009E-3,2.596175298E-3
6.233556550E2,1.756236330E-2,1.527161920E-3,-5.192350596E-3
6.238597718E2,9.162971750E-3,-1.832594397E-3,-1.069013402E-2
6.243638900E2,-5.650499370E-3,-4.001164436E-2,-1.527161949E-4
6.248680098E2,9.621120058E-3,-2.748891478E-3,1.832594397E-3
6.253721311E2,-4.886918236E-3,1.053741761E-2,1.527161920E-3
6.258762540E2,7.635809598E-4,-1.771507785E-2,1.007926930E-2
6.263803785E2,4.734201822E-3,1.053741761E-2,-2.596175298E-3
6.268845043E2,-6.872228812E-3,-1.542433538E-2,2.596175298E-3
6.273886313E2,1.572976820E-2,8.093958721E-3,-1.527161920E-3
6.278927591E2,6.414080039E-3,1.588248461E-2,-2.290742937E-3
6.283968876E2,-3.054323839E-3,-8.399390616E-3,4.276053514E-3
6.289010164E2,4.734201822E-3,6.566796452E-3,-0.000000000E0
6.294051457E2,-2.229656465E-2,-7.177661173E-3,-3.359756200E-3
6.299092752E2,-1.053741761E-2,-1.374445739E-3,-5.039634649E-3
6.304134052E2,3.970621154E-3,1.145371422E-2,2.596175298E-3
6.309175356E2,1.527161920E-3,3.054323897E-4,9.773836471E-3
6.314216661E2,4.734201822E-3,5.192350596E-3,1.527161949E-4
6.319257967E2,5.345067009E-3,-8.246674202E-3,-0.000000000E0
6.324299271E2,1.374445762E-2,6.261364091E-3,-6.719512399E-3
6.329340573E2,-1.542433538E-2,3.054323839E-3,-7.330377586E-3
6.334381873E2,-4.123337101E-3,6.108647678E-3,-4.276053514E-3
6.339423170E2,4.886918236E-3,7.635809947E-3,5.650499370E-3
6.344464463E2,-5.803215317E-3,-7.635809947E-3,5.497782957E-3
6.349505752E2,-4.276053514E-3,3.665188793E-3,1.679878100E-3
6.354547038E2,-3.665188793E-3,5.803215317E-3,-3.970621154E-3
6.359588320E2,-1.160643063E-2,1.527161920E-3,7.635809598E-4
6.364629600E2,-7.635809947E-3,1.328630932E-2,5.192350596E-3
6.369670880E2,1.175914705E-2,-1.527161989E-2,1.679878123E-2
6.374712160E2,-2.306014486E-2,-1.084284950E-2,2.901607659E-3
6.379753442E2,1.023198478E-2,1.863137633E-2,-1.527161920E-3
6.384794730E2,-9.926552884E-3,-5.497782957E-3,-6.108647794E-4
6.389836024E2,2.748891478E-3,-9.773836471E-3,4.734201822E-3
6.394877327E2,3.054323897E-4,-1.970038936E-2,-3.512472380E-3
6.399918637E2,3.512472380E-3,-2.825249545E-2,1.435532235E-2
6.404959956E2,8.552107029E-3,2.290742937E-3,8.857538924E-3
6.410001285E2,2.443459118E-3,3.359756200E-3,-3.359756200E-3
6.415042626E2,1.114828233E-2,-3.054323839E-3,1.206457894E-2
6.420083977E2,7.635809598E-4,-8.552107029E-3,5.650499370E-3
6.425125335E2,5.192350596E-3,7.788525894E-3,-1.527161949E-4
6.430166700E2,-1.191186346E-2,-1.832594397E-3,-1.527161949E-4
6.435208070E2,4.276053514E-3,-3.817904973E-3,-1.679878100E-3
6.440249443E2,3.817904973E-3,2.290742937E-3,3.665188793E-3
6.445290819E2,1.496618707E-2,-1.527161949E-4,7.941242307E-3
6.450332196E2,-1.527161949E-4,-3.176496923E-2,1.328630932E-2
6.455373572E2,1.954767294E-2,3.375028074E-2,-1.603520103E-2
6.460414947E2,-1.007926930E-2,-2.718348242E-2,-1.527161949E-4
6.465456322E2,1.221729559E-3,3.787361458E-2,-2.214384824E-2
6.470497697E2,-1.527161920E-3,6.872228812E-3,-6.108647794E-4
6.475539072E2,5.497782957E-3,-5.497782957E-3,3.665188793E-3
6.480580448E2,-6.261364091E-3,-1.527161920E-3,-1.221729559E-3
6.485621821E2,-3.665188793E-3,-1.298087649E-2,1.527161949E-4
6.490663194E2,3.207040019E-3,5.192350596E-3,4.581485991E-4
6.495704565E2,-1.221729559E-3,-1.832594350E-2,-0.000000000E0
6.500745938E2,1.191186346E-2,2.519817278E-2,-9.621120058E-3
6.505787312E2,-6.719512399E-3,-1.679878100E-3,-0.000000000E0
6.510828686E2,-1.282816008E-2,2.748891478E-3,4.581485991E-4
6.515870057E2,-2.748891478E-3,-6.414080039E-3,3.512472380E-3
6.520911427E2,-9.468403645E-3,-2.290742937E-3,-1.679878100E-3
6.525952793E2,1.679878123E-2,1.649334840E-2,-2.901607659E-3
6.530994159E2,-5.039634649E-3,-7.177661173E-3,6.872228812E-3
6.536035524E2,3.833176568E-2,-0.000000000E0,5.192350596E-3
6.541076889E2,-8.246674202E-3,-7.941242307E-3,2.290742937E-3
6.546118255E2,1.466075517E-2,1.023198478E-2,-1.679878100E-3
6.551159622E2,-2.000582218E-2,-9.162971750E-3,-7.330377586E-3
6.556200989E2,1.985310577E-3,9.926552884E-3,-3.207040019E-3
6.561242357E2,1.053741761E-2,-5.345067009E-3,7.941242307E-3
6.566283725E2,-5.650499370E-3,-1.756236330E-2,1.832594397E-3
6.571325094E2,6.566796452E-3,3.054323839E-3,-1.069013379E-3
6.576366464E2,-3.512472380E-3,-3.207040019E-3,4.123337101E-3
6.581407833E2,1.038470119E-2,1.191186346E-2,-1.007926930E-2
6.586449201E2,-2.748891478E-3,1.038470119E-2,-3.817904973E-3
6.591490565E2,7.635809598E-4,-4.886918236E-3,9.162971750E-3
6.596531924E2,-3.359756200E-3,5.039634649E-3,-5.650499370E-3
6.601573279E2,9.162971983E-4,-3.207040019E-3,4.276053514E-3
6.606614629E2,4.428769462E-3,9.162971750E-3,-9.162971983E-4
6.611655978E2,-1.939495653E-2,8.704823442E-3,-2.290742937E-3
6.616697327E2,1.878409274E-2,-2.107483521E-2,8.552107029E-3
6.621738678E2,-8.399390616E-3,-5.803215317E-3,8.552107029E-3
6.626780029E2,-1.527161920E-3,1.725693047E-2,-5.039634649E-3
6.631821381E2,6.108647794E-4,-1.863137633E-2,9.162971750E-3
6.636862733E2,-6.872228812E-3,-3.970621154E-3,-4.581485991E-4
6.641904084E2,-2.138026757E-3,1.023198478E-2,4.581485875E-3
6.646945434E2,-5.345067009E-3,-3.054323897E-4,7.483093534E-3
6.651986783E2,-1.679878123E-2,-3.191768378E-2,3.222311661E-2
6.657028131E2,-2.306014486E-2,8.704823442E-3,1.771507785E-2
6.662069478E2,2.962694131E-2,3.833176568E-2,3.176496923E-2
6.667110824E2,-8.246674202E-3,1.725693047E-2,6.750056148E-2
6.672152167E2,7.788525894E-3,1.064431891E-1,1.359174121E-2
6.677193510E2,-2.443459071E-2,-9.621120058E-3,6.230820715E-2
6.682234850E2,1.221729559E-3,2.061668597E-2,4.780016840E-2
6.687276188E2,6.719512399E-3,-2.153298259E-2,5.650499091E-2
6.692317525E2,-2.718348242E-2,-1.206457894E-2,5.039634556E-2
6.697358863E2,-2.932151034E-2,1.313359290E-2,3.970621154E-3
6.702400204E2,2.382372692E-2,-2.748891478E-3,-5.039634649E-3
6.707441550E2,1.221729559E-3,-3.145953640E-2,2.138026757E-3
6.712482901E2,-2.397644334E-2,1.053741761E-2,-6.719512399E-3
6.717524254E2,-3.970621154E-3,1.527161920E-3,1.267544460E-2
6.722565611E2,5.192350596E-3,1.374445762E-2,4.886918236E-3
6.727606976E2,-3.512472380E-3,1.053741761E-2,3.970621154E-3
6.732648350E2,-3.054323897E-4,5.039634649E-3,-9.315688163E-3
6.737689729E2,-7.177661173E-3,-6.108647794E-4,-7.635809598E-4
6.742731115E2,9.010255337E-3,1.832594397E-3,1.863137633E-2
6.747772505E2,-6.566796452E-3,3.665188793E-3,-1.618791744E-2
6.752813895E2,8.093958721E-3,2.000582218E-2,5.650499370E-3
6.757855282E2,-8.704823442E-3,-2.932151034E-2,9.315688163E-3
6.762896665E2,-1.084284950E-2,5.650499370E-3,-1.206457894E-2
6.767938042E2,-3.512472380E-3,9.926552884E-3,-5.955931731E-3
6.772979414E2,1.069013379E-3,6.108647678E-3,1.527161989E-2
6.778020787E2,-7.177661173E-3,1.130099874E-2,6.108647678E-3
6.783062165E2,-7.635809947E-3,9.468403645E-3,5.192350596E-3
6.788103550E2,2.138026757E-3,3.817904973E-3,-4.581485875E-3
6.793144942E2,-3.665188793E-3,-1.649334840E-2,-3.817904973E-3
6.798186337E2,-1.084284950E-2,-3.359756200E-3,-7.635809598E-4
6.803227730E2,2.596175298E-3,9.773836471E-3,9.621120058E-3
6.808269120E2,-4.581485875E-3,1.557705179E-2,1.679878100E-3
6.813310509E2,5.955931731E-3,2.382372692E-2,2.748891478E-3
6.818351894E2,-3.512472380E-3,-7.330377586E-3,7.635809947E-3
6.823393274E2,-8.399390616E-3,1.679878100E-3,5.345067009E-3
6.828434649E2,-1.099556591E-2,-1.450803876E-2,8.704823442E-3
6.833476029E2,1.389717404E-2,3.069595434E-2,1.221729536E-2
6.838517415E2,-1.588248461E-2,-8.093958721E-3,1.847865991E-2
6.843558806E2,9.315688163E-3,1.450803876E-2,1.435532235E-2
6.848600203E2,-7.330377586E-3,2.000582218E-2,3.970621154E-3
6.853641606E2,2.748891478E-3,-1.527161949E-4,5.650499370E-3
6.858683018E2,1.023198478E-2,-1.603520103E-2,6.108647678E-3
6.863724437E2,1.359174121E-2,1.221729536E-2,2.748891478E-3
6.868765862E2,-8.552107029E-3,1.343902480E-2,-1.908952370E-2
6.873807289E2,3.665188793E-3,-2.290742937E-3,-3.054323839E-3
6.878848718E2,-1.588248461E-2,-1.954767294E-2,5.803215317E-3
6.883890149E2,1.084284950E-2,-1.221729559E-3,6.414080039E-3
6.888931583E2,4.276053514E-3,4.734201822E-3,7.177661173E-3
6.893973016E2,6.108647678E-3,-2.138026757E-3,9.010255337E-3
6.899014445E2,-1.618791744E-2,3.054323897E-4,7.483093534E-3
6.904055870E2,-2.748891478E-3,3.665188793E-3,2.321286127E-2
6.909097290E2,-1.191186346E-2,-1.450803876E-2,3.298669681E-2
6.914138704E2,-4.581485875E-3,2.290742937E-3,4.046979174E-2
6.919180114E2,-2.397644334E-2,-0.000000000E0,4.627300799E-2
6.924221523E2,-6.872228812E-3,1.985310577E-2,5.451968312E-2
6.929262929E2,-5.345067009E-3,1.771507785E-2,5.100720748E-2
6.934304333E2,7.788525894E-3,5.696314201E-2,4.963276163E-2
6.939345734E2,-2.993237413E-2,4.688387364E-2,3.451386094E-2
6.944387132E2,1.099556591E-2,4.673115537E-2,-9.926552884E-3
6.949428532E2,4.581485875E-3,-2.748891478E-3,-3.466657549E-2
6.954469933E2,1.038470119E-2,-3.573558852E-2,-5.513054505E-2
6.959511340E2,9.162971750E-3,-1.588248461E-2,-6.475166976E-2
6.964552754E2,1.328630932E-2,-2.703076601E-2,-5.131264031E-2
6.969594174E2,3.176496923E-2,-2.687804960E-2,-5.543597788E-2
6.974635600E2,4.505127668E-2,-8.460476995E-2,-8.048143238E-2
6.979677029E2,-5.558869615E-2,-3.588830680E-2,-1.298087649E-2
6.984718466E2,1.160643063E-2,3.252854943E-2,9.010255337E-3
6.989759913E2,7.330377586E-3,2.168569900E-2,1.130099874E-2
6.994801369E2,-7.177661173E-3,1.679878100E-3,8.399390616E-3
6.999842837E2,-2.657261863E-2,-1.832594397E-3,-3.207040019E-3
7.004884314E2,1.145371422E-2,3.436114267E-2,1.374445762E-2
7.009925799E2,-4.581485991E-4,4.886918236E-3,1.298087649E-2
7.014967293E2,-3.512472380E-3,-1.221729559E-3,9.010255337E-3
7.020008802E2,-3.359756200E-3,3.359756246E-2,-7.330377586E-3
7.025050322E2,-7.177661173E-3,-4.886918236E-3,-2.290742937E-3
7.030091848E2,-7.483093534E-3,-3.512472380E-3,-1.084284950E-2
7.035133374E2,2.748891478E-3,1.496618707E-2,-5.345067009E-3
7.040174896E2,-8.552107029E-3,2.901607659E-3,2.748891478E-3
7.045216412E2,1.374445739E-3,-1.374445739E-3,-3.054323897E-4
7.050257922E2,-1.069013379E-3,1.221729536E-2,-5.192350596E-3
7.055299429E2,6.108647794E-4,3.970621154E-3,-3.054323897E-4
7.060340941E2,-7.635809598E-4,1.527161920E-3,2.443459118E-3
7.065382460E2,-5.497782957E-3,-5.345067009E-3,-6.261364091E-3
7.070423989E2,3.665188793E-3,-2.550360374E-2,6.566796452E-3
7.075465530E2,1.695149764E-2,-5.650499370E-3,1.359174121E-2
7.080507087E2,-3.207040019E-3,-1.053741761E-2,-6.108647678E-3
7.085548664E2,-6.414080039E-3,-9.162971983E-4,-1.145371422E-2
7.090590259E2,-1.878409274E-2,1.725693047E-2,-3.252854943E-2
7.095631869E2,1.572976820E-2,1.679878100E-3,1.603520103E-2
7.100673503E2,-9.468403645E-3,-1.282816008E-2,-5.345067009E-3
7.105715159E2,-2.443459118E-3,2.596175298E-3,-3.054323839E-3
7.110756835E2,-3.054323897E-4,8.552107029E-3,3.359756200E-3
7.115798533E2,-1.985310577E-3,3.359756200E-3,3.512472380E-3
7.120840253E2,3.054323897E-4,1.221729559E-3,-7.635809598E-4
7.125881990E2,5.803215317E-3,-6.108647794E-4,1.527161949E-4
7.130923740E2,1.527161949E-4,9.315688163E-3,-3.207040019E-3
7.135965498E2,-3.970621154E-3,-7.635809947E-3,-5.345067009E-3
7.141007259E2,-2.748891478E-3,-3.665188793E-3,-3.512472380E-3
7.146049021E2,2.443459118E-3,9.162971983E-4,3.207040019E-3
7.151090781E2,5.039634649E-3,3.054323839E-3,-4.581485991E-4
7.156132538E2,1.328630932E-2,-1.374445762E-2,3.054323897E-4
7.161174291E2,-1.069013379E-3,1.527161920E-3,-6.108647794E-4
7.166216039E2,-9.162971983E-4,4.276053514E-3,-2.138026757E-3
7.171257785E2,-9.468403645E-3,4.581485991E-4,-6.719512399E-3
7.176299528E2,0.000000000E0,5.955931731E-3,4.428769462E-3
7.181341267E2,1.985310577E-3,4.123337101E-3,2.443459118E-3
7.186383001E2,-2.290742937E-3,1.374445739E-3,-1.069013379E-3
7.191424730E2,-7.330377586E-3,-6.414080039E-3,-4.123337101E-3
7.196466452E2,2.596175298E-3,2.443459118E-3,-1.374445739E-3
7.201508168E2,5.650499370E-3,6.566796452E-3,3.512472380E-3
7.206549878E2,1.389717404E-2,6.719512399E-3,-3.970621154E-3
7.211591582E2,-1.679878100E-3,-1.069013379E-3,-4.581485991E-4
7.216633280E2,-9.315688163E-3,-3.512472380E-3,5.039634649E-3
7.221674971E2,-5.650499370E-3,2.443459118E-3,7.635809598E-4
7.226716658E2,-2.901607659E-3,-3.207040019E-3,-7.024944760E-3
7.231758343E2,3.512472380E-3,4.123337101E-3,1.374445739E-3
7.236800025E2,1.527161949E-4,6.261364091E-3,4.886918236E-3
7.241841704E2,1.527161920E-3,1.527161949E-4,-9.162971983E-4
7.246883379E2,-4.734201822E-3,-5.345067009E-3,-9.162971983E-4
7.251925049E2,2.748891478E-3,4.581485991E-4,-1.069013379E-3
7.256966720E2,-2.748891478E-3,1.267544460E-2,8.399390616E-3
7.262008392E2,-4.276053514E-3,-1.023198478E-2,-8.857538924E-3
7.267050069E2,-5.650499370E-3,-6.414080039E-3,-5.039634649E-3
7.272091752E2,5.650499370E-3,9.926552884E-3,5.039634649E-3
7.277133439E2,3.054323839E-3,-2.443459118E-3,-1.527161920E-3
7.282175130E2,-1.069013379E-3,3.207040019E-3,2.901607659E-3
7.287216822E2,1.221729559E-3,2.901607659E-3,2.596175298E-3
7.292258514E2,-9.773836471E-3,-3.970621154E-3,2.290742937E-3
7.297300206E2,-5.345067009E-3,-3.207040019E-3,-5.192350596E-3
7.302341896E2,-1.175914705E-2,-4.581485875E-3,-3.817904973E-3
7.307383582E2,-3.665188793E-3,3.054323839E-3,2.290742937E-3
7.312425266E2,1.221729559E-3,5.650499370E-3,2.748891478E-3
7.317466946E2,-3.512472380E-3,9.010255337E-3,1.679878100E-3
7.322508621E2,0.000000000E0,-6.414080039E-3,1.832594397E-3
7.327550292E2,-8.552107029E-3,-7.788525894E-3,2.290742937E-3
7.332591957E2,1.679878100E-3,-9.162971750E-3,-8.704823442E-3
7.337633621E2,-1.145371422E-2,1.221729536E-2,-1.038470119E-2
7.342675283E2,9.315688163E-3,-2.489273995E-2,-5.345067009E-3
7.347716944E2,3.207040019E-3,5.345067009E-3,0.000000000E0
7.352758602E2,-7.941242307E-3,-1.221729559E-3,-9.162971983E-4
7.357800256E2,-1.069013402E-2,6.566796452E-3,-5.803215317E-3
7.362841902E2,-2.443459118E-3,-3.817904973E-3,7.635809598E-4
7.367883542E2,-3.665188793E-3,4.581485875E-3,9.315688163E-3
7.372925173E2,-2.901607659E-3,3.817904973E-3,1.939495653E-2
7.377966798E2,-1.481347065E-2,6.261364091E-3,2.290742937E-3
7.383008416E2,-1.527161920E-3,2.764163166E-2,-6.872228812E-3
7.388050028E2,4.123337101E-3,-7.941242307E-3,-1.603520103E-2
7.393091635E2,9.162971983E-4,-7.788525894E-3,-2.550360374E-2
7.398133348E2,1.130099874E-2,-2.412915789E-2,-2.290742937E-3
7.403174847E2,4.886918236E-3,2.412915789E-2,-2.825249545E-2
7.408216451E2,1.221729559E-3,-3.054323897E-4,-1.191186346E-2
7.413258054E2,1.023198478E-2,-2.947422490E-2,6.566796452E-3
7.418299659E2,-4.734201822E-3,-3.619373962E-2,2.321286127E-2
7.423341267E2,-1.466075517E-2,1.038470119E-2,-7.635809598E-4
7.428382880E2,-6.261364091E-3,-1.191186346E-2,1.832594350E-2
7.433424495E2,1.343902480E-2,1.343902480E-2,2.107483521E-2
7.438466113E2,-2.031125315E-2,1.893680729E-2,1.206457894E-2
7.443507734E2,-1.832594350E-2,-1.481347065E-2,1.618791744E-2
7.448549357E2,3.344484791E-2,-4.276053514E-3,4.382954910E-2
7.453590983E2,-1.481347065E-2,2.901607659E-3,4.153880477E-2
7.458632610E2,-2.840521187E-2,2.015853859E-2,3.130681813E-2
7.463674240E2,-9.621120058E-3,4.245510325E-2,2.183841541E-2
7.468715873E2,2.764163166E-2,4.169152305E-2,1.237001177E-2
7.473757511E2,3.665188793E-3,1.389717404E-2,-2.351829410E-2
7.478799153E2,-1.298087649E-2,1.832594350E-2,-8.659008145E-2
7.483840795E2,6.933315098E-2,-6.719512399E-3,-7.208204269E-2
7.488882438E2,5.849030241E-2,-4.581485991E-4,-4.260781780E-2
7.493924081E2,-1.099556591E-2,-2.901607659E-3,-7.192932814E-2
7.498965726E2,2.474002354E-2,-2.932151034E-2,-7.574722916E-2
7.504007373E2,3.054323839E-3,-1.069013379E-3,-7.040216774E-2
7.509049022E2,9.621120058E-3,1.924224012E-2,-8.017600328E-2
7.514090673E2,2.107483521E-2,-1.771507785E-2,-4.703658819E-2
7.519132326E2,3.817904973E-3,-5.009091273E-2,-4.184423760E-2
7.524173980E2,5.039634649E-3,8.857538924E-3,-4.902189970E-2
7.529215630E2,2.458730713E-2,1.603520103E-2,-2.382372692E-2
7.534257277E2,6.261364091E-3,-7.422006875E-2,1.069013402E-2
7.539298922E2,-3.268126398E-2,-4.734201822E-3,2.596175298E-3
7.544340567E2,1.389717404E-2,2.412915789E-2,1.893680729E-2
7.549382209E2,-3.497200832E-2,-2.306014486E-2,4.214967042E-2
7.554423852E2,-1.359174121E-2,-3.924806044E-2,4.138609022E-2
7.559465494E2,-3.054323897E-4,2.336557768E-2,4.932733253E-2
7.564507135E2,-6.108647794E-4,1.466075517E-2,2.932151034E-2
7.569548772E2,3.512472380E-3,4.428769462E-3,3.802633286E-2
7.574590406E2,-1.954767294E-2,1.007926930E-2,3.787361458E-2
7.579632038E2,-1.664606482E-2,9.773836471E-3,1.572976820E-2
7.584673669E2,1.527161920E-3,-1.527161920E-3,2.794706449E-2
7.589715297E2,1.160643063E-2,-1.450803876E-2,3.420842811E-2
7.594756923E2,-7.483093534E-3,1.511890348E-2,2.657261863E-2
7.599798547E2,-5.955931731E-3,1.267544460E-2,2.443459071E-2
7.604840170E2,1.572976820E-2,-1.328630932E-2,1.893680729E-2
7.609881792E2,6.261364091E-3,1.878409274E-2,1.847865991E-2
7.614923411E2,-2.260199748E-2,2.290742937E-3,7.635809947E-3
7.619965030E2,4.123337101E-3,1.420260593E-2,1.695149764E-2
7.625006646E2,1.267544460E-2,4.428769462E-3,3.207040019E-3
7.630048260E2,-3.207040019E-3,4.123337101E-3,4.428769462E-3
7.635089871E2,-3.054323897E-4,-4.581485991E-4,-4.734201822E-3
7.640131483E2,9.621120058E-3,4.428769462E-3,1.359174121E-2
7.645173100E2,-1.817322709E-2,-3.665188793E-3,-1.298087649E-2
7.650214729E2,-7.635809598E-4,-1.679878100E-3,9.162971983E-4
7.655256369E2,7.483093534E-3,1.527161949E-4,5.039634649E-3
7.660298019E2,8.857538924E-3,1.252272818E-2,3.512472380E-3
7.665339679E2,-2.367101051E-2,6.108647794E-4,-5.039634649E-3
7.670381347E2,1.802051067E-2,2.443459118E-3,-4.734201822E-3
7.675423025E2,-2.443459118E-3,1.221729559E-3,6.719512399E-3
7.680464707E2,-1.710421406E-2,-7.941242307E-3,-4.886918236E-3
7.685506390E2,4.428769462E-3,-9.926552884E-3,-3.207040019E-3
7.690548071E2,3.054323897E-4,5.345067009E-3,1.160643063E-2
7.695589749E2,5.039634649E-3,7.177661173E-3,7.635809598E-4
7.700631423E2,-7.788525894E-3,9.315688163E-3,-3.207040019E-3
7.705673092E2,1.374445762E-2,7.177661173E-3,-4.886918236E-3
7.710714757E2,-5.039634649E-3,4.123337101E-3,-3.970621154E-3
7.715756419E2,2.290742937E-3,-3.054323897E-4,-6.566796452E-3
7.720798078E2,-1.282816008E-2,-1.603520103E-2,-1.221729536E-2
7.725839732E2,1.328630932E-2,-1.007926930E-2,-1.832594397E-3
7.730881384E2,7.635809598E-4,8.399390616E-3,9.315688163E-3
7.735923033E2,-1.863137633E-2,-1.679878100E-3,-5.650499370E-3
7.740964678E2,1.939495653E-2,1.588248461E-2,2.138026757E-3
7.746006321E2,1.832594397E-3,5.039634649E-3,-9.162971750E-3
7.751047961E2,-4.581485991E-4,9.621120058E-3,-1.328630932E-2
7.756089598E2,7.024944760E-3,-7.788525894E-3,-2.153298259E-2
7.761131232E2,1.069013379E-3,1.679878100E-3,-1.007926930E-2
7.766172862E2,5.650499370E-3,-5.345067009E-3,-4.886918236E-3
7.771214489E2,9.010255337E-3,-1.374445762E-2,6.108647794E-4
7.776256112E2,-5.192350596E-3,-2.046396956E-2,2.901607659E-3
7.781297730E2,-7.941242307E-3,-1.496618707E-2,1.389717404E-2
7.786339346E2,-1.328630932E-2,-7.177661173E-3,8.246674202E-3
7.791380957E2,-9.315688163E-3,3.817904973E-3,1.237001177E-2
7.796422567E2,-1.145371422E-2,-1.985310577E-3,1.237001177E-2
7.801464175E2,2.336557768E-2,2.825249545E-2,1.450803876E-2
7.806505781E2,2.840521187E-2,-5.039634649E-3,7.024944760E-3
7.811547387E2,-2.611446939E-2,5.192350596E-3,-7.024944760E-3
7.816588992E2,-3.054323897E-4,1.481347065E-2,-2.504545636E-2
7.821630597E2,1.267544460E-2,2.000582218E-2,-1.237001177E-2
7.826672202E2,1.832594350E-2,1.267544460E-2,-2.443459071E-2
7.831713807E2,1.069013402E-2,1.970038936E-2,-4.871646687E-2
7.836755413E2,1.924224012E-2,1.359174121E-2,-5.054906011E-2
7.841797151E2,9.468403645E-3,-3.207040019E-3,-7.177661359E-2
7.846838625E2,2.550360374E-2,-8.552107029E-3,-6.933315098E-2
7.851880231E2,1.832594350E-2,1.527161949E-4,-5.528326333E-2
7.856921836E2,1.237001177E-2,-3.970621154E-3,-7.406735420E-2
7.861963441E2,2.122755162E-2,-8.704823442E-3,-7.101303339E-2
7.867005044E2,1.847865991E-2,-1.511890348E-2,-6.780599058E-2
7.872046649E2,1.343902480E-2,-1.847865991E-2,-7.131846249E-2
7.877088253E2,2.122755162E-2,-1.130099874E-2,-4.382954910E-2
7.882129859E2,1.435532235E-2,-1.908952370E-2,-4.948004708E-2
7.887171465E2,1.496618707E-2,-7.024944760E-3,-4.627300799E-2
7.892213073E2,6.261364091E-3,-1.557705179E-2,-5.100720748E-2
7.897254681E2,2.031125315E-2,-4.276053514E-3,-5.222893879E-2
7.902296290E2,-3.817904973E-3,-9.926552884E-3,-3.665188700E-2
7.907337898E2,1.847865991E-2,-1.237001177E-2,-3.634645417E-2
7.912379504E2,1.343902480E-2,-1.527161920E-3,-3.772090003E-2
7.917421109E2,1.374445739E-3,-2.947422490E-2,-3.145953640E-2
7.922462713E2,2.290742937E-3,-2.611446939E-2,-3.084867075E-2
7.927504317E2,-1.450803876E-2,-3.466657549E-2,-3.207040019E-3
7.932545918E2,4.581485875E-3,-7.177661173E-3,1.160643063E-2
7.937587518E2,-7.483093534E-3,-1.069013379E-3,4.581485875E-3
7.942629115E2,-1.191186346E-2,1.145371422E-2,2.138026757E-3
7.947670711E2,1.450803876E-2,-2.596175298E-3,-6.108647794E-4
7.952712304E2,-1.099556591E-2,-2.290742937E-3,-1.282816008E-2
7.957753896E2,1.985310577E-3,1.450803876E-2,6.261364091E-3
7.962795485E2,-8.399390616E-3,-1.282816008E-2,3.207040019E-3
7.967837073E2,8.399390616E-3,7.635809947E-3,-6.719512399E-3
7.972878659E2,1.069013402E-2,-3.970621154E-3,1.374445739E-3
7.977920244E2,-9.010255337E-3,-7.941242307E-3,-6.872228812E-3
7.982961828E2,7.483093534E-3,-1.374445762E-2,1.221729559E-3
7.988003413E2,-1.130099874E-2,1.527161949E-4,-2.443459118E-3
7.993045000E2,-6.566796452E-3,-1.267544460E-2,-1.679878100E-3
7.998086591E2,-8.552107029E-3,1.832594397E-3,1.572976820E-2
8.003128188E2,1.114828233E-2,3.161225095E-2,1.679878100E-3
8.008169794E2,-2.412915789E-2,1.298087649E-2,1.221729559E-3
8.013211412E2,7.635809947E-3,-5.192350596E-3,8.704823442E-3
8.018253040E2,-1.603520103E-2,1.191186346E-2,-1.725693047E-2
8.023294682E2,2.138026757E-3,-2.596175298E-3,-6.719512399E-3
8.028336336E2,2.138026757E-3,-1.527161920E-3,-4.428769462E-3
8.033378000E2,2.199113183E-2,-1.527161920E-3,8.246674202E-3
8.038419670E2,-4.581485875E-3,-1.572976820E-2,2.443459118E-3
8.043461342E2,-1.328630932E-2,1.679878123E-2,6.108647794E-4
8.048503015E2,-2.138026804E-2,-1.496618707E-2,-1.511890348E-2
8.053544690E2,1.970038936E-2,1.420260593E-2,2.901607659E-3
8.058586373E2,-9.162971750E-3,-1.634063199E-2,-9.621120058E-3
8.063628065E2,4.963276163E-2,1.389717404E-2,1.557705179E-2
8.068669766E2,1.206457894E-2,-4.581485991E-4,-6.108647794E-4
8.073711476E2,3.329212964E-2,-2.290742937E-3,9.926552884E-3
8.078753193E2,-1.175914705E-2,-1.557705179E-2,-1.221729559E-3
8.083794915E2,-1.374445739E-3,1.221729536E-2,3.359756200E-3
8.088836639E2,-3.268126398E-2,-2.107483521E-2,-1.924224012E-2
8.093878364E2,3.970621154E-3,1.145371422E-2,1.237001177E-2
8.098920088E2,1.145371422E-2,1.221729559E-3,1.130099874E-2
8.103961813E2,-1.282816008E-2,9.315688163E-3,7.635809598E-4
8.109003538E2,5.955931731E-3,6.872228812E-3,1.527161949E-4
8.114045262E2,-4.428769462E-3,1.527161949E-4,-6.108647678E-3
8.119086986E2,-4.581485875E-3,7.483093534E-3,4.734201822E-3
8.124128709E2,7.483093534E-3,-1.160643063E-2,-5.497782957E-3
8.129170430E2,-8.704823442E-3,-1.985310577E-3,-4.276053514E-3
8.134212154E2,-1.175914705E-2,-1.084284950E-2,-2.901607659E-3
8.139253884E2,1.786779426E-2,2.748891478E-3,1.328630932E-2
8.144295619E2,2.871064469E-2,-8.246674202E-3,-3.191768378E-2
8.149337356E2,-8.552107029E-3,-1.466075517E-2,1.007926930E-2
8.154379096E2,3.817904973E-3,-2.596175298E-3,2.855792828E-2
8.159420834E2,-6.872228812E-3,1.679878100E-3,2.932151034E-2
8.164462572E2,-4.276053607E-2,-1.695149764E-2,1.817322709E-2
8.169504307E2,9.162971983E-4,-6.414080039E-3,2.076940238E-2
8.174546041E2,-9.621120058E-3,2.748891478E-3,2.107483521E-2
8.179587773E2,-1.404988952E-2,4.596757516E-2,4.260781780E-2
8.184629503E2,-2.046396956E-2,1.069013379E-3,4.382954910E-2
8.189671231E2,-1.038470119E-2,4.046979174E-2,3.359756246E-2
8.194712959E2,-5.650499370E-3,3.634645417E-2,3.619373962E-2
8.199754686E2,-1.267544460E-2,3.497200832E-2,4.108065739E-2
8.204796412E2,-2.993237413E-2,-2.748891525E-2,5.558869615E-2
8.209838137E2,-2.550360374E-2,9.010255337E-3,6.230820715E-2
8.214879858E2,-1.267544460E-2,7.483093534E-3,5.726857483E-2
8.219921575E2,-1.359174121E-2,1.496618707E-2,5.833758786E-2
8.224963287E2,-1.527161989E-2,9.162971983E-4,5.039634556E-2
8.230004993E2,6.261364091E-3,5.497782957E-3,5.009091273E-2
8.235046694E2,-3.695731983E-2,-2.122755162E-2,3.756818548E-2
8.240088390E2,6.108647678E-3,-1.145371422E-2,4.841103405E-2
8.245130081E2,-3.680460155E-2,-1.450803876E-2,2.855792828E-2
8.250171770E2,-5.345067009E-3,2.168569900E-2,1.450803876E-2
8.255213457E2,2.214384824E-2,1.649334840E-2,8.246674202E-3
8.260255146E2,-2.412915789E-2,1.084284950E-2,9.315688163E-3
8.265296839E2,2.901607659E-3,7.941242307E-3,2.138026757E-3
8.270338538E2,2.840521187E-2,5.345067009E-3,-5.039634649E-3
8.275380245E2,-1.679878123E-2,6.872228812E-3,-9.010255337E-3
8.280421959E2,-1.404988952E-2,-1.130099874E-2,1.221729559E-3
8.285463680E2,-2.901607659E-3,-1.572976820E-2,-2.443459118E-3
8.290505405E2,2.260199748E-2,4.276053514E-3,1.237001177E-2
8.295547135E2,-6.872228812E-3,5.955931731E-3,8.093958721E-3
8.300588865E2,-1.099556591E-2,1.007926930E-2,-1.527161920E-3
8.305630595E2,6.719512399E-3,-7.788525894E-3,-1.527161920E-3
8.310672325E2,9.621120058E-3,6.414080039E-3,9.010255337E-3
8.315714053E2,-1.756236330E-2,5.650499370E-3,-1.970038936E-2
8.320755781E2,7.177661173E-3,-5.345067009E-3,2.901607659E-3
8.325797506E2,-2.748891478E-3,5.497782957E-3,7.788525894E-3
8.330839229E2,1.802051067E-2,2.748891525E-2,-2.153298259E-2
8.335880948E2,2.871064469E-2,3.878991306E-2,-3.130681813E-2
8.340922666E2,-9.010255337E-3,9.315688163E-3,-3.359756246E-2
8.345964381E2,2.153298259E-2,-2.015853859E-2,-2.794706449E-2
8.351006092E2,-1.282816008E-2,-1.832594397E-3,-4.535670951E-2
8.356047799E2,2.107483521E-2,-9.621120058E-3,-8.399390616E-3
8.361089504E2,-2.367101051E-2,-3.970621154E-2,9.162971750E-3
8.366131205E2,-2.428187430E-2,-4.214967042E-2,2.412915789E-2
8.371172905E2,1.603520103E-2,-3.451386094E-2,5.894844979E-2
8.376214603E2,-4.138609022E-2,-1.557705179E-2,1.572976820E-2
8.381256299E2,2.214384824E-2,4.398226365E-2,3.680460155E-2
8.386297994E2,-2.825249545E-2,-1.496618707E-2,2.886336111E-2
8.391339688E2,-1.053741761E-2,3.054323897E-4,2.871064469E-2
8.396381379E2,1.221729559E-3,1.924224012E-2,2.076940238E-2
8.401423068E2,-1.542433538E-2,2.061668597E-2,3.420842811E-2
8.406464756E2,-3.436114267E-2,-1.679878123E-2,7.483093534E-3
8.411506444E2,3.161225095E-2,3.390299529E-2,1.649334840E-2
8.416548134E2,-9.773836471E-3,2.015853859E-2,9.315688163E-3
8.421589825E2,1.328630932E-2,3.252854943E-2,-2.138026804E-2
8.426631519E2,1.374445762E-2,4.046979174E-2,-3.008509055E-2
8.431673215E2,1.908952370E-2,1.114828233E-2,-4.367683083E-2
8.436714911E2,-3.359756200E-3,-1.343902480E-2,-4.276053607E-2
8.441756608E2,6.108647794E-4,-7.177661173E-3,-1.221729536E-2
8.446798304E2,-4.581485991E-4,-2.962694131E-2,-1.466075517E-2
8.451839999E2,-2.412915789E-2,1.832594397E-3,1.466075517E-2
8.456881694E2,7.024944760E-3,-4.382954910E-2,1.206457894E-2
8.461923388E2,-1.527161989E-2,2.183841541E-2,1.237001177E-2
8.466965081E2,-4.581485875E-3,-5.192350596E-3,-9.468403645E-3
8.472006774E2,1.328630932E-2,-1.832594397E-3,2.901607659E-3
8.477048466E2,7.635809598E-4,2.168569900E-2,-1.374445739E-3
8.482090160E2,-2.138026757E-3,1.420260593E-2,-8.093958721E-3
8.487131855E2,2.932151034E-2,-2.748891478E-3,6.261364091E-3
8.492173550E2,-4.581485875E-3,-1.924224012E-2,-6.719512399E-3
8.497215245E2,-9.773836471E-3,6.261364091E-3,3.054323839E-3
8.502256937E2,-4.581485875E-3,-1.160643063E-2,-1.710421406E-2
8.507298625E2,5.039634649E-3,6.566796452E-3,1.038470119E-2
8.512340311E2,4.276053514E-3,-1.618791744E-2,4.886918236E-3
8.517381996E2,1.007926930E-2,1.511890348E-2,3.512472380E-3
8.522423680E2,-1.038470119E-2,0.000000000E0,-5.955931731E-3
8.527465362E2,-8.399390616E-3,1.527161920E-3,3.359756200E-3
8.532507042E2,-9.010255337E-3,-6.719512399E-3,-3.512472380E-3
8.537548718E2,2.138026757E-3,-3.054323897E-4,-8.093958721E-3
8.542590391E2,6.719512399E-3,-7.635809947E-3,9.010255337E-3
8.547632061E2,1.084284950E-2,4.123337101E-3,1.145371422E-2
8.552673728E2,4.886918236E-3,3.054323839E-3,3.207040019E-3
8.557715394E2,1.069013402E-2,-3.512472380E-3,2.443459118E-3
8.562757058E2,4.123337101E-3,-0.000000000E0,3.054323839E-3
8.567798722E2,-1.145371422E-2,-5.345067009E-3,-9.621120058E-3
8.572840386E2,-7.024944760E-3,5.345067009E-3,-3.207040019E-3
8.577882056E2,2.596175298E-3,9.468403645E-3,-3.665188793E-3
8.582923730E2,7.788525894E-3,3.207040019E-3,4.886918236E-3
8.587965409E2,4.734201822E-3,2.290742937E-3,1.069013379E-3
8.593007093E2,-4.123337101E-3,-1.527161920E-3,-3.359756200E-3
8.598048781E2,7.177661173E-3,-4.581485991E-4,-5.192350596E-3
8.603090473E2,-4.734201822E-3,-6.566796452E-3,-9.926552884E-3
8.608132167E2,9.621120058E-3,-3.512472380E-3,-9.162971983E-4
8.613173862E2,3.817904973E-3,-8.093958721E-3,6.566796452E-3
8.618215562E2,-6.261364091E-3,3.512472380E-3,6.566796452E-3
8.623257269E2,-6.108647678E-3,1.679878100E-3,-3.054323839E-3
8.628298984E2,-2.748891478E-3,9.162971983E-4,1.527161920E-3
8.633340708E2,-1.206457894E-2,-1.160643063E-2,-1.191186346E-2
8.638382437E2,1.007926930E-2,2.107483521E-2,1.252272818E-2
8.643424170E2,2.901607659E-3,-8.552107029E-3,-1.679878100E-3
8.648465906E2,-7.635809598E-4,3.054323897E-4,7.788525894E-3
8.653507641E2,2.748891478E-3,2.748891478E-3,-1.069013379E-3
8.658549375E2,-9.162971983E-4,2.901607659E-3,-2.596175298E-3
8.663591106E2,-1.817322709E-2,-0.000000000E0,-7.788525894E-3
8.668632834E2,7.330377586E-3,6.566796452E-3,7.635809947E-3
8.673674561E2,-5.192350596E-3,-3.359756200E-3,-2.901607659E-3
8.678716284E2,9.773836471E-3,-1.527161949E-4,2.596175298E-3
8.683758004E2,1.069013379E-3,-3.054323897E-4,-6.872228812E-3
8.688799720E2,-1.603520103E-2,-4.734201822E-3,-4.428769462E-3
8.693841433E2,-4.581485875E-3,1.374445739E-3,7.635809947E-3
8.698883143E2,-1.114828233E-2,4.276053514E-3,-1.114828233E-2
8.703924850E2,4.581485991E-4,8.704823442E-3,5.192350596E-3
8.708966555E2,1.679878123E-2,2.596175298E-3,-9.010255337E-3
8.714008256E2,2.351829410E-2,-8.857538924E-3,1.404988952E-2
8.719049953E2,2.244928107E-2,-1.099556591E-2,-1.679878100E-3
8.724091645E2,-1.832594397E-3,1.679878100E-3,-8.399390616E-3
8.729133333E2,1.679878123E-2,-5.345067009E-3,1.404988952E-2
8.734175016E2,-1.924224012E-2,3.512472380E-3,-6.566796452E-3
8.739216694E2,-1.985310577E-2,-3.817904973E-3,2.596175298E-3
8.744258364E2,7.483093534E-3,9.773836471E-3,4.276053514E-3
8.749300029E2,-2.000582218E-2,-2.748891478E-3,-3.512472380E-3
8.754341692E2,5.955931731E-3,-5.497782957E-3,4.886918236E-3
8.759383358E2,9.926552884E-3,1.985310577E-3,-1.374445739E-3
8.764425027E2,-5.345067009E-3,9.621120058E-3,7.941242307E-3
8.769466700E2,-8.093958721E-3,-7.177661173E-3,3.207040019E-3
8.774508377E2,1.634063199E-2,1.038470119E-2,-4.581485991E-4
8.779550057E2,-2.275471389E-2,-1.069013379E-3,-1.160643063E-2
8.784591741E2,-1.145371422E-2,-1.069013402E-2,-8.399390616E-3
8.789633432E2,2.474002354E-2,3.054323897E-4,3.207040019E-3
8.794675130E2,-3.054323839E-3,5.955931731E-3,4.123337101E-3
8.799716835E2,1.863137633E-2,1.679878100E-3,7.024944760E-3
8.804758544E2,-5.345067009E-3,-3.741546720E-2,1.786779426E-2
8.809800259E2,2.565632015E-2,1.175914705E-2,-1.679878123E-2
8.814841982E2,-6.872228812E-3,2.596175298E-3,2.443459118E-3
8.819883718E2,1.511890348E-2,4.276053514E-3,6.414080039E-3
8.824925467E2,-3.176496923E-2,-0.000000000E0,-1.053741761E-2
8.829967227E2,1.542433538E-2,4.276053514E-3,1.679878100E-3
8.835008995E2,2.641990222E-2,1.435532235E-2,-1.466075517E-2
8.840050767E2,3.649916872E-2,1.313359290E-2,-1.374445739E-3
8.845092537E2,-1.985310577E-2,6.566796452E-3,-2.428187430E-2
8.850134304E2,2.657261863E-2,1.511890348E-2,-1.725693047E-2
8.855176069E2,-9.773836471E-3,-6.566796452E-3,-3.512472380E-3
8.860217833E2,-7.788525894E-3,-1.985310577E-3,-1.603520103E-2
8.865259596E2,3.359756200E-3,-7.788525894E-3,6.872228812E-3
8.870301358E2,-3.023780696E-2,8.857538924E-3,-1.404988952E-2
8.875343119E2,-1.664606482E-2,-1.771507785E-2,-2.626718581E-2
8.880384882E2,2.932151034E-2,1.572976820E-2,-1.527161920E-3
8.885426648E2,1.908952370E-2,-4.108065739E-2,2.153298259E-2
8.890468418E2,3.985892609E-2,-5.283980444E-2,-2.825249545E-2
8.895510192E2,-1.359174121E-2,7.742711157E-2,-1.939495653E-2
8.900551970E2,2.565632015E-2,-3.420842811E-2,2.626718581E-2
8.905593753E2,-2.275471389E-2,-2.290742844E-2,-3.084867075E-2
8.910635546E2,-2.748891525E-2,-1.649334840E-2,6.261364091E-3
8.915677351E2,-0.000000000E0,5.803215317E-3,1.191186346E-2
8.920719168E2,-2.244928107E-2,-1.435532235E-2,1.282816008E-2
8.925760998E2,3.665188793E-3,4.963276163E-2,4.627300799E-2
8.930802834E2,-2.962694131E-2,-3.665188700E-2,3.665188700E-2
8.935844675E2,-2.565632015E-2,6.414080039E-3,3.023780696E-2
8.940886516E2,-5.955931731E-3,6.566796452E-3,1.511890348E-2
8.945928358E2,2.962694131E-2,1.572976820E-2,1.695149764E-2
8.950970196E2,-2.611446939E-2,-8.704823442E-3,1.817322709E-2
8.956012029E2,-7.177661173E-3,1.191186346E-2,7.941242307E-3
8.961053858E2,9.162971983E-4,-5.955931731E-3,1.389717404E-2
8.966095684E2,3.817904973E-3,2.183841541E-2,1.023198478E-2
8.971137511E2,-9.926552884E-3,6.261364091E-3,-7.330377586E-3
8.976179340E2,8.093958721E-3,2.046396956E-2,-2.138026757E-3
8.981221169E2,6.872228812E-3,3.405570984E-2,-3.344484791E-2
8.986262998E2,2.046396956E-2,6.566796452E-3,-3.084867075E-2
8.991304825E2,1.130099874E-2,8.093958721E-3,-3.848448023E-2
8.996346650E2,6.108647678E-3,6.414080039E-3,-5.268708616E-2
9.001388472E2,2.015853859E-2,-1.970038936E-2,-2.565632015E-2
9.006430382E2,0.000000000E0,-5.192350596E-3,-3.100138716E-2
9.011472105E2,9.162971750E-3,-1.160643063E-2,-3.145953640E-2
9.016513913E2,1.359174121E-2,-5.039634649E-3,-2.153298259E-2
9.021555717E2,7.330377586E-3,-1.863137633E-2,-1.740964688E-2
9.026597518E2,0.000000000E0,-1.832594397E-3,-2.825249545E-2
9.031639317E2,7.788525894E-3,-1.191186346E-2,-2.107483521E-2
9.036681115E2,6.108647794E-4,7.483093534E-3,-1.572976820E-2
9.041722912E2,8.704823442E-3,-8.399390616E-3,-1.527161989E-2
9.046764705E2,5.039634649E-3,-6.719512399E-3,-1.420260593E-2
9.051806500E2,1.069013379E-3,-1.588248461E-2,-5.192350596E-3
9.056848301E2,-2.748891478E-3,-6.872228812E-3,1.374445739E-3
9.061890112E2,-8.093958721E-3,-5.803215317E-3,-1.053741761E-2
9.066931932E2,1.679878100E-3,7.177661173E-3,-7.635809598E-4
9.071973754E2,1.298087649E-2,1.542433538E-2,-1.267544460E-2
9.077015577E2,1.481347065E-2,4.276053514E-3,1.679878100E-3
9.082057400E2,-3.054323897E-4,-8.857538924E-3,4.581485875E-3
9.087099221E2,-7.788525894E-3,-5.192350596E-3,-4.123337101E-3
9.092141037E2,-2.901607659E-3,-4.276053514E-3,1.679878100E-3
9.097182851E2,1.328630932E-2,4.886918236E-3,1.374445739E-3
9.102224665E2,7.024944760E-3,1.114828233E-2,1.527161920E-3
9.107266484E2,1.237001177E-2,1.282816008E-2,2.748891478E-3
9.112308306E2,-3.817904973E-3,6.108647794E-4,-1.527161949E-4
9.117350129E2,-3.970621154E-3,1.221729559E-3,-2.901607659E-3
9.122391952E2,-1.374445762E-2,-2.138026757E-3,-8.857538924E-3
9.127433770E2,3.207040019E-3,-4.581485875E-3,5.650499370E-3
9.132475584E2,9.621120058E-3,3.359756200E-3,4.428769462E-3
9.137517397E2,-5.192350596E-3,3.145953640E-2,2.901607659E-3
9.142559207E2,-7.177661173E-3,-7.177661173E-3,-6.108647678E-3
9.147601016E2,7.788525894E-3,-2.596175298E-2,-1.069013379E-3
9.152642827E2,-6.261364091E-3,5.345067009E-3,-3.054323897E-4
9.157684643E2,-7.635809598E-4,-3.054323839E-3,-7.177661173E-3
9.162726465E2,-2.901607659E-3,1.313359290E-2,2.290742937E-3
9.167768291E2,2.443459118E-3,-1.130099874E-2,2.107483521E-2
9.172810124E2,-9.468403645E-3,-7.788525894E-3,-4.428769462E-3
9.177851961E2,1.389717404E-2,1.221729559E-3,5.345067009E-3
9.182893801E2,-1.023198478E-2,2.550360374E-2,-2.290742937E-3
9.187935641E2,-1.069013402E-2,-3.970621154E-3,-7.941242307E-3
9.192977482E2,-1.069013379E-3,-6.719512399E-3,6.414080039E-3
9.198019319E2,1.175914705E-2,-7.024944760E-3,3.207040019E-3
9.203061152E2,-8.246674202E-3,8.704823442E-3,-1.069013402E-2
9.208102982E2,-3.054323897E-4,1.328630932E-2,6.719512399E-3
9.213144807E2,2.290742937E-3,-3.207040019E-3,-1.175914705E-2
9.218186628E2,-1.160643063E-2,-3.207040019E-3,-1.114828233E-2
9.223228446E2,-1.527161920E-3,2.138026757E-3,1.252272818E-2
9.228270260E2,-1.069013402E-2,2.138026757E-3,-5.497782957E-3
9.233312069E2,-3.054323839E-3,6.261364091E-3,6.261364091E-3
9.238353876E2,-2.947422490E-2,9.162971983E-4,-1.481347065E-2
9.243395682E2,1.237001177E-2,-2.901607659E-3,2.596175298E-3
9.248437489E2,-3.359756200E-3,2.596175298E-3,-4.276053514E-3
9.253479304E2,1.328630932E-2,-1.527161920E-3,1.221729559E-3
9.258521127E2,2.412915789E-2,-5.192350596E-3,6.261364091E-3
9.263562958E2,1.908952370E-2,-2.580903657E-2,8.093958721E-3
9.268604795E2,2.748891525E-2,8.399390616E-3,5.497782957E-3
9.273646639E2,1.145371422E-2,8.552107029E-3,7.941242307E-3
9.278688489E2,-1.374445762E-2,-7.635809598E-4,-3.054323839E-3
9.283730343E2,-1.496618707E-2,-1.206457894E-2,-2.748891478E-3
9.288772198E2,9.162971983E-4,-7.635809598E-4,1.069013379E-3
9.293814051E2,-8.093958721E-3,-5.345067009E-3,-2.092211880E-2
9.298855903E2,-1.527161920E-3,-8.399390616E-3,-1.527161949E-4
9.303897752E2,1.679878100E-3,-2.443459118E-3,3.207040019E-3
9.308939601E2,-9.010255337E-3,2.901607659E-3,1.221729559E-3
9.313981450E2,-1.252272818E-2,4.581485875E-3,-1.985310577E-3
9.319023298E2,3.665188793E-3,-4.276053514E-3,-1.221729559E-3
9.324065143E2,-5.955931731E-3,-4.581485875E-3,-1.069013402E-2
9.329107116E2,-1.374445739E-3,2.748891478E-3,4.276053514E-3
9.334148820E2,-8.857538924E-3,-4.734201822E-3,-5.039634649E-3
9.339190647E2,7.788525894E-3,7.941242307E-3,1.649334840E-2
9.344232467E2,1.038470119E-2,-8.704823442E-3,-2.138026757E-3
9.349274279E2,1.527161989E-2,-3.512472380E-3,6.719512399E-3
9.354316086E2,-1.695149764E-2,-1.053741761E-2,-1.420260593E-2
9.359357889E2,0.000000000E0,8.246674202E-3,3.054323897E-4
9.364399692E2,2.748891478E-3,-4.428769462E-3,3.970621154E-3
9.369441499E2,1.527161920E-3,-3.512472380E-3,1.160643063E-2
9.374483313E2,-1.527161949E-4,-3.665188793E-3,1.374445739E-3
9.379525137E2,9.621120058E-3,1.435532235E-2,1.374445739E-3
9.384566976E2,-2.229656465E-2,1.527161949E-4,-8.552107029E-3
9.389608834E2,2.733619884E-2,-8.093958721E-3,1.679878100E-3
9.394650713E2,2.748891478E-3,1.481347065E-2,-3.817904973E-3
9.399692610E2,-5.497782957E-3,-3.665188793E-3,5.803215317E-3
9.404734548E2,7.330377586E-3,-5.345067009E-3,1.985310577E-3
9.409776445E2,-2.168569900E-2,3.512472380E-3,-1.679878123E-2
9.414818384E2,1.786779426E-2,5.039634649E-3,1.527161989E-2
9.419860337E2,-1.847865991E-2,6.261364091E-3,-6.566796452E-3
9.424902302E2,2.489273995E-2,-2.748891478E-3,1.404988952E-2
9.429944278E2,-1.908952370E-2,-6.719512399E-3,-1.099556591E-2
9.434986267E2,4.886918236E-3,6.414080039E-3,6.566796452E-3
9.440028263E2,-1.084284950E-2,8.857538924E-3,-5.039634649E-3
9.445070269E2,1.099556591E-2,-4.734201822E-3,7.635809947E-3
9.450112282E2,-2.901607659E-3,-2.138026757E-3,-1.985310577E-3
9.455154300E2,-4.123337101E-3,-4.581485991E-4,3.054323897E-4
9.460196324E2,-8.399390616E-3,-1.511890348E-2,-3.817904973E-3
9.465238353E2,1.527161949E-4,5.192350596E-3,-9.162971983E-4
9.470280385E2,1.191186346E-2,1.114828233E-2,-6.872228812E-3
9.475322418E2,1.038470119E-2,1.603520103E-2,9.926552884E-3
9.480364452E2,-6.108647678E-3,-1.359174121E-2,3.207040019E-3
9.485406485E2,-7.635809598E-4,8.704823442E-3,7.635809598E-4
9.490448521E2,3.970621154E-3,-7.635809598E-4,2.290742937E-3
9.495490555E2,1.527161949E-4,9.315688163E-3,-7.330377586E-3
9.500532589E2,7.330377586E-3,-9.162971750E-3,-3.054323839E-3
9.505574617E2,-3.817904973E-3,-4.428769462E-3,2.290742937E-3
9.510616635E2,-2.138026804E-2,-1.252272818E-2,-6.414080039E-3
9.515658645E2,-2.748891478E-3,2.290742937E-3,6.566796452E-3
9.520700643E2,6.108647678E-3,1.527161949E-4,4.581485875E-3
9.525742740E2,3.665188793E-3,1.237001177E-2,1.252272818E-2
9.530784610E2,-9.010255337E-3,1.832594397E-3,-1.527161920E-3
9.535826581E2,-8.246674202E-3,-1.664606482E-2,-1.985310577E-3
9.540868544E2,-2.443459118E-3,7.177661173E-3,5.650499370E-3
9.545910500E2,-6.108647794E-4,-4.276053514E-3,1.023198478E-2
9.550952450E2,-1.404988952E-2,-7.941242307E-3,9.315688163E-3
9.555994392E2,-6.566796452E-3,-1.237001177E-2,2.153298259E-2
9.561036327E2,-1.328630932E-2,-2.687804960E-2,4.062250629E-2
9.566078254E2,-2.244928107E-2,3.054323897E-4,4.214967042E-2
9.571120175E2,-9.926552884E-3,1.038470119E-2,5.787943676E-2
9.576162090E2,-3.558287397E-2,-2.290742937E-3,5.161807314E-2
9.581203997E2,-5.803215317E-3,1.282816008E-2,5.131264031E-2
9.586245897E2,-7.635809947E-3,8.857538924E-3,1.450803876E-2
9.591287793E2,3.405570984E-2,2.550360374E-2,-2.122755162E-2
9.596329682E2,1.802051067E-2,2.168569900E-2,-5.681042373E-2
9.601371630E2,6.108647678E-3,-3.726275265E-2,-7.925970852E-2
9.606413443E2,-2.244928107E-2,-2.596175298E-2,-4.291325063E-2
9.611455312E2,4.367683083E-2,-9.162971750E-3,-4.810560122E-2
9.616497171E2,2.871064469E-2,-7.788525894E-3,-4.245510325E-2
9.621539021E2,-5.955931731E-3,-3.375028074E-2,-2.229656465E-2
9.626580862E2,-4.276053514E-3,-1.756236330E-2,-4.123337101E-3
9.631622694E2,3.970621154E-3,1.053741761E-2,1.221729559E-3
9.636664519E2,1.160643063E-2,1.191186346E-2,2.351829410E-2
9.641706335E2,-1.221729536E-2,4.428769462E-3,-4.734201822E-3
9.646748146E2,-7.635809598E-4,3.100138716E-2,3.054323897E-4
9.651789948E2,-7.635809947E-3,1.084284950E-2,7.635809598E-4
9.656831743E2,-8.857538924E-3,-1.160643063E-2,-6.414080039E-3
9.661873530E2,-1.069013379E-3,5.039634649E-3,2.290742937E-3
9.666915308E2,1.374445739E-3,4.886918236E-3,1.023198478E-2
9.671957078E2,1.221729559E-3,6.108647794E-4,1.374445739E-3
9.676998841E2,-3.481929377E-2,4.428769648E-2,-6.200277433E-2
9.682040597E2,1.435532235E-2,-4.291325063E-2,6.108647678E-3
9.687082347E2,1.527161949E-4,-5.650499370E-3,-0.000000000E0
9.692124090E2,-5.192350596E-3,-2.290742937E-3,-3.512472380E-3
9.697165827E2,-1.527161920E-3,-4.581485991E-4,-4.581485875E-3
9.702207557E2,-1.527161920E-3,-1.069013379E-3,-1.374445739E-3
9.707249283E2,3.665188793E-3,1.374445739E-3,5.192350596E-3
9.712291005E2,1.679878100E-3,2.596175298E-3,3.207040019E-3
9.717332723E2,-3.054323897E-4,-1.069013379E-3,1.374445739E-3
9.722374438E2,1.069013379E-3,4.581485991E-4,1.527161920E-3
9.727416150E2,-3.054323839E-3,-3.054323897E-4,-3.970621154E-3
9.732457858E2,-1.069013379E-3,-1.985310577E-3,-4.428769462E-3
9.737499565E2,-1.130099874E-2,-2.061668597E-2,-1.298087649E-2
9.742541266E2,-6.108647794E-4,4.581485991E-4,1.832594397E-3
9.747582964E2,9.010255337E-3,5.650499370E-3,1.023198478E-2
9.752624657E2,6.719512399E-3,4.428769462E-3,7.024944760E-3
9.757666347E2,2.901607659E-3,3.054323897E-4,1.832594397E-3
9.762708034E2,-9.162971983E-4,0.000000000E0,-9.162971983E-4
9.767749718E2,4.123337101E-3,-7.635809598E-4,-1.374445739E-3
9.772791397E2,-1.069013379E-3,1.221729559E-3,-6.108647794E-4
9.777833076E2,-1.527161920E-3,1.985310577E-3,1.527161949E-4
9.782874753E2,-2.443459118E-3,1.069013379E-3,1.679878100E-3
9.787916429E2,-4.123337101E-3,1.221729559E-3,-1.527161949E-4
9.792958104E2,0.000000000E0,-1.374445739E-3,-1.832594397E-3
9.797999778E2,-9.162971983E-4,1.069013379E-3,1.069013379E-3
9.803041447E2,1.679878100E-3,3.359756200E-3,1.527161920E-3
9.808083114E2,4.581485991E-4,2.596175298E-3,3.054323897E-4
9.813124776E2,-3.665188793E-3,1.374445739E-3,-7.635809598E-4
9.818166435E2,1.527161949E-4,-2.138026757E-3,-3.054323897E-4
9.823208094E2,3.054323897E-4,1.221729559E-3,1.527161949E-4
9.828249752E2,2.138026757E-3,-7.635809947E-3,1.527161949E-4
9.833291409E2,2.748891478E-3,-1.313359290E-2,1.832594397E-3
9.838333065E2,1.374445739E-3,-2.901607659E-3,2.596175298E-3
9.843374720E2,-2.290742937E-3,8.093958721E-3,-2.290742937E-3
9.848416372E2,-1.069013379E-3,-1.374445739E-3,3.054323897E-4
9.853458022E2,-7.941242307E-3,1.374445739E-3,-1.053741761E-2
9.858499670E2,4.581485875E-3,-1.298087649E-2,1.985310577E-3
9.863541316E2,1.985310577E-3,1.221729559E-3,2.290742937E-3
9.868582960E2,1.527161949E-4,1.069013379E-3,2.596175298E-3
9.873624604E2,-4.581485991E-4,4.276053514E-3,4.123337101E-3
9.878666247E2,-2.748891478E-3,-4.581485991E-4,6.108647678E-3
9.883707891E2,-4.581485875E-3,-5.803215317E-3,4.123337101E-3
9.888749534E2,-2.290742937E-3,6.108647794E-4,5.039634649E-3
9.893791179E2,-3.817904973E-3,4.734201822E-3,7.788525894E-3
9.898832823E2,-9.621120058E-3,9.468403645E-3,-1.527161949E-4
9.903874466E2,1.679878100E-3,-3.359756200E-3,1.420260593E-2
9.908916108E2,-2.443459118E-3,-8.857538924E-3,1.023198478E-2
9.913957747E2,-7.330377586E-3,-4.886918236E-3,3.054323839E-3
9.918999383E2,-2.901607659E-3,1.527161920E-3,-1.527161949E-4
9.924041016E2,4.581485875E-3,1.237001177E-2,1.069013379E-3
9.929082646E2,8.399390616E-3,3.512472380E-3,-5.497782957E-3
9.934124272E2,3.512472380E-3,-1.069013379E-3,-2.947422490E-2
9.939165892E2,-6.872228812E-3,1.832594397E-3,-5.161807314E-2
9.944207506E2,2.840521187E-2,-1.802051067E-2,-3.390299529E-2
9.949249114E2,1.160643063E-2,1.832594397E-3,-4.917461425E-2
9.954290717E2,1.786779426E-2,-1.481347065E-2,-3.130681813E-2
9.959332319E2,-1.985310577E-3,-1.511890348E-2,-1.863137633E-2
9.964373925E2,-7.635809598E-4,-2.367101051E-2,1.649334840E-2
9.969415533E2,-5.650499370E-3,-5.726857483E-2,3.405570984E-2
9.974457145E2,-7.024944760E-3,8.704823442E-3,6.017018110E-2
9.979498757E2,-2.443459071E-2,2.367101051E-2,3.023780696E-2
9.984540370E2,1.298087649E-2,5.039634556E-2,3.588830680E-2
9.989581982E2,-1.038470119E-2,3.665188793E-3,9.621120058E-3
9.994623593E2,-2.748891478E-3,-1.374445762E-2,3.970621154E-3
9.999665202E2,-5.192350596E-2,-7.635809598E-4,-1.328630932E-2
