"Time (s)","Linear Acceleration x (m/s^2)","Linear Acceleration y (m/s^2)","Linear Acceleration z (m/s^2)"
9.335156600E-2,-1.870896518E-1,8.761391640E-1,-6.739435196E-1
2.949921910E-1,-4.533487558E-2,1.224347591E0,3.921175003E-1
7.949921910E-1,-7.949805260E-2,-7.882995605E-1,-6.002397537E-1
1.294992191E0,-2.507560253E-1,1.433759689E0,4.221024513E-1
1.794992191E0,-3.744181395E-1,-1.281785965E-1,-9.274787903E-1
2.294992191E0,-3.965744972E-1,-2.054789066E0,3.288179398E0
2.794992191E0,4.547667801E-1,1.584474087E0,-5.728006363E-2
3.294992191E0,3.887039423E-2,1.104545593E-1,-1.834111214E-1
3.794992191E0,7.464984059E-1,3.544821739E-1,-9.330558777E-2
4.294992191E0,1.039848208E0,6.481175423E-1,2.127799988E-1
4.794992191E0,6.510965228E-1,6.081533432E-2,2.824964523E-1
5.294992191E0,9.903666973E-1,-5.090336800E-1,1.451654434E-1
5.794992191E0,1.787153482E-1,-1.969766617E-2,5.743598938E-2
6.294992191E0,1.942459345E-1,9.913206100E-2,1.735496521E-2
6.794992191E0,2.422212958E-1,9.139394760E-2,-9.025001526E-2
7.294992191E0,-9.875455499E-2,-1.587522030E-1,1.716613770E-2
7.794992191E0,-9.639818072E-1,-1.287531853E-1,-2.035179138E-1
8.294992191E0,-4.724786878E-1,-4.637742043E-2,1.020917892E-1
8.794992191E0,-1.280551553E-1,1.272919178E-1,3.391742706E-2
9.294992191E0,-1.256636381E-1,-1.377635002E-1,-9.892940521E-2
9.794992191E0,-5.561593771E-1,8.998584747E-2,-2.022171021E-2
1.029499219E1,-3.950875998E-1,1.004815102E-2,-1.049509048E-1
1.079499219E1,-1.901042461E-2,1.027362347E-1,1.117248535E-1
1.129499219E1,4.988467693E-2,-5.582928658E-2,-2.406225204E-1
1.179499219E1,-3.130388260E-2,-1.422719955E-1,-3.025856018E-1
1.229499219E1,-7.799160480E-2,-1.311278343E-2,1.117582321E-1
1.279499219E1,-6.895506382E-2,1.060056686E-1,-5.201244354E-2
1.329499219E1,8.762967587E-2,2.918021679E-1,7.141971588E-2
1.379499219E1,1.657629013E-2,1.971499920E-1,-3.203983307E-1
1.429499219E1,-1.113026142E-1,9.361553192E-2,-2.993392944E-1
1.479499219E1,-2.431929111E-1,5.666379929E-1,7.057323456E-1
1.529499219E1,1.062101126E-1,-9.185457230E-2,-2.147769928E-1
1.579499219E1,6.648218632E-2,2.853007317E-1,3.338422775E-1
1.629499219E1,-5.927670002E-2,-1.063251495E-2,-4.149913788E-2
1.679499219E1,8.650970459E-2,6.639003754E-2,-6.632709503E-2
1.729499219E1,-4.622089863E-2,1.749134064E-1,1.034698486E-1
1.779499219E1,-4.511404037E-2,-1.367278099E-1,-8.055114746E-2
1.829499219E1,3.339886665E-3,-2.157249451E-1,-8.466053009E-2
1.879499219E1,-1.147021055E-1,1.385822296E-1,3.120727539E-1
1.929499219E1,5.970263481E-2,7.959933281E-1,-1.673889160E-2
1.979499219E1,6.896100640E-1,4.930710793E-1,-7.664999962E-1
2.029499219E1,2.147548795E-1,2.443132401E-1,-6.548213959E-2
2.079499219E1,-3.704929352E-2,4.920578003E-2,-3.652720451E-1
2.129499219E1,1.252758503E-2,-2.106285095E-2,-2.225351334E-1
2.179499219E1,-7.804179192E-2,-1.054019928E-1,3.735971451E-1
2.229499219E1,4.920476675E-2,1.234240532E-1,-5.032825470E-2
2.279499219E1,4.513263702E-3,2.806916237E-1,2.189264297E-1
2.329499219E1,1.182406545E-1,-5.961179733E-2,-2.498216629E-1
2.379499219E1,-2.891671062E-1,1.222295761E-1,1.500158310E-1
2.429499219E1,9.217751026E-2,-4.987239838E-2,-7.474040985E-2
2.479499219E1,-4.918408394E-2,-1.073846817E-1,-1.033401489E-1
2.529499219E1,4.555386305E-2,4.260683060E-2,-2.672080994E-1
2.579499219E1,-6.401610374E-2,9.364700317E-2,4.522037506E-2
2.629499219E1,3.654575348E-2,-2.643060684E-2,-6.496906281E-2
2.679499219E1,1.174972057E-1,2.863869667E-1,-9.232234955E-2
2.729499219E1,-5.349857807E-1,-9.875297546E-1,2.712059021E-2
2.779499219E1,-2.652604580E-1,-8.847379684E-1,6.822166443E-1
2.829499219E1,-1.869097948E-1,-8.508121967E-1,3.274564743E-1
2.879499219E1,1.105527639E0,3.033351898E-2,1.172065735E-1
2.929499219E1,3.680715561E-1,-2.364587784E-2,1.931276321E-1
2.979499219E1,1.015814543E-1,-3.012895584E-2,1.636323929E-1
3.029499219E1,5.388391018E-2,-5.652379990E-2,-4.916477203E-2
3.079499219E1,3.169965744E-2,4.759836197E-2,3.179454803E-2
3.129499219E1,4.025125504E-2,-2.741622925E-2,-1.858234406E-2
3.179499219E1,2.009630203E-3,2.895545959E-2,1.130771637E-2
3.229499219E1,-3.573906422E-2,4.268884659E-2,-2.015972137E-2
3.279499219E1,7.890999317E-2,-3.933072090E-2,1.453399658E-2
3.329499219E1,-6.812810898E-3,1.859998703E-2,1.118850708E-2
3.379499219E1,-1.669490337E-2,4.068851471E-3,1.126766205E-2
3.429499219E1,1.050531864E-2,2.878952026E-2,-2.608871460E-2
3.479499219E1,-2.239298820E-2,-5.385732651E-2,1.364803314E-2
3.529499219E1,-8.567571640E-4,-5.540513992E-2,2.752208710E-2
3.579499219E1,-4.417777061E-2,1.976680756E-2,1.330184937E-2
3.629499219E1,-4.576921463E-3,-2.330017090E-2,-1.892280579E-2
3.679499219E1,-1.047015190E-3,1.368951797E-2,1.224613190E-2
3.729499219E1,-1.172590256E-2,4.973888397E-3,-5.492210388E-3
3.779499219E1,1.856398582E-2,-4.655885696E-2,1.282787323E-2
3.829499219E1,1.982593536E-2,2.884626389E-2,-1.605415344E-2
3.879499219E1,1.333606243E-2,2.985477448E-3,-2.367210388E-2
3.929499219E1,9.467959404E-3,1.239967346E-2,1.938343048E-2
3.979499219E1,1.323461533E-3,1.096487045E-2,-1.476764679E-2
4.029499219E1,-4.299521446E-3,3.646326065E-2,4.357814789E-2
4.079499219E1,3.020238876E-2,-5.048131943E-2,-7.096290588E-3
4.129499219E1,2.002942562E-2,3.246259689E-2,1.062488556E-2
4.179499219E1,-3.561258316E-3,-1.978397369E-3,-1.377582550E-2
4.229499219E1,-9.081244469E-3,3.777217865E-2,2.338695526E-2
4.279499219E1,7.269978523E-3,-1.970219612E-2,4.194259644E-3
4.329499219E1,-8.883595467E-3,4.562520981E-2,8.070945740E-3
4.379499219E1,1.925551891E-2,-4.153084755E-2,2.402591705E-2
4.429499219E1,4.662868977E-1,9.595289230E-1,-1.195073128E0
4.479499219E1,-1.751374006E-1,5.360949039E-1,-4.421911240E-1
4.529499219E1,-4.874193668E-2,9.769868851E-2,-7.858085632E-2
4.579499219E1,-7.680928707E-2,-7.697787285E-1,7.404432297E-1
4.629499219E1,-1.166872621E0,1.086906195E0,-7.721710205E-1
4.679499219E1,-3.166908026E-1,7.503707409E-1,3.136253357E-2
4.729499219E1,-3.392307162E-1,7.160372734E-1,-3.905029297E-1
4.779499219E1,2.775402665E-1,8.369183540E-2,-1.017456055E-1
4.829499219E1,-7.183138132E-1,4.264340401E-1,-4.786977768E-1
4.879499219E1,-1.336646676E-1,2.684760094E-2,-1.621847153E-1
4.929499219E1,-7.062828541E-2,2.112150192E-3,-9.620094299E-2
4.979499219E1,-1.114404202E-2,1.004025936E-1,-4.845523834E-2
5.029499219E1,-5.082666874E-2,-1.290972233E-1,2.408981323E-2
5.079499219E1,7.031905651E-2,4.735970497E-2,5.631542206E-2
5.129499219E1,-2.603304386E-2,-7.041573524E-2,-3.437805176E-2
5.179499219E1,-1.374220848E-1,2.125072479E-2,8.565902710E-3
5.229499219E1,3.573167324E-2,-1.078294516E-1,-2.054300308E-1
5.279499219E1,-7.104873657E-2,-6.245779991E-2,2.437019348E-2
5.329499219E1,-5.795180798E-2,-1.260198355E-1,2.544498444E-2
5.379499219E1,-2.120449543E-1,6.725072861E-3,-4.119396210E-2
5.429499219E1,8.456635475E-2,-2.557700872E-1,1.299238205E-1
5.479499219E1,3.140453100E-1,-2.041059732E-2,4.981231689E-2
5.529499219E1,-2.827242613E-1,4.367642403E-1,-1.016626358E-1
5.579499219E1,3.719979525E-1,9.696805477E-1,-2.265777588E-1
5.629499219E1,4.681682587E-2,1.052172780E0,-1.470108032E-1
5.679499219E1,9.859710932E-1,1.580501556E0,-5.803050995E-1
5.729499219E1,6.036020517E-1,1.310739875E0,-1.608886719E-1
5.779499219E1,2.857568264E-1,1.183097363E0,-4.167776108E-1
5.829499219E1,5.507050753E-1,1.688590050E0,4.422855377E-1
5.879499219E1,4.555872977E-1,9.069695473E-1,-3.285293579E-1
5.929499219E1,3.043420017E-1,1.293668270E0,5.626173019E-1
5.979499219E1,8.138056397E-1,1.334692955E0,-1.347694397E-1
6.029499219E1,4.195955396E-1,5.391685963E-1,-1.947908401E-1
6.079499219E1,-1.203417778E-4,1.905417442E-1,1.164531708E-2
6.129499219E1,-8.713531494E-2,-1.021201611E-1,-7.691860199E-2
6.179499219E1,-4.155343771E-2,-5.037117004E-2,-2.468395233E-2
6.229499219E1,-1.369482279E-1,-5.133571625E-1,-3.010272980E-2
6.279499219E1,-7.458722591E-2,-2.504293919E-1,9.062099457E-2
6.329499219E1,2.410645485E-1,-4.403936863E-1,-1.135578156E-1
6.379499219E1,2.648952305E-1,-4.026598930E-1,7.704257965E-2
6.429499219E1,-5.138027668E-2,-1.380943060E-1,4.551887512E-3
6.479499219E1,1.675144136E-1,8.240103722E-3,9.482383728E-3
6.529499219E1,3.103893995E-2,1.532375813E-2,8.608913422E-2
6.579499219E1,1.803134382E-1,-2.747809887E-2,-1.097764969E-1
6.629499219E1,1.674010754E-1,-5.573785305E-2,8.987998962E-2
6.679499219E1,1.290645748E-1,-1.592920423E-1,1.232213974E-1
6.729499219E1,2.349006832E-1,5.363303423E-1,5.111980438E-2
6.779499219E1,3.329827785E-1,8.156120777E-2,-8.505249023E-2
6.829499219E1,-2.689417303E-1,-4.757699370E-1,2.424325943E-1
6.879499219E1,-1.021246761E-1,-1.047254801E-1,1.850318909E-2
6.929499219E1,-1.463459134E-1,4.327396154E-1,4.143810272E-2
6.979499219E1,-5.155271888E-1,-5.234992504E-2,-2.093124390E-2
7.029499219E1,-8.936159611E-1,7.525589466E-1,-1.124181747E-1
7.079499219E1,-7.893224955E-1,8.777937889E-1,-4.171228409E-1
7.129499219E1,-7.486346960E-1,9.311244488E-1,7.253551483E-2
7.179499219E1,-3.759111166E-1,2.698283195E-1,-4.304065704E-1
7.229499219E1,-1.915740967E-1,8.932852745E-2,8.696746826E-2
7.279499219E1,-2.781450748E-1,1.554403305E-1,-2.235345840E-1
7.329499219E1,-2.026040554E-1,2.263782024E-1,-1.172924042E-2
7.379499219E1,-6.459450722E-2,2.733380795E-1,-2.940092087E-1
7.429499219E1,-2.003436089E-1,1.765296459E-1,-1.126289368E-3
7.479499219E1,9.556603432E-2,1.762566566E-1,-1.684150696E-1
7.529499219E1,1.110057831E-1,2.362995148E-1,1.167230606E-1
7.579499219E1,2.716820240E-1,1.411676407E-2,1.827239990E-3
7.629499219E1,1.735796928E-1,6.693434715E-2,-1.688861847E-1
7.679499219E1,-1.058101654E-3,2.596669197E-1,2.406549454E-1
7.729499219E1,5.333642960E-1,-4.466629028E-2,-5.750703812E-1
7.779499219E1,1.168639541E0,1.384470463E-1,9.809589386E-1
7.829499219E1,8.405395746E-1,-3.337997198E-1,-7.094860077E-1
7.879499219E1,6.599833965E-1,-4.181867838E-1,-9.129610062E-1
7.929499219E1,6.772944927E-1,7.029771805E-4,7.148141861E-1
7.979499219E1,6.655997038E-1,-2.260957956E-1,-2.246570587E-1
8.029499219E1,6.488409042E-1,-5.019414425E-2,5.488433838E-1
8.079499219E1,7.954076529E-1,3.132069111E-2,6.968994141E-1
8.129499219E1,9.074772000E-1,-3.980308771E-1,-2.233419418E-1
8.179499219E1,1.135689020E-1,-2.660858631E-2,1.433744431E-1
8.229499219E1,4.778050184E-1,1.538305283E-1,-7.693901062E-1
8.279499219E1,3.920921087E-1,4.717530012E-1,-2.505092621E-1
8.329499219E1,1.350901127E-1,9.157351255E-1,2.124061584E-1
8.379499219E1,1.534727812E-1,4.541854858E-1,-2.320299149E-1
8.429499219E1,1.635913849E-1,3.339469433E-1,-2.949752808E-1
8.479499219E1,1.086447239E-1,2.691919804E-1,-6.220149994E-2
8.529499219E1,1.006161571E-1,3.064904213E-1,1.284894943E-1
8.579499219E1,1.543227434E-1,9.058499336E-2,3.856563568E-2
8.629499219E1,4.847759008E-2,-6.664037704E-3,-3.810214996E-2
8.679499219E1,-1.088488102E-2,3.764843941E-2,-1.904153824E-1
8.729499219E1,1.967838407E-1,2.697064877E-1,-1.892557144E-1
8.779499219E1,-9.155374765E-2,-1.134383678E-1,2.027482986E-1
8.829499219E1,1.795667410E-2,-1.115114689E-1,7.760143280E-2
8.879499219E1,1.258951426E-2,5.833840370E-2,5.764389038E-2
8.929499219E1,-1.954954863E-2,2.426004410E-2,2.230148315E-1
8.979499219E1,5.894976854E-2,9.443998337E-2,-1.770391464E-1
9.029499219E1,-4.764431715E-2,2.856407166E-1,-9.029674530E-2
9.079499219E1,2.053678036E-3,-3.279519081E-2,5.391788483E-2
9.129499219E1,1.613624990E-1,-5.360794067E-2,-1.504364014E-1
9.179499219E1,-6.638550758E-2,-6.568408012E-2,4.712772369E-2
9.229499219E1,-6.014031172E-2,-1.653969288E-1,2.124214172E-2
9.279499219E1,1.672524214E-2,-1.902933121E-1,1.032924652E-2
9.329499219E1,-4.203623533E-2,8.615803719E-2,1.662254333E-3
9.379499219E1,7.681399584E-2,1.267058849E-1,1.985645294E-2
9.429499219E1,1.145225167E-1,1.816909313E-1,-6.019306183E-2
9.479499219E1,-1.140876293E0,-1.470350862E0,1.141195297E-1
9.529499219E1,7.307249308E-2,-3.931055069E-1,2.984714508E-2
9.579499219E1,-1.662979126E-1,-5.264987946E-1,-2.328205109E-2
9.629499219E1,-1.666324735E-1,-2.672030926E-1,8.060550690E-2
9.679499219E1,2.212893963E-2,-9.414005280E-2,-5.191898346E-2
9.729499219E1,-2.104101181E-1,-6.138563156E-2,5.708122253E-2
9.779499219E1,-8.038878441E-3,-1.243460178E-2,2.965450287E-2
9.829499219E1,2.719938755E-2,7.206201553E-4,-2.327632904E-2
9.879499219E1,-9.222149849E-3,3.485596180E-2,3.968238831E-3
9.929499219E1,-2.445852757E-2,-1.599979401E-2,-1.360130310E-2
9.979499219E1,-1.208221912E-2,1.043975353E-2,7.382392883E-3
1.002949922E2,-7.328629494E-3,4.841089249E-3,-1.572608948E-3
1.007949922E2,1.329290867E-2,-8.376717567E-3,9.005546570E-3
1.012949922E2,1.064205170E-2,1.038789749E-2,-5.658149719E-3
1.017949922E2,1.835215092E-2,3.155434132E-2,-2.054500580E-2
1.022949922E2,-1.155805588E-2,9.908914566E-3,7.219314575E-4
1.027949922E2,-1.066339016E-2,-1.559066772E-2,-4.191398621E-3
1.032949922E2,1.449477673E-2,-5.105972290E-3,-1.098155975E-2
1.037949922E2,9.727358818E-3,1.278519630E-3,-4.498481750E-3
1.042949922E2,-6.622910500E-3,1.621484756E-3,4.438400269E-3
1.047949922E2,1.068174839E-2,8.699059486E-3,4.608154297E-3
1.052949922E2,-1.754963398E-2,1.624381542E-2,-1.712512970E-2
1.057949922E2,-8.169054985E-3,-1.660048962E-2,6.045341492E-3
1.062949922E2,1.130580902E-2,-1.149010658E-2,-1.769065857E-3
1.067949922E2,-2.912867069E-2,-2.744626999E-2,-3.083896637E-2
1.072949922E2,-2.350819111E-2,4.236340523E-3,1.725482941E-2
1.077949922E2,1.779091358E-2,9.793400764E-3,-3.047943115E-3
1.082949922E2,-1.306784153E-2,-9.327769279E-3,8.026123047E-3
1.087949922E2,6.685256958E-3,-3.015279770E-3,6.193161011E-3
1.092949922E2,9.578824043E-3,8.515596390E-3,9.260177612E-4
1.097949922E2,8.262991905E-3,6.602168083E-3,-8.444786072E-3
1.102949922E2,6.983876228E-3,3.601849079E-2,4.673862457E-2
1.107949922E2,-1.067650318E-2,-3.213071823E-2,2.707767487E-2
1.112949922E2,1.988780499E-2,-6.100654602E-3,1.067066193E-2
1.117949922E2,-1.302528381E-2,2.548575401E-3,1.512241364E-2
1.122949922E2,-8.283960819E-2,2.434843779E-1,-1.614885330E-1
1.127949922E2,-6.481409073E-4,6.032764912E-2,6.844806671E-2
1.132949922E2,-8.037447929E-3,4.998338223E-2,-2.369785309E-2
1.137949922E2,1.018154621E-2,-3.432035446E-3,2.436637878E-3
1.142949922E2,2.635347843E-2,3.989958763E-2,7.641792297E-3
1.147949922E2,-4.408478737E-3,-7.254731655E-2,1.692581177E-2
1.152949922E2,2.246093750E-2,9.001255035E-3,-1.187133789E-2
1.157949922E2,-2.874016762E-3,8.134841919E-4,1.060199738E-2
1.162949922E2,3.537178040E-3,-1.748085022E-3,1.711845398E-2
1.167949922E2,9.438395500E-3,2.727389336E-2,-4.296302795E-3
1.172949922E2,1.595842838E-2,2.562403679E-3,-1.817035675E-2
1.177949922E2,-2.364146709E-2,-3.623986244E-2,1.428699493E-2
1.182949922E2,7.560849190E-3,4.915595055E-3,1.326560974E-3
1.187949922E2,2.765262127E-2,1.512062550E-2,-1.189708710E-2
1.192949922E2,-8.134663105E-2,-2.516739368E-1,9.667301178E-2
1.197949922E2,6.187021732E-2,1.094068289E-1,-1.369714737E-1
1.202949922E2,-8.939886093E-2,-9.635984898E-2,3.066158295E-2
1.207949922E2,2.301266193E-1,-1.704621315E-2,7.037830353E-2
1.212949922E2,-6.675016880E-2,-1.018901467E-1,3.462791443E-2
1.217949922E2,7.501065731E-2,1.867783070E-2,7.130432129E-2
1.222949922E2,-1.412510872E-2,-5.778014660E-3,5.875682831E-2
1.227949922E2,-7.319569588E-3,-1.142427325E-1,-6.650066376E-2
1.232949922E2,-2.985203266E-2,-4.680591822E-2,4.693698883E-2
1.237949922E2,-1.530095339E-1,-1.635777354E-1,2.824306488E-2
1.242949922E2,-5.161666870E-2,1.762139797E-2,-1.294612885E-2
1.247949922E2,4.013788700E-2,-2.822586894E-2,-2.817058563E-2
1.252949922E2,-3.658179045E-1,-2.948553562E-1,-1.186752319E-2
1.257949922E2,3.725924492E-1,6.519227624E-1,-7.559680939E-2
1.262949922E2,2.402894497E-1,4.309774637E-1,-6.971359253E-2
1.267949922E2,3.097760677E-2,8.589750528E-2,-4.239940643E-2
1.272949922E2,1.813746691E-1,3.535128832E-1,-1.796865463E-1
1.277949922E2,8.896327019E-2,3.452934027E-1,-2.960147858E-1
1.282949922E2,1.035524607E-1,3.208162785E-1,-6.104469299E-3
1.287949922E2,3.629112244E-2,7.285594940E-2,-8.480548859E-2
1.292949922E2,4.985642433E-2,4.971611500E-2,-4.837036133E-2
1.297949922E2,1.243891716E-1,-4.865550995E-2,-1.552743912E-1
1.302949922E2,-3.327131271E-3,1.558892131E-1,1.823692322E-1
1.307949922E2,1.108311415E-1,-2.284610271E-2,-6.320285797E-2
1.312949922E2,-6.156909466E-2,4.910743237E-2,-4.428672791E-2
1.317949922E2,2.399476171E-1,4.826987982E-1,6.924533844E-2
1.322949922E2,-3.481972218E-2,-2.187621593E-2,-4.351034164E-1
1.327949922E2,2.095898986E-1,-2.551972866E-2,-2.425479889E-2
1.332949922E2,-1.024520397E-2,2.480621338E-1,1.353759766E-1
1.337949922E2,-2.234518528E-2,5.715942383E-2,1.344747543E-1
1.342949922E2,3.678674698E-1,-1.386474371E-1,-8.085727692E-2
1.347949922E2,1.287419200E-1,-1.143176556E-1,-4.943952560E-1
1.352949922E2,-5.838624835E-1,7.727766037E-2,8.591814041E-1
1.357949922E2,-9.405612946E-4,-1.232038736E-1,-3.013811111E-1
1.362949922E2,1.279628277E-2,1.642775536E-2,2.789306641E-2
1.367949922E2,-1.663552523E-1,1.333546638E-2,6.334304810E-2
1.372949922E2,-2.753165960E-1,5.290513039E-1,8.180904388E-2
1.377949922E2,-4.581716061E-1,1.401302814E-1,1.846275330E-1
1.382949922E2,-2.895858288E-1,1.404640675E-1,-3.425931931E-1
1.387949922E2,-5.173208714E-1,8.332395554E-2,5.776968002E-1
1.392949922E2,-5.492799282E-1,5.472111702E-2,1.968584061E-1
1.397949922E2,-2.997887135E-1,1.637649536E-2,-2.274112701E-1
1.402949922E2,-1.028561592E-1,2.609276772E-2,3.985881805E-2
1.407949922E2,-1.207780838E-1,7.677268982E-2,-6.069755554E-2
1.412949922E2,3.357887268E-2,8.771395683E-2,-1.474180222E-1
1.417949922E2,5.676507950E-2,6.170699596E-1,1.103754044E-1
1.422949922E2,1.256356239E-1,6.474947929E-2,-3.120555878E-1
1.427949922E2,6.899929047E-2,1.239814758E-1,-1.752862930E-1
1.432949922E2,-6.053924561E-3,-1.985241175E-1,8.282566071E-2
1.437949922E2,2.485103607E-1,-2.802252769E-3,5.208272934E-1
1.442949922E2,1.088925838E0,-7.553017139E-2,-5.143947601E-1
1.447949922E2,3.299019337E-1,-2.237040401E-1,6.507816315E-1
1.452949922E2,7.507679462E-1,2.345302105E-1,1.682863235E-1
1.457949922E2,6.568347216E-1,-8.825498819E-2,-1.793804169E-1
1.462949922E2,2.997337580E-1,-2.032715082E-2,-8.421611786E-2
1.467949922E2,5.257344246E-2,-1.506984234E-3,2.834033966E-2
1.472949922E2,7.084047794E-2,3.786659241E-2,2.004022598E-1
1.477949922E2,-8.336389065E-2,-2.397942543E-2,-8.030986786E-2
1.482949922E2,6.528890133E-2,4.383593798E-2,-2.096967697E-1
1.487949922E2,-5.934596062E-3,3.564339876E-2,-1.004552841E-1
1.492949922E2,-7.758367062E-2,-3.577047586E-2,1.540651321E-1
1.497949922E2,1.737871766E-1,3.943148851E-1,-1.123943329E-1
1.502949922E2,1.712666750E-1,1.583963633E-1,-2.153911591E-1
1.507949922E2,-3.795363903E-1,2.933382988E-2,7.614421844E-2
1.512949922E2,2.835620642E-1,2.836517096E-1,-7.256784439E-1
1.517949922E2,3.954589367E-2,5.706477165E-2,-3.360357285E-1
1.522949922E2,6.268155575E-2,1.660424471E-1,7.907390594E-2
1.527949922E2,2.222950459E-1,2.427573204E-1,5.571842194E-1
1.532949922E2,3.655980825E-1,2.680854797E-1,-4.271659851E-1
1.537949922E2,1.676165462E-1,1.257678270E-1,-2.106065750E-1
1.542949922E2,5.562615395E-2,1.915326118E-1,1.342496872E-1
1.547949922E2,9.367793798E-2,2.739453316E-2,4.136466980E-2
1.552949922E2,1.464225054E-1,9.342885017E-2,-1.081876755E-1
1.557949922E2,5.717968941E-2,-1.118400097E-1,-7.866859436E-3
1.562949922E2,2.600967884E-2,2.547636032E-1,7.347297668E-2
1.567949922E2,7.368773222E-2,1.063792706E-1,-2.240924835E-1
1.572949922E2,1.662683487E-2,1.103308201E-1,1.511478424E-2
1.577949922E2,1.744496822E-2,1.050546169E-1,1.790332794E-2
1.582949922E2,-1.645208597E-1,-1.339948177E-1,1.705169678E-3
1.587949922E2,1.668022275E-1,-9.927988052E-3,1.442728043E-1
1.592949922E2,-5.597221851E-2,-9.746336937E-2,-5.651187897E-2
1.597949922E2,1.347576976E-1,1.733136177E-1,1.424341202E-1
1.602949922E2,9.770393372E-4,-1.276094913E-1,-1.570587158E-1
1.607949922E2,1.593006849E-1,-2.223134041E-2,1.185598373E-1
1.612949922E2,-2.402720451E-1,-2.438547611E-1,1.459188461E-1
1.617949922E2,1.822355986E-1,-1.617907286E-1,-1.234426498E-1
1.622949922E2,3.351174593E-1,5.788258314E-1,-9.821796417E-2
1.627949922E2,9.356296062E-2,3.161957264E-1,-2.250957489E-2
1.632949922E2,2.146971226E-2,8.785891533E-2,-6.663322449E-3
1.637949922E2,-7.600367069E-1,-1.787348628E0,3.943948746E-1
1.642949922E2,-5.383361578E-1,-9.130791426E-1,-1.248025894E-1
1.647949922E2,-2.215455770E-1,-4.562999010E-1,1.639871597E-1
1.652949922E2,-8.727848530E-2,-2.360739708E-1,2.553272247E-2
1.657949922E2,-1.353609562E-2,-3.824865818E-2,4.393768311E-2
1.662949922E2,-1.627421379E-2,-5.034708977E-2,-3.444099426E-2
1.667949922E2,4.903078079E-3,1.236605644E-2,2.618694305E-2
1.672949922E2,-4.942488670E-2,1.606333256E-2,-8.597087860E-2
1.677949922E2,-3.869044781E-2,-6.396055222E-2,-2.032470703E-2
1.682949922E2,-1.862835884E-2,9.108901024E-3,1.444053650E-2
1.687949922E2,-6.002783775E-3,7.426738739E-4,2.907752991E-3
1.692949922E2,-2.182006836E-3,-8.434057236E-3,-2.296924591E-2
1.697949922E2,2.108514309E-2,4.321300983E-2,-2.301216125E-3
1.702949922E2,1.841115952E-2,-2.935278416E-2,-2.164840698E-2
1.707949922E2,-1.658999920E-2,-4.012465477E-3,1.149272919E-2
1.712949922E2,1.178991795E-2,-9.300112724E-3,-1.575756073E-2
1.717949922E2,1.234698296E-2,1.337742805E-2,1.532840729E-2
1.722949922E2,2.729058266E-3,1.206827164E-2,-1.678752899E-2
1.727949922E2,-1.599752903E-2,1.419198513E-2,1.320552826E-2
1.732949922E2,-1.153743267E-2,-3.996765614E-2,-5.800247192E-3
1.737949922E2,-2.024996281E-2,3.612160683E-3,3.105640411E-2
1.742949922E2,7.886528969E-3,-1.351773739E-2,4.114151001E-3
1.747949922E2,-5.526661873E-3,8.694291115E-3,9.887695312E-3
1.752949922E2,-3.685832024E-3,2.247440815E-2,-1.852893829E-2
1.757949922E2,-7.715821266E-3,-1.468360424E-2,-2.310943604E-2
1.762949922E2,2.448976040E-2,1.740968227E-2,-9.474754333E-3
1.767949922E2,3.624093533E-2,8.981227875E-3,6.597518921E-3
1.772949922E2,-4.654240608E-2,3.460049629E-3,-1.816082001E-2
1.777949922E2,-1.116132736E-1,-4.634857178E-2,-5.253791809E-3
1.782949922E2,-5.204677582E-4,-2.601420879E-2,1.624011993E-2
1.787949922E2,5.013394356E-2,6.383061409E-3,-4.607200623E-3
1.792949922E2,5.110931396E-2,7.941710949E-2,3.735542297E-2
1.797949922E2,-2.450311184E-2,-8.916497231E-3,-6.861686707E-3
1.802949922E2,-4.786825180E-2,-4.120898247E-2,1.070976257E-2
1.807949922E2,1.501727104E-1,-7.950181961E-1,2.008228302E-1
1.812949922E2,-1.305094481E0,-3.691973686E-1,-6.786746979E-1
1.817949922E2,2.829650342E-1,1.043935418E0,6.134138107E-1
1.822949922E2,-3.432801366E-1,5.417017937E-1,-1.406784058E-1
1.827949922E2,-1.234829426E-1,1.042442322E-1,-9.228706360E-3
1.832949922E2,1.266606450E-1,1.805211306E-1,-3.512859344E-2
1.837949922E2,-2.396856546E-1,6.336581707E-2,1.281080246E-1
1.842949922E2,-8.911478519E-2,-1.801322699E-1,-2.231683731E-1
1.847949922E2,1.618835926E-1,-8.413112164E-2,-4.521465302E-2
1.852949922E2,-2.535833120E-1,-4.350864887E-2,1.463289261E-1
1.857949922E2,-1.124417782E-2,3.795707226E-2,-7.725334167E-2
1.862949922E2,-6.550240517E-2,-1.086565256E-1,1.535730362E-1
1.867949922E2,-5.143356323E-2,2.852578163E-1,-2.244062424E-1
1.872949922E2,2.068959475E-1,1.406062841E-1,-2.634716034E-2
1.877949922E2,6.955003738E-2,1.310807467E-1,-9.491157532E-2
1.882949922E2,4.853963852E-2,-7.581865788E-2,-1.213359833E-2
1.887949922E2,2.585998178E-1,1.948366165E-1,-1.046457291E-1
1.892949922E2,2.389073372E-1,7.427690029E-1,-1.673927307E-1
1.897949922E2,3.414004445E-1,8.222209215E-1,9.477996826E-2
1.902949922E2,6.844288111E-2,3.055775166E-1,-1.342267990E-1
1.907949922E2,1.331196725E-1,9.175610542E-2,8.384799957E-1
1.912949922E2,1.151109934E-1,3.365087509E-2,-1.126861572E-1
1.917949922E2,-3.507244587E-2,1.670932770E-2,-2.678613663E-1
1.922949922E2,-1.483235359E-1,1.626849174E-1,3.760776520E-1
1.927949922E2,-4.451298714E-1,3.839159012E-2,-2.842187881E-1
1.932949922E2,-1.762378216E-1,8.863010406E-1,-1.729917526E-1
1.937949922E2,-1.988670826E-1,5.423619747E-1,-1.265268326E-1
1.942949922E2,-9.481630325E-1,-1.825809479E-2,-3.842821121E-1
1.947949922E2,-6.718614101E-1,8.004617691E-2,4.319667816E-2
1.952949922E2,-5.263273716E-1,3.233909607E-2,-1.344928741E-1
1.957949922E2,-4.747424126E-1,-1.105999947E-2,-1.431684494E-1
1.962949922E2,4.031896591E-3,2.463483810E-1,1.110277176E-1
1.967949922E2,8.704447746E-2,1.663396358E-1,-2.313184738E-1
1.972949922E2,-5.343246460E-2,3.975403309E-1,1.327991486E-1
1.977949922E2,6.368446350E-2,1.270914078E-1,-1.959495544E-1
1.982949922E2,7.878780365E-3,3.242757320E-1,2.724199295E-1
1.987949922E2,1.483037472E-1,3.829717636E-2,-2.530212402E-1
1.992949922E2,3.765001297E-1,8.589398861E-2,4.505062103E-2
1.997949922E2,3.286218643E-1,-7.552206516E-2,8.274459839E-2
2.002949922E2,4.840669632E-1,-1.845424175E-1,1.604785919E-1
2.007949922E2,1.108835101E0,-2.708919048E-1,2.806959152E-1
2.012949922E2,1.127660871E0,2.239097357E-1,-1.092720032E-2
2.017949922E2,1.003623486E0,6.732130051E-1,-2.236604691E-1
2.022949922E2,1.055581808E0,5.490343571E-1,1.957578659E-1
2.027949922E2,4.135229588E-1,1.566878557E-1,2.841472626E-2
2.032949922E2,5.464196205E-1,7.147202492E-1,-1.394309998E-1
2.037949922E2,2.944477201E-1,7.732954025E-1,2.580842972E-1
2.042949922E2,4.136094153E-1,3.341929913E-1,-9.369354248E-1
2.047949922E2,3.153153658E-1,5.933451653E-1,-1.731138229E-1
2.052949922E2,8.086997271E-2,5.138189793E-1,1.164913177E-2
2.057949922E2,4.686933756E-2,-6.725049019E-2,2.117700577E-1
2.062949922E2,-1.533736587E-1,-1.992616653E-1,-2.112483978E-1
2.067949922E2,-6.084150672E-1,-1.186383367E0,6.528091431E-2
2.072949922E2,-3.906788826E-1,-1.024860263E0,6.254386902E-2
2.077949922E2,-9.764111042E-2,-3.259205818E-1,-6.806278229E-2
2.082949922E2,-9.775722027E-2,-1.606379747E-1,8.434486389E-2
2.087949922E2,-7.188689709E-2,-1.902279854E-1,6.190299988E-2
2.092949922E2,2.021698952E-1,1.850966215E-1,-7.125377655E-2
2.097949922E2,1.302807331E-1,-1.166980863E-1,9.658527374E-2
2.102949922E2,1.886140108E-1,-1.190456152E-1,5.940532684E-2
2.107949922E2,1.956088543E-1,-1.015377939E-1,2.095508575E-2
2.112949922E2,2.396617532E-1,-7.639321685E-2,1.334953308E-2
2.117949922E2,3.413925171E-1,-1.357957721E-2,1.481428146E-1
2.122949922E2,3.500944078E-1,1.192422062E-1,1.028814316E-1
2.127949922E2,1.359206438E0,8.031339645E-1,-4.785995483E-1
2.132949922E2,1.882472336E-1,5.761436820E-1,1.171979904E-1
2.137949922E2,1.890975833E-1,4.717608392E-1,1.144218445E-2
2.142949922E2,7.332481742E-1,9.914234281E-1,6.185503006E-1
2.147949922E2,2.289606929E-1,1.485223323E-1,-6.318378448E-1
2.152949922E2,-8.595716953E-2,3.769170344E-1,-1.454677582E-1
2.157949922E2,1.504694223E-1,4.488365054E-1,-8.333587646E-2
2.162949922E2,2.665026784E-1,3.512555361E-1,-5.317077637E-1
2.167949922E2,3.471146226E-1,2.823829055E-1,2.571420670E-1
2.172949922E2,2.198364735E-1,2.993130088E-1,3.652572632E-4
2.177949922E2,8.402466774E-3,2.662739158E-2,-1.688661575E-1
2.182949922E2,-6.446564198E-2,1.131453514E-1,7.308387756E-2
2.187949922E2,-3.694283962E-2,2.890031338E-1,-1.297006607E-1
2.192949922E2,2.351284027E-3,3.126853704E-1,-1.022109985E-1
2.197949922E2,1.719713211E-3,2.161259651E-1,-1.325225830E-2
2.202949922E2,2.458685637E-1,2.065961361E-1,-8.852958679E-3
2.207949922E2,3.657948971E-2,4.249107838E-2,7.270145416E-2
2.212949922E2,2.491588593E-1,1.043088436E-1,-4.075241089E-2
2.217949922E2,1.352704763E-1,-1.004052162E-2,-1.725130081E-1
2.222949922E2,7.558286190E-2,6.923580170E-2,4.761981964E-2
2.227949922E2,-2.395782471E-1,-8.579389453E-1,-9.253215790E-2
2.232949922E2,-1.797738075E-1,2.321513891E-1,8.004188538E-2
2.237949922E2,5.781054497E-3,-2.498217821E-1,-3.068552017E-1
2.242949922E2,-1.092182398E-1,-3.655701876E-1,4.106788635E-1
2.247949922E2,-4.622706175E-1,-7.603743076E-1,-1.762981415E-1
2.252949922E2,-4.102087021E-2,-8.123669624E-1,-3.313808441E-1
2.257949922E2,-1.962877512E-1,-1.216143370E-1,2.724266052E-2
2.262949922E2,3.608573675E-1,-3.258979321E-2,-2.095413208E-2
2.267949922E2,1.695244312E-1,3.080499172E-1,6.892681122E-2
2.272949922E2,2.143760920E-1,6.929987669E-2,-2.027149200E-1
2.277949922E2,2.423880100E-1,-7.583740354E-2,-2.618726254E0
2.282949922E2,8.991932869E-2,2.225648165E-1,1.675136566E0
2.287949922E2,-8.587075472E-1,1.275509000E-1,-1.798610687E-1
2.292949922E2,-4.096550941E-1,-8.549845815E-1,-9.572410583E-1
2.297949922E2,-2.261030674E-1,1.362878084E-1,1.755546570E0
2.302949922E2,-3.076566458E-1,-6.359630823E-1,-1.432120323E0
2.307949922E2,-7.635378838E-2,-1.856034994E-1,2.634611130E-1
2.312949922E2,1.661038399E-2,-1.165918112E-1,-2.908687592E-1
2.317949922E2,8.828419447E-2,3.909552097E-2,-1.739597321E-2
2.322949922E2,7.242017984E-2,-1.432362795E-1,-5.073451996E-2
2.327949922E2,2.196270227E-2,2.269823551E-1,-9.674072266E-3
2.332949922E2,1.016181707E-2,7.661509514E-2,-1.399736404E-1
2.337949922E2,1.686537266E-2,4.183626175E-2,5.658149719E-3
2.342949922E2,-9.750050306E-2,-3.686404228E-2,-9.502410889E-2
2.347949922E2,4.806667566E-2,2.084528208E-1,6.667137146E-2
2.352949922E2,1.116407514E-1,5.196136236E-1,1.514030457E0
2.357949922E2,2.542366982E-1,4.852831364E-1,-4.427347183E-1
2.362949922E2,1.740756333E-1,-2.296352386E-2,-7.813558578E-1
2.367949922E2,1.269364357E-2,6.299005747E-1,1.503161430E0
2.372949922E2,4.515230954E-1,4.981939793E-1,-3.843307495E-1
2.377949922E2,-1.404119134E-1,7.279148102E-1,8.820724487E-1
2.382949922E2,3.154770136E-1,7.448402643E-1,6.743526459E-2
2.387949922E2,6.150108576E-2,4.536976814E-1,9.810161591E-2
2.392949922E2,8.117440343E-2,1.068136692E-1,-2.719593048E-2
2.397949922E2,-6.095618010E-3,5.383205414E-2,5.513000488E-2
2.402949922E2,1.160010695E-2,1.778512001E-1,-8.346843719E-2
2.407949922E2,-1.667623818E-1,7.703757286E-2,-4.195022583E-2
2.412949922E2,-7.583343983E-2,-3.648805618E-2,1.835060120E-2
2.417949922E2,1.455476135E-1,4.724097252E-2,3.523731232E-2
2.422949922E2,-9.730154276E-2,-1.877281666E-1,6.746292114E-3
2.427949922E2,-5.846595764E-2,-1.637694836E-1,2.237892151E-2
2.432949922E2,-7.277190685E-3,2.731180191E-2,1.395034790E-2
2.437949922E2,5.051434040E-2,4.545307159E-2,-2.110099792E-2
2.442949922E2,-5.321843624E-1,-8.119087219E-1,-2.552642822E-1
2.447949922E2,-4.412522316E-1,-9.514015913E-1,-8.346080780E-2
2.452949922E2,-1.314241290E-1,-4.838736057E-1,7.191658020E-3
2.457949922E2,-1.007272005E-1,-2.611070871E-1,-6.293296814E-3
2.462949922E2,-8.888143301E-2,-2.946615219E-2,2.979183197E-2
2.467949922E2,-3.047865629E-2,-7.694804668E-2,-2.757930756E-2
2.472949922E2,6.208002567E-3,2.147233486E-2,6.725406647E-2
2.477949922E2,3.053194284E-2,-3.053307533E-2,-3.791332245E-2
2.482949922E2,-5.831539631E-3,2.379786968E-2,1.513385773E-2
2.487949922E2,4.483807087E-2,2.899515629E-2,6.039524078E-2
2.492949922E2,7.096588612E-2,5.086660385E-3,-1.112270355E-2
2.497949922E2,-2.310252190E-2,1.173317432E-2,7.863044739E-3
2.502949922E2,-9.703934193E-3,7.573723793E-3,-2.017879486E-2
2.507949922E2,-1.255548000E-2,3.179907799E-3,-2.579021454E-2
2.512949922E2,6.117701530E-3,-9.690880775E-3,-8.367538452E-3
2.517949922E2,1.865273714E-2,-9.310245514E-5,1.223754883E-2
2.522949922E2,1.827484369E-2,4.540801048E-3,3.259658813E-3
2.527949922E2,-3.884911537E-3,-3.065943718E-3,1.303386688E-2
2.532949922E2,-9.521901608E-3,2.613663673E-2,-7.566452026E-3
2.537949922E2,1.971775293E-2,-1.693856716E-2,1.553726196E-2
2.542949922E2,2.427190542E-2,9.143829346E-3,-9.483337402E-3
2.547949922E2,-3.154635429E-2,-7.153868675E-3,1.416110992E-2
2.552949922E2,2.192854881E-3,3.876328468E-3,-4.141807556E-3
2.557949922E2,-7.606148720E-4,5.023121834E-3,9.313583374E-3
2.562949922E2,-9.833574295E-3,1.783454418E-2,-1.978874207E-3
2.567949922E2,4.733145237E-3,-1.853382587E-2,1.733493805E-2
2.572949922E2,5.397796631E-4,5.140900612E-3,7.496833801E-3
2.577949922E2,1.777458191E-2,3.671646118E-5,7.986068726E-3
2.582949922E2,5.181252956E-3,2.135646343E-2,3.738689423E-2
2.587949922E2,-1.209110022E-2,-1.247560978E-2,-5.331230164E-2
2.592949922E2,-1.540482044E-2,-8.932590485E-3,3.820419312E-3
2.597949922E2,-1.013553143E-2,-2.062904835E-2,-7.178306580E-3
2.602949922E2,-1.378494501E-1,-3.156932592E-1,4.415416718E-2
2.607949922E2,-4.294490814E-2,-1.747381687E-1,-1.078090668E-1
2.612949922E2,-3.876090050E-3,4.521769285E-2,1.147041321E-1
2.617949922E2,1.794815063E-3,-1.314450204E-1,-1.018905640E-1
2.622949922E2,-4.112720490E-2,-1.578821987E-1,1.846122742E-2
2.627949922E2,4.038715363E-2,6.113353372E-2,5.432987213E-2
2.632949922E2,-1.155412197E-2,2.524584532E-3,-4.708862305E-2
2.637949922E2,2.090239525E-2,-4.690322280E-2,2.585411072E-3
2.642949922E2,6.240570545E-2,-1.113731042E-1,-6.488227844E-2
2.647949922E2,7.369518280E-2,-1.204150617E-1,3.786945343E-2
2.652949922E2,-1.383903027E-1,1.333010755E-2,-4.012393951E-2
2.657949922E2,-3.171224594E-1,3.376451731E-1,2.516813278E-1
2.662949922E2,-3.212200403E-1,1.237315834E-1,1.617078781E-1
2.667949922E2,-4.546170235E-1,-3.588943928E-2,1.221370697E-1
2.672949922E2,6.590843201E-2,4.999752045E-1,3.854179382E-2
2.677949922E2,1.578135490E-1,2.569266558E-1,-4.144668579E-3
2.682949922E2,-3.058385849E-1,8.165621758E-1,-1.223564148E-1
2.687949922E2,-2.389986515E-1,3.303218484E-1,-3.916044235E-1
2.692949922E2,1.810240746E-2,8.020001054E-1,3.357429504E-1
2.697949922E2,-2.108621597E-2,6.240202188E-1,9.409904480E-3
2.702949922E2,3.274170160E-1,1.196597815E-1,1.130247116E-1
2.707949922E2,1.080949306E-1,-4.997014999E-3,-1.419458389E-1
2.712949922E2,4.981506467E-1,8.452715874E-1,1.007852554E-1
2.717949922E2,2.432661057E-1,5.726389885E-1,-3.036403656E-2
2.722949922E2,2.871911228E-1,2.050995827E-2,1.190280914E-2
2.727949922E2,6.185246706E-1,-2.332048416E-1,-1.640319824E-2
2.732949922E2,1.074733138E0,-1.464350224E-1,-6.691169739E-2
2.737949922E2,2.877779007E-1,5.230104923E-2,-3.776359558E-2
2.742949922E2,3.101483583E-1,8.347570896E-2,-1.422033310E-1
2.747949922E2,6.590759754E-2,1.367352605E-1,1.662044525E-1
2.752949922E2,-2.106081545E-1,2.394109964E-1,-2.928733826E-3
2.757949922E2,1.423388720E-2,1.373314261E-1,1.995086670E-1
2.762949922E2,-2.087155581E-1,1.933109164E-1,4.982948303E-3
2.767949922E2,-2.065450847E-1,1.856978238E-1,-3.071117401E-1
2.772949922E2,-1.092127323E0,2.155523002E-1,-1.440563202E-1
2.777949922E2,-5.872619748E-1,4.233069718E-2,-2.393722534E-4
2.782949922E2,-2.718858719E-1,1.617921740E-1,-3.220577240E-1
2.787949922E2,-2.386219501E-1,-7.882257551E-2,-9.872436523E-2
2.792949922E2,-2.473185062E-1,-2.118666098E-2,5.914402008E-2
2.797949922E2,-3.429257870E-2,-1.240566373E-3,-1.186685562E-1
2.802949922E2,1.018643379E-3,-1.870578527E-2,7.374763489E-2
2.807949922E2,-8.581161499E-3,1.465350389E-1,-5.136013031E-2
2.812949922E2,2.376449108E-2,1.222679913E-1,-9.466648102E-2
2.817949922E2,-7.992231846E-2,1.622412801E-1,2.585315704E-2
2.822949922E2,-1.687884331E-3,-3.394237161E-2,-1.194372177E-1
2.827949922E2,-1.884937286E-3,2.470552921E-2,-3.201293945E-2
2.832949922E2,1.346381903E-1,1.181204915E-1,7.675743103E-2
2.837949922E2,1.854302883E-1,2.666444778E-1,1.352024078E-1
2.842949922E2,1.656910181E-1,3.451585770E-3,-2.941751480E-1
2.847949922E2,1.747997999E-1,4.852180481E-1,4.457740784E-1
2.852949922E2,1.525099277E-1,6.211805344E-2,-2.740468979E-1
2.857949922E2,-6.581938267E-2,1.701742411E-1,3.666543961E-1
2.862949922E2,-6.099689007E-2,-3.771960735E-2,-6.276588440E-1
2.867949922E2,4.785668850E-2,4.402549267E-1,7.098255157E-1
2.872949922E2,2.463853359E-2,1.475788355E-1,-1.938886642E-1
2.877949922E2,8.674824238E-2,1.262938976E-2,-4.145622253E-3
2.882949922E2,3.803646564E-2,1.201936007E-1,-2.520885468E-1
2.887949922E2,-8.194065094E-2,3.342568874E-2,1.005582809E-1
2.892949922E2,9.355628490E-2,1.631827354E-1,7.400512695E-2
2.897949922E2,-5.895531178E-2,1.471531391E-1,-8.736610413E-2
2.902949922E2,-3.623676300E-2,2.094960213E-1,-6.057453156E-2
2.907949922E2,-1.716105938E-1,5.114793777E-3,1.141729355E-1
2.912949922E2,-1.337206364E-1,7.177519798E-2,3.898153305E-1
2.917949922E2,1.310002804E-1,-2.162810564E-1,-3.053722382E-1
2.922949922E2,3.061646223E-1,-4.914278984E-1,1.064157486E-1
2.927949922E2,1.222274303E0,-6.655688286E-1,-1.927747726E-1
2.932949922E2,1.106010437E0,-1.125076294E0,4.219055176E-2
2.937949922E2,3.738625050E-1,-4.886955619E-1,3.765649796E-1
2.942949922E2,3.192156553E-1,-5.528536439E-2,2.228250504E-1
2.947949922E2,-8.581875563E-1,-2.789433002E-1,-2.053318024E-1
2.952949922E2,-4.090539217E-1,-1.082895398E-1,-1.365194321E-1
2.957949922E2,-2.278356552E-1,-8.681112528E-2,-2.027893066E-2
2.962949922E2,-8.823370934E-2,-6.473834068E-2,-1.589965820E-2
2.967949922E2,-1.163256168E-2,4.029946327E-1,-1.464109421E-1
2.972949922E2,2.968794107E-1,6.774724722E-1,-2.169227600E-2
2.977949922E2,-3.450500965E-2,4.709708691E-1,1.136207581E-1
2.982949922E2,8.155596256E-2,2.903403044E-1,1.873302460E-2
2.987949922E2,6.875324249E-2,1.410932541E-1,-1.728677750E-1
2.992949922E2,1.609563828E-3,2.115210295E-1,8.616733551E-2
2.997949922E2,1.685845852E-1,5.094057322E-1,3.967857361E-1
3.002949922E2,4.511392117E-2,5.989062786E-2,-2.797574997E-1
3.007949922E2,1.295095682E-1,1.255364418E-1,1.379289627E-1
3.012949922E2,1.754677296E-2,9.904146194E-2,-4.348182678E-2
3.017949922E2,-2.286064625E-2,7.871317863E-2,2.174692154E-1
3.022949922E2,-7.469713688E-2,-2.300258875E-1,-1.149349213E-1
3.027949922E2,4.410147667E-3,1.476864815E-1,9.538364410E-2
3.032949922E2,-2.356439829E-1,4.132819176E-2,-1.033124924E-1
3.037949922E2,2.379545569E-1,-1.150995493E-1,-1.754817963E-1
3.042949922E2,-1.683372259E-1,3.125214577E-2,1.442108154E-1
3.047949922E2,-8.106493950E-2,-8.362543583E-2,-1.676225662E-1
3.052949922E2,2.258527279E-1,1.602928638E-1,1.438026428E-1
3.057949922E2,-2.609586716E-2,8.178639412E-2,-8.817005157E-2
3.062949922E2,2.130777836E-1,2.647793293E-1,1.368999481E-2
3.067949922E2,-1.013886929E-2,-1.383548141E0,-1.164674759E-1
3.072949922E2,-1.238818169E-1,-8.868994713E-1,1.685123444E-1
3.077949922E2,-1.893780231E-1,-5.269075632E-1,-1.327333450E-1
3.082949922E2,-1.003473997E-1,-2.608949542E-1,5.134582520E-2
3.087949922E2,-6.390178204E-2,-5.247533321E-2,8.072185516E-2
3.092949922E2,-2.270936966E-3,3.186941147E-3,7.777214050E-3
3.097949922E2,1.457810402E-2,2.033054829E-2,-5.252838135E-3
3.102949922E2,-1.798820496E-2,2.228915691E-3,6.359195709E-2
3.107949922E2,2.005183697E-2,1.245206594E-2,-2.764701843E-3
3.112949922E2,2.956688404E-2,1.825541258E-2,-2.350807190E-3
3.117949922E2,1.822078228E-2,3.181934357E-2,-1.006412506E-2
3.122949922E2,4.857420921E-3,9.618818760E-3,3.870964050E-3
3.127949922E2,-4.280173779E-2,-2.285450697E-2,2.737998962E-3
3.132949922E2,6.061792374E-3,-1.723361015E-2,2.580928802E-2
3.137949922E2,2.211248875E-2,1.213073730E-3,-6.743431091E-3
3.142949922E2,-1.046788692E-2,-5.647301674E-3,2.035999298E-2
3.147949922E2,4.692196846E-3,-2.394855022E-3,6.227493286E-4
3.152949922E2,2.477526665E-3,-1.464426517E-3,1.114368439E-2
3.157949922E2,-6.750226021E-3,-1.210504770E-2,7.143974304E-3
3.162949922E2,-7.638692856E-3,1.499176025E-3,6.832122803E-3
3.167949922E2,-9.155869484E-3,1.057177782E-2,-3.404617310E-3
3.172949922E2,1.354551315E-2,-1.945328712E-2,-2.759933472E-3
3.177949922E2,1.436233521E-2,6.628632545E-4,-9.679794312E-4
3.182949922E2,2.660906315E-2,2.853363752E-2,-1.437187195E-3
3.187949922E2,-8.168411255E-2,-5.531984568E-2,2.279949188E-2
3.192949922E2,2.507424355E-2,3.501814604E-2,2.777957916E-2
3.197949922E2,3.291189671E-2,-9.342968464E-3,-3.854179382E-2
3.202949922E2,-3.468918800E-2,-6.768763065E-3,7.746696472E-3
3.207949922E2,-2.466201782E-2,-1.789855957E-2,-2.107238770E-2
3.212949922E2,2.900719643E-3,3.241956234E-3,1.534461975E-3
3.217949922E2,2.534055710E-2,-1.088112593E-2,-9.221076965E-3
3.222949922E2,-1.057988405E-1,-2.226226926E-1,3.520011902E-3
3.227949922E2,-2.004911900E-1,-3.415540159E-1,2.822399139E-2
3.232949922E2,-6.822812557E-2,-2.393103987E-1,4.010200500E-3
3.237949922E2,1.518162489E-1,-6.755962968E-2,1.654434204E-2
3.242949922E2,2.159774303E-2,3.998965025E-3,1.631641388E-2
3.247949922E2,-2.175426483E-2,-4.995197058E-2,-1.416769028E-1
3.252949922E2,9.526252747E-2,1.374125481E-3,9.677982330E-2
3.257949922E2,-9.787416458E-2,-1.063627601E-1,-2.020368576E-1
3.262949922E2,-2.097742558E-1,-2.428802848E-1,1.087083817E-1
3.267949922E2,-9.976649284E-2,-1.395280957E-1,-1.562404633E-2
3.272949922E2,-8.420681953E-2,-1.049080491E-1,-4.787254333E-2
3.277949922E2,6.124436855E-1,1.017668247E0,-2.916164398E-1
3.282949922E2,3.324916363E-1,7.413525581E-1,1.548376083E-1
3.287949922E2,5.161666870E-2,2.532156408E-1,-1.638755798E-1
3.292949922E2,5.967068672E-2,2.358784229E-1,6.732368469E-2
3.297949922E2,-5.217671394E-2,-4.138946533E-2,3.443984985E-1
3.302949922E2,-3.906369209E-2,2.083238661E-1,-1.982431412E-1
3.307949922E2,-8.178472519E-3,-6.613323838E-2,-2.074527740E-2
3.312949922E2,-1.372549534E-1,2.294595242E-1,-3.107261658E-2
3.317949922E2,-5.097031593E-2,-8.734625578E-2,1.977748871E-1
3.322949922E2,2.084679604E-1,4.527415633E-1,-2.242860794E-1
3.327949922E2,3.641493320E-1,5.236877203E-1,1.124687195E-1
3.332949922E2,1.556828022E-1,2.018067241E-1,-1.094818115E-3
3.337949922E2,1.286096573E-1,4.853868484E-2,-1.500358582E-1
3.342949922E2,1.203743219E-1,4.109328985E-2,-1.427726746E-1
3.347949922E2,8.203232288E-2,3.745925426E-2,7.525062561E-2
3.352949922E2,9.683084488E-2,1.797307730E-1,3.307247162E-1
3.357949922E2,-2.088105679E-2,9.934532642E-2,-2.409152985E-1
3.362949922E2,-5.280971527E-4,-3.050565720E-4,-2.355051041E-1
3.367949922E2,8.605265617E-2,-3.315368891E-1,-6.081199646E-2
3.372949922E2,2.319298983E-1,-1.967354417E-1,-2.094545364E-1
3.377949922E2,2.337826490E-1,-1.434876919E-1,2.993659973E-1
3.382949922E2,2.510946989E-1,-3.610193729E-3,5.169525146E-1
3.387949922E2,4.064439535E-1,-2.569628954E-1,-1.045214653E0
3.392949922E2,-7.059152126E-1,-1.088064909E-2,-5.276041031E-1
3.397949922E2,-1.092269301E0,-3.687977791E-2,-2.848987579E-1
3.402949922E2,-5.342068672E-1,9.819543362E-2,-7.555875778E-1
3.407949922E2,-1.015352726E0,2.346514463E-1,4.867458344E-2
3.412949922E2,-8.168184757E-1,2.204044461E-1,-1.107120514E-1
3.417949922E2,-1.418192387E-1,1.108062863E-1,-9.987163544E-2
3.422949922E2,-1.823639870E-2,6.220912933E-2,1.017646790E-1
3.427949922E2,7.678914070E-2,1.531410217E-2,-2.076148987E-3
3.432949922E2,5.192685127E-2,-4.582357407E-2,7.928752899E-2
3.437949922E2,-2.535557747E-2,-2.134984732E-2,3.554630280E-2
3.442949922E2,1.073613167E-1,-9.352463484E-2,-4.062652588E-3
3.447949922E2,1.309956312E-1,-1.129036844E-1,-8.058834076E-2
3.452949922E2,-2.091908455E-2,-6.669564545E-2,1.565332413E-1
3.457949922E2,-1.246547699E-2,-8.321145177E-2,-8.598136902E-2
3.462949922E2,-1.265151501E-1,3.138131648E-2,1.643505096E-1
3.467949922E2,-1.895208359E-1,6.865657866E-3,-1.516122818E-1
3.472949922E2,4.014253616E-3,4.089514017E-1,-1.211566925E-1
3.477949922E2,-1.828482151E-1,-2.874885499E-1,-2.035751343E-1
3.482949922E2,2.095582485E-1,-2.174175680E-1,5.634689331E-2
3.487949922E2,7.248196602E-1,-2.099740654E-1,5.506057739E-1
3.492949922E2,7.877227068E-1,-3.004641533E-1,-2.101984024E-1
3.497949922E2,1.299873233E0,-2.952414751E-1,5.490789413E-1
3.502949922E2,1.550592303E0,-4.320145845E-1,-1.561117172E-1
3.507949922E2,2.665479183E-1,-9.645141661E-2,5.071544647E-1
3.512949922E2,2.590239644E-1,9.043295681E-2,-1.603221893E-2
3.517949922E2,1.445014775E-1,2.611431479E-2,-1.546869278E-1
3.522949922E2,4.516273737E-3,2.968419492E-1,2.757616043E-1
3.527949922E2,3.486848623E-2,1.421675980E-1,2.319335938E-1
3.532949922E2,2.995094955E-1,1.460722387E-1,-5.871105194E-2
3.537949922E2,3.313134909E-1,1.036587954E-1,-1.731977463E-1
3.542949922E2,8.532840014E-2,2.653775811E-1,2.465562820E-1
3.547949922E2,-2.873703837E-2,8.960929513E-2,-1.762008667E-2
3.552949922E2,-2.921661735E-2,3.188447952E-1,7.072639465E-2
3.557949922E2,-9.271438122E-1,-1.394867152E-2,-2.263488770E-1
3.562949922E2,-8.538215756E-1,-3.367067873E-2,-2.636079788E-1
3.567949922E2,-1.700268745E0,8.586107194E-2,-3.017387390E-1
3.572949922E2,-9.281890392E-1,8.611172438E-2,-8.883571625E-2
3.577949922E2,-2.447285652E-1,-5.976087600E-2,-1.005811691E-1
3.582949922E2,-1.571688652E-1,-2.502013743E-2,5.569648743E-2
3.587949922E2,-2.330470085E-2,-6.525233388E-3,-7.909679413E-2
3.592949922E2,-4.341340065E-2,-6.254217029E-2,-9.299755096E-2
3.597949922E2,-1.165404320E-1,-3.379413486E-2,1.182708740E-1
3.602949922E2,-2.020978928E-2,-5.354270339E-2,6.749057770E-2
3.607949922E2,3.223252296E-2,1.037672162E-1,-8.957576752E-2
3.612949922E2,8.736896515E-2,3.073545098E-1,-5.252742767E-2
3.617949922E2,-1.365053654E-1,1.267929077E-1,-8.877754211E-3
3.622949922E2,2.192044258E-2,7.558828592E-2,8.303546906E-2
3.627949922E2,-2.415213585E-1,-8.818057179E-2,-1.820163727E-1
3.632949922E2,1.106786728E-2,2.674288750E-1,1.124315262E-1
3.637949922E2,-7.105231285E-2,1.223197579E-1,-1.076269150E-1
3.642949922E2,-6.449580193E-2,3.952974081E-2,1.145553589E-2
3.647949922E2,-8.375883102E-2,5.471122265E-2,-1.247320175E-1
3.652949922E2,-1.028313637E-1,3.582799435E-2,-8.077144623E-2
3.657949922E2,-3.759241104E-2,7.744908333E-3,4.487705231E-2
3.662949922E2,2.605533600E-2,4.276311398E-2,9.514808655E-3
3.667949922E2,-3.194093704E-3,6.109678745E-2,-5.378913879E-2
3.672949922E2,-5.349802971E-2,5.877101421E-2,-1.015644073E-1
3.677949922E2,-1.177406311E-2,5.577743053E-2,-3.005313873E-2
3.682949922E2,2.899909019E-2,-2.856292129E-1,-4.823017120E-2
3.687949922E2,-5.642604828E-2,2.200794220E-2,2.606582642E-2
3.692949922E2,1.379787922E-1,-2.605074644E-1,7.756519318E-2
3.697949922E2,-1.175189018E-1,-8.373439312E-2,1.604557037E-2
3.702949922E2,-1.619551182E-1,5.043050051E-1,-9.107875824E-2
3.707949922E2,-1.725101471E-2,1.330211163E-1,-6.886768341E-2
3.712949922E2,-9.815788269E-2,4.226303101E-2,2.989482880E-2
3.717949922E2,8.496761322E-3,5.271673203E-2,6.086826324E-2
3.722949922E2,-2.452435493E-1,5.493319035E-2,-1.742353439E-1
3.727949922E2,2.317442894E-1,2.152221203E-1,1.634016037E-1
3.732949922E2,-4.077720642E-2,3.221390247E-1,-1.788663864E-1
3.737949922E2,2.068495750E-2,1.039102077E-1,2.330141068E-1
3.742949922E2,1.482462883E-2,4.741787910E-2,-1.109476089E-1
3.747949922E2,2.521662712E-1,3.295159340E-2,1.020574570E-1
3.752949922E2,1.158864498E-1,5.330991745E-2,-1.191329956E-2
3.757949922E2,9.348082542E-2,1.669740677E-2,4.314136505E-2
3.762949922E2,2.011380196E-1,5.296945572E-3,4.380512238E-2
3.767949922E2,1.944608688E-1,2.474830151E-1,-4.997158051E-2
3.772949922E2,6.656754017E-2,1.678240299E-1,1.468753815E-2
3.777949922E2,1.018036604E-1,7.502484322E-2,-7.056808472E-2
3.782949922E2,2.100627422E-1,1.960055828E-1,-3.181743622E-2
3.787949922E2,6.199955940E-3,4.394006729E-2,4.666423798E-2
3.792949922E2,8.478915691E-2,-2.465915680E-2,-1.247129440E-1
3.797949922E2,-1.013784409E-1,-1.140904427E-1,-2.688121796E-2
3.802949922E2,-1.785647869E-2,2.873897552E-2,-9.551048279E-3
3.807949922E2,7.689642906E-2,1.404798031E-1,-4.403591156E-2
3.812949922E2,2.083098888E-2,-5.701851845E-2,-5.494499207E-2
3.817949922E2,-6.449627876E-2,-7.218432426E-2,-9.751319885E-3
3.822949922E2,-4.783427715E-2,-8.977389336E-2,-7.727813721E-2
3.827949922E2,-6.484150887E-3,-9.129309654E-2,-2.600002289E-2
3.832949922E2,-1.252541542E-1,-1.100939512E-1,4.069328308E-3
3.837949922E2,-4.718089104E-2,-1.297724247E-2,-9.403228760E-3
3.842949922E2,1.160389185E-1,-1.331448555E-3,-9.052753448E-2
3.847949922E2,8.408951759E-2,1.653053761E-1,1.194639206E-1
3.852949922E2,2.058649063E-2,1.245026588E-1,-1.879978180E-2
3.857949922E2,1.913923025E-1,2.975151539E-1,-4.989910126E-2
3.862949922E2,3.111433983E-2,-1.256119490E0,-1.096754074E-1
3.867949922E2,-2.062598467E-1,-6.177388430E-1,1.188144684E-1
3.872949922E2,7.969141006E-3,-2.643096447E-1,-1.312932968E-1
3.877949922E2,1.322507858E-3,-9.399342537E-2,3.174495697E-2
3.882949922E2,-6.134688854E-2,-4.704916477E-2,-2.421665192E-2
3.887949922E2,9.794592857E-3,-1.036119461E-2,4.791164398E-2
3.892949922E2,-8.704674244E-2,-1.081604958E-1,-4.049968719E-2
3.897949922E2,-6.418848038E-2,-1.905310154E-2,1.331043243E-2
3.902949922E2,-3.400981426E-2,-2.202284336E-2,-1.536655426E-2
3.907949922E2,-4.095971584E-2,1.508414745E-2,3.878021240E-2
3.912949922E2,3.047096729E-2,-3.007292747E-2,-3.973102570E-2
3.917949922E2,1.875555515E-2,-2.618169785E-2,3.222179413E-2
3.922949922E2,6.176114082E-3,1.696228981E-3,1.443958282E-2
3.927949922E2,-5.010676384E-2,-7.735490799E-3,-1.316070557E-2
3.932949922E2,-2.815878391E-2,2.014636993E-3,7.061958313E-3
3.937949922E2,-3.014683723E-3,-2.443575859E-2,1.019287109E-2
3.942949922E2,1.249794960E-1,8.238613605E-2,-1.945590973E-2
3.947949922E2,-4.714488983E-3,-1.013791561E-2,-7.777214050E-3
3.952949922E2,-2.513337135E-2,-3.343939781E-3,-1.382541656E-2
3.957949922E2,-3.914237022E-3,-1.060092449E-2,1.616954803E-2
3.962949922E2,-2.303338051E-2,-9.816133976E-2,1.680650711E-1
3.967949922E2,-2.424705029E-2,4.755747318E-2,3.779983521E-2
3.972949922E2,-7.010197639E-2,1.073133945E-2,-8.732795715E-3
3.977949922E2,-2.193562984E-1,-1.544085741E-1,-3.530597687E-2
3.982949922E2,3.477752209E-1,9.634995461E-2,1.275892258E-1
3.987949922E2,2.591848373E-3,-2.152550220E-2,2.363586426E-2
3.992949922E2,1.284170151E-2,8.428812027E-3,-1.445102692E-2
3.997949922E2,-7.724881172E-3,-7.724642754E-3,3.355979919E-3
4.002949922E2,-6.803274155E-3,-2.065885067E-2,1.791763306E-2
4.007949922E2,1.001167297E-2,-4.343986511E-4,-1.016616821E-3
4.012949922E2,2.275145054E-2,3.643417358E-2,-7.689476013E-3
4.017949922E2,-6.869077682E-3,3.819465637E-4,4.777908325E-4
4.022949922E2,3.534901142E-2,-5.334615707E-3,3.819465637E-3
4.027949922E2,-2.026009560E-2,1.289868355E-2,6.960868835E-3
4.032949922E2,4.815983772E-2,-1.960647106E-2,1.397037506E-2
4.037949922E2,-7.247972488E-2,-9.162902832E-3,-3.623580933E-2
4.042949922E2,-3.528928757E-2,1.453006268E-2,1.429843903E-2
4.047949922E2,-1.238882542E-2,-1.352381706E-2,-5.661964417E-3
4.052949922E2,1.692056656E-3,-6.575584412E-3,3.159523010E-3
4.057949922E2,-1.001834869E-3,3.591895103E-3,2.286911011E-3
4.062949922E2,-1.599812508E-2,3.996133804E-3,1.136684418E-2
4.067949922E2,7.340788841E-3,4.318475723E-3,-4.301071167E-4
4.072949922E2,3.422856331E-3,7.026791573E-3,1.134300232E-2
4.077949922E2,-2.241575718E-2,-2.441048622E-2,6.801605225E-3
4.082949922E2,3.162634373E-2,-3.145933151E-3,2.005004883E-2
4.087949922E2,-4.079091549E-2,-2.943754196E-3,-3.129959106E-3
4.092949922E2,2.479553223E-4,1.988768578E-3,6.234169006E-3
4.097949922E2,1.937425137E-2,1.688539982E-2,-2.931594849E-3
4.102949922E2,3.631043434E-2,3.754985332E-2,-7.386207581E-3
4.107949922E2,1.506900787E-2,-2.570736408E-2,1.498508453E-2
4.112949922E2,-1.908183098E-2,-2.430915833E-3,-2.161502838E-2
4.117949922E2,8.704781532E-3,1.262533665E-2,9.346008301E-4
4.122949922E2,-2.056145668E-2,-1.396620274E-2,1.515007019E-2
4.127949922E2,-2.285206318E-2,6.553661823E-2,3.933334351E-2
4.132949922E2,2.824187279E-2,-4.086434841E-2,-2.167415619E-2
4.137949922E2,-9.599447250E-3,-4.708409309E-3,6.749153137E-3
4.142949922E2,4.557192326E-2,-8.205533028E-3,1.035022736E-2
4.147949922E2,-1.996350288E-2,-1.399456263E-1,5.788707733E-2
4.152949922E2,-8.635640144E-3,-2.234843373E-1,-9.422302246E-4
4.157949922E2,4.878449440E-2,-2.024329901E-1,8.896827698E-3
4.162949922E2,1.346145868E-1,-1.658064425E-1,1.464366913E-2
4.167949922E2,3.106677532E-2,-6.787247956E-2,1.861095428E-2
4.172949922E2,6.152510643E-2,5.957484245E-3,3.261852264E-2
4.177949922E2,2.987396717E-2,-3.606587648E-3,-6.204223633E-2
4.182949922E2,-4.917836189E-2,-4.287567735E-2,1.269226074E-1
4.187949922E2,2.671217918E-2,-8.960220963E-2,-1.468400955E-1
4.192949922E2,-1.377673149E-1,-2.042449862E-1,4.680347443E-2
4.197949922E2,-1.204903126E-1,-7.475335896E-2,-3.594875336E-2
4.202949922E2,-3.920459747E-2,-7.463851571E-2,1.064834595E-1
4.207949922E2,2.894043922E-2,-3.429755569E-1,8.932685852E-2
4.212949922E2,-8.095550537E-2,1.213343665E-1,1.518840790E-1
4.217949922E2,4.485774040E-2,2.198083103E-1,1.844406128E-1
4.222949922E2,6.532180309E-2,3.729673475E-2,-1.538400650E-1
4.227949922E2,2.224310637E-1,1.309912503E-1,9.566688538E-2
4.232949922E2,5.551683903E-2,2.889437228E-2,-1.185646057E-1
4.237949922E2,1.835606098E-1,-4.704901576E-2,1.486825943E-1
4.242949922E2,-3.637182713E-2,-4.958895594E-2,1.770973206E-2
4.247949922E2,3.638231754E-2,-1.252044737E-2,4.606246948E-4
4.252949922E2,-3.259778023E-3,-8.327342570E-3,-3.802299500E-3
4.257949922E2,-7.115244865E-3,-1.522172987E-2,2.479553223E-2
4.262949922E2,-2.725827694E-2,-1.038975641E-1,7.432651520E-2
4.267949922E2,1.783670187E-1,7.768720388E-3,-9.277915955E-2
4.272949922E2,-2.647551298E-1,7.038816810E-2,1.551399231E-1
4.277949922E2,-8.798801899E-2,1.304881275E-1,9.310722351E-2
4.282949922E2,-7.318139076E-2,1.832133532E-2,-8.528614044E-2
4.287949922E2,-3.381252289E-3,4.358279705E-2,5.654430389E-2
4.292949922E2,6.022310257E-2,-9.016516805E-2,-9.992885590E-2
4.297949922E2,8.377194405E-2,4.550597072E-2,-3.193683624E-1
4.302949922E2,1.239180565E-2,1.329375207E-1,-3.943443298E-3
4.307949922E2,2.048932314E-1,1.708554029E-1,-2.681856155E-1
4.312949922E2,1.537704468E-2,1.768952012E-1,2.604265213E-1
4.317949922E2,6.576514244E-2,8.078688383E-2,-6.452846527E-2
4.322949922E2,8.201599121E-5,7.147908211E-3,1.218004227E-1
4.327949922E2,1.851595640E-1,-1.415798664E-1,-6.640720367E-2
4.332949922E2,-2.623169422E-1,1.516103745E-1,-2.797603607E-2
4.337949922E2,-4.315209389E-2,-1.543879509E-2,-3.102779388E-2
4.342949922E2,-7.429981232E-2,3.478932381E-2,9.491443634E-2
4.347949922E2,-6.923246384E-2,-1.028645039E-2,7.898235321E-2
4.352949922E2,-9.570121765E-3,4.475247860E-2,5.097675323E-2
4.357949922E2,-2.719092369E-2,1.240980625E-2,-5.340099335E-2
4.362949922E2,-1.666579247E-1,-5.565536022E-2,-7.538795471E-2
4.367949922E2,3.925991058E-2,8.353114128E-3,-2.840518951E-2
4.372949922E2,2.857271433E-1,6.253063679E-2,4.035282135E-2
4.377949922E2,1.764855385E-1,4.700756073E-2,1.042842865E-1
4.382949922E2,2.897170782E-1,-5.924725533E-2,-6.607913971E-2
4.387949922E2,3.772496581E-1,-1.174050570E-2,3.882694244E-2
4.392949922E2,-4.406690598E-1,-1.532804966E-2,-4.683790207E-1
4.397949922E2,-9.607894421E-1,2.382653952E-2,-1.304473877E-1
4.402949922E2,-1.214187384E0,2.761595249E-1,-1.722240448E-1
4.407949922E2,-9.066374302E-1,1.986088753E-1,-3.081264496E-1
4.412949922E2,-3.396549225E-1,6.525409222E-2,-1.216325760E-1
4.417949922E2,-3.537335396E-1,-1.177359819E-1,-3.261852264E-2
4.422949922E2,7.308530807E-2,1.047483683E-1,-6.874370575E-2
4.427949922E2,-1.490683556E-1,-3.622770309E-4,-3.065490723E-2
4.432949922E2,2.464294434E-3,1.068831682E-1,-3.101062775E-2
4.437949922E2,-3.430891037E-2,8.728778362E-2,-2.077960968E-2
4.442949922E2,8.484840393E-3,-3.812730312E-3,2.480697632E-2
4.447949922E2,9.580564499E-2,5.195701122E-2,-7.445430756E-2
4.452949922E2,1.660904884E-1,-1.359581947E-4,7.674312592E-2
4.457949922E2,2.712810040E-1,5.305641890E-2,5.949401855E-2
4.462949922E2,6.579418182E-1,-9.665662050E-2,-8.697891235E-2
4.467949922E2,6.103637218E-1,-1.864584237E-1,2.326040268E-1
4.472949922E2,3.085224628E-1,-5.240966380E-2,-1.197700500E-1
4.477949922E2,4.259538651E-2,-9.948776662E-2,9.262371063E-2
4.482949922E2,6.059384346E-2,4.365472496E-2,-1.562795639E-1
4.487949922E2,1.520335674E-1,2.442736626E-1,-9.936618805E-2
4.492949922E2,-1.079094410E-1,2.486400306E-1,4.765272141E-1
4.497949922E2,1.042284966E-1,1.419097781E-1,1.408491135E-1
4.502949922E2,-7.944893837E-2,1.039549708E-1,1.734066010E-1
4.507949922E2,4.557895660E-2,3.116005659E-2,-6.450462341E-2
4.512949922E2,8.814585209E-2,1.017481089E-1,4.813861847E-2
4.517949922E2,7.358789444E-3,-4.265248775E-3,-7.658100128E-2
4.522949922E2,-1.407694817E-1,-1.097279787E-2,1.331443787E-1
4.527949922E2,1.655697823E-2,1.545703411E-1,-1.927604675E-1
4.532949922E2,2.266991138E-2,3.006942272E-1,-1.051445007E-1
4.537949922E2,1.073404551E-1,-9.688115120E-2,-7.279205322E-2
4.542949922E2,-6.757652760E-2,-2.115976810E-2,2.033796310E-1
4.547949922E2,1.291164160E-1,-1.367452145E-1,4.136371613E-2
4.552949922E2,-2.077186108E-2,-2.250980735E-1,8.043479919E-2
4.557949922E2,-1.513814926E-2,-9.609162807E-2,7.759857178E-2
4.562949922E2,2.646297216E-1,2.690042257E-1,6.312370300E-3
4.567949922E2,1.323947906E-1,-2.211081982E-2,4.203891754E-2
4.572949922E2,6.229960918E-2,-4.408812523E-2,9.764003754E-2
4.577949922E2,3.965240717E-2,-1.351334453E-1,2.828502655E-2
4.582949922E2,-1.550590992E-2,-9.646946192E-2,1.704559326E-1
4.587949922E2,1.107638776E-1,7.741153240E-3,1.146125793E-2
4.592949922E2,7.643583417E-2,2.743011713E-2,1.307802200E-1
4.597949922E2,-1.909998059E-2,9.311354160E-2,1.436901093E-2
4.602949922E2,-9.629160166E-3,6.030362844E-2,3.585910797E-2
4.607949922E2,6.938147545E-2,3.002794981E-1,1.351165771E-2
4.612949922E2,-2.188473940E-2,6.236183643E-2,-7.507324219E-2
4.617949922E2,-1.629704833E-1,3.162558079E-1,-6.427097321E-2
4.622949922E2,-7.335474491E-1,2.161500454E-1,-2.148456573E-1
4.627949922E2,-5.529848337E-1,1.095274687E-1,-1.693859100E-1
4.632949922E2,-1.188724041E-1,1.690690517E-1,-5.685901642E-2
4.637949922E2,6.271195412E-2,1.729345322E-1,-4.529953003E-4
4.642949922E2,-4.080026150E-1,-1.553471088E-1,-1.179571152E-1
4.647949922E2,-1.146929264E-1,8.723306656E-2,1.774692535E-2
4.652949922E2,-2.504682541E-2,-1.730394363E-2,-1.434984207E-1
4.657949922E2,-8.945131302E-2,5.804514885E-2,2.545452118E-2
4.662949922E2,-5.760598183E-2,-2.316045761E-2,3.766918182E-2
4.667949922E2,3.478145599E-2,-1.012995243E-1,1.662540436E-2
4.672949922E2,1.620991230E-1,-1.347532272E-1,-5.626678467E-5
4.677949922E2,4.728984833E-2,-8.094477654E-2,1.547336578E-2
4.682949922E2,7.998228073E-3,-7.970595360E-2,1.088380814E-1
4.687949922E2,2.538490295E-2,-7.015776634E-2,2.392768860E-3
4.692949922E2,-1.515388489E-3,4.554295540E-2,5.768489838E-2
4.697949922E2,1.332265139E-1,-4.061341286E-2,3.355789185E-2
4.702949922E2,1.207563877E-1,-1.322627068E-2,-2.278327942E-3
4.707949922E2,-5.433452129E-2,-2.627611160E-3,-2.338123322E-2
4.712949922E2,-2.237085104E-1,-9.670019150E-3,2.242183685E-2
4.717949922E2,9.305655956E-2,1.201298237E-1,5.635261536E-3
4.722949922E2,-1.786017418E-2,8.003234863E-2,-6.881237030E-2
4.727949922E2,-7.364165783E-2,-1.524615288E-2,3.841400146E-3
4.732949922E2,-6.983876228E-3,1.548902988E-1,-3.848171234E-2
4.737949922E2,1.179826260E-2,1.735906601E-1,-9.155273438E-2
4.742949922E2,4.919660091E-2,1.662538052E-1,-2.403163910E-2
4.747949922E2,3.596675396E-2,6.833457947E-2,-2.510929108E-2
4.752949922E2,-3.332866430E-1,-1.443746805E0,6.151819229E-1
4.757949922E2,-3.748118877E-2,-6.743602753E-1,9.923839569E-2
4.762949922E2,-1.711639166E-1,-3.172912598E-1,9.592723846E-2
4.767949922E2,2.091491222E-2,-1.192326546E-1,5.457401276E-2
4.772949922E2,9.238600731E-3,-3.065752983E-2,4.111576080E-2
4.777949922E2,2.218604088E-2,-2.573227882E-2,6.449699402E-3
4.782949922E2,2.470695972E-2,1.952767372E-2,-1.744747162E-2
4.787949922E2,-5.447721481E-2,3.149700165E-2,-2.428627014E-2
4.792949922E2,-6.730306149E-2,6.711483002E-4,6.661796570E-2
4.797949922E2,8.811891079E-2,3.229379654E-3,4.590892792E-2
4.802949922E2,-1.319229603E-2,2.654504776E-2,1.031494141E-2
4.807949922E2,3.283023834E-4,-7.629156113E-3,-2.561187744E-2
4.812949922E2,-1.367597580E-1,-2.733945847E-3,-3.991508484E-2
4.817949922E2,8.527129889E-2,-2.042675018E-2,3.791713715E-2
4.822949922E2,-3.403347731E-2,-1.204204559E-2,-4.149436951E-3
4.827949922E2,7.375735044E-2,3.378891945E-2,3.367328644E-2
4.832949922E2,6.794095039E-3,6.059408188E-3,-1.023960114E-2
4.837949922E2,-2.621656656E-2,8.455753326E-3,-6.514549255E-3
4.842949922E2,1.428365707E-2,6.364393234E-2,-1.075172424E-2
4.847949922E2,-5.064660311E-2,-8.478403091E-3,-9.003639221E-3
4.852949922E2,-6.780505180E-3,-8.022785187E-4,4.270553589E-3
4.857949922E2,-8.096873760E-3,2.694153786E-2,2.171802521E-2
4.862949922E2,-6.573259830E-3,-5.463838577E-3,3.715133667E-2
4.867949922E2,-1.449179649E-2,-3.541851044E-2,2.202796936E-2
4.872949922E2,7.521271706E-2,9.185576439E-2,7.751464844E-3
4.877949922E2,-3.691703081E-2,4.387855530E-2,7.442378998E-2
4.882949922E2,1.520520449E-2,-2.826094627E-2,-2.106666565E-2
4.887949922E2,2.766591311E-2,1.398706436E-2,9.230613708E-3
4.892949922E2,3.823417425E-2,-3.396534920E-2,-1.315116882E-3
4.897949922E2,8.421844244E-2,-1.433956623E-1,7.004737854E-3
4.902949922E2,-3.804737329E-2,-2.562689781E-2,-6.597328186E-2
4.907949922E2,8.688277006E-2,3.235197067E-2,9.341526031E-2
4.912949922E2,-4.276013374E-2,-2.617757320E-1,1.591205597E-2
4.917949922E2,-9.011626244E-3,-3.545415401E-2,-1.053333282E-2
4.922949922E2,4.693001509E-2,3.976416588E-2,1.013278961E-2
4.927949922E2,1.341944933E-2,-5.890369415E-3,-6.306457520E-2
4.932949922E2,1.522898674E-2,-6.956088543E-2,-1.507186890E-2
4.937949922E2,1.374453306E-2,-7.667863369E-2,3.523826599E-2
4.942949922E2,-1.021031141E-1,-1.585363150E-1,5.186748505E-2
4.947949922E2,-9.645271301E-2,-2.321094275E-1,4.780769348E-2
4.952949922E2,-7.731759548E-2,-8.123028278E-2,8.016109467E-2
4.957949922E2,2.764257193E-1,8.901178837E-2,-8.424663544E-2
4.962949922E2,3.227823377E-1,2.333950996E-1,-1.661720276E-1
4.967949922E2,-1.174241304E-1,-9.537172318E-2,1.649799347E-1
4.972949922E2,-1.530494690E-1,1.836299896E-1,-1.572999954E-1
4.977949922E2,1.348210573E-1,2.254326344E-1,-4.615497589E-2
4.982949922E2,7.378578186E-3,-4.850363731E-2,5.730152130E-2
4.987949922E2,6.623947620E-2,-3.054928780E-2,4.916477203E-2
4.992949922E2,1.289830208E-1,-2.807238102E-1,-5.836486816E-4
4.997949922E2,-2.298963070E-1,1.024519205E0,-7.989559174E-1
5.002949922E2,1.462824345E-1,-2.034211159E-1,2.133169174E-1
5.007949922E2,7.152485847E-2,2.862172127E-1,-1.580991745E-1
5.012949922E2,1.690554619E-2,2.617707253E-1,3.605842590E-3
5.017949922E2,1.891733408E-1,1.038815975E-1,6.847763062E-2
5.022949922E2,6.124603748E-2,-5.595922470E-3,6.561374664E-2
5.027949922E2,1.359932423E-1,-2.875971794E-2,1.791734695E-1
5.032949922E2,1.723853946E-1,-1.002423763E-1,-7.532119751E-2
5.037949922E2,2.311043590E-1,3.047823906E-2,3.537654877E-2
5.042949922E2,1.845151633E-1,3.670573235E-2,-4.802227020E-2
5.047949922E2,1.906101108E-1,2.275013924E-2,1.203632355E-2
5.052949922E2,5.898182094E-2,1.684803963E-1,6.932735443E-2
5.057949922E2,-6.677694619E-3,8.459162712E-2,5.597972870E-2
5.062949922E2,4.677852988E-2,1.394684315E-1,5.284786224E-2
5.067949922E2,-2.212328911E-1,7.882618904E-2,-1.835603714E-1
5.072949922E2,-2.708696723E-1,3.260235786E-1,-6.840133667E-2
5.077949922E2,-1.123640537E-1,4.736661911E-2,-1.609411240E-1
5.082949922E2,-1.586577892E-1,1.129300594E-1,1.049757004E-1
5.087949922E2,-1.041871309E-1,-1.319575310E-2,-1.416902542E-1
5.092949922E2,-6.044626236E-3,7.254123688E-3,-4.598522186E-2
5.097949922E2,-6.706750393E-2,2.296185493E-2,1.510334015E-2
5.102949922E2,-5.183446407E-2,2.601146698E-4,-9.166812897E-2
5.107949922E2,3.502213955E-2,1.074504852E-1,-3.030681610E-2
5.112949922E2,1.370505095E-1,2.208464146E-1,3.138542175E-3
5.117949922E2,-1.700758934E-2,-2.320857048E-1,-8.159160614E-2
5.122949922E2,3.789949417E-2,9.380006790E-2,1.109628677E-1
5.127949922E2,-3.750324249E-3,1.734352112E-2,-2.398490906E-2
5.132949922E2,3.370893002E-2,1.138186455E-1,1.092176437E-1
5.137949922E2,4.332900047E-3,-1.189091206E-1,4.663372040E-2
5.142949922E2,2.648830414E-4,-8.907103539E-2,9.106636047E-2
5.147949922E2,-3.013551235E-2,-1.920008659E-2,-1.272201538E-3
5.152949922E2,-7.004642487E-2,-4.823994637E-2,2.869129181E-2
5.157949922E2,-1.038368940E-1,-3.432846069E-1,1.324872971E-1
5.162949922E2,4.251706600E-1,5.674715042E-1,-4.531059265E-1
5.167949922E2,2.083373070E-2,2.772550583E-1,-2.431325912E-1
5.172949922E2,9.040534496E-2,6.059432030E-1,-1.090660095E-1
5.177949922E2,1.120445728E-1,2.174720764E-1,3.234100342E-2
5.182949922E2,1.339039803E-1,4.409074783E-3,-3.519248962E-2
5.187949922E2,7.893323898E-3,-2.450482845E-1,-2.648496628E-1
5.192949922E2,1.814615726E-2,5.856275558E-3,2.200441360E-1
5.197949922E2,-2.659070492E-2,-9.199309349E-2,9.953498840E-2
5.202949922E2,3.447437286E-2,-1.595520973E-2,-1.319169998E-1
5.207949922E2,-1.241385937E-1,2.966535091E-1,-1.240730286E-3
5.212949922E2,-6.692242622E-2,2.693383694E-1,-1.412572861E-1
5.217949922E2,1.060225964E-1,7.942104340E-2,-9.255695343E-2
5.222949922E2,2.885675430E-2,-5.931329727E-2,-3.989696503E-2
5.227949922E2,-3.232741356E-2,9.322786331E-2,6.355381012E-2
5.232949922E2,6.112992764E-2,4.885530472E-2,7.994747162E-2
5.237949922E2,1.078335047E-1,4.272034168E-1,-1.475048065E-2
5.242949922E2,1.683981419E-1,4.612472057E-1,-2.054796219E-1
5.247949922E2,5.761659145E-2,1.636362076E-1,2.178831100E-1
5.252949922E2,5.866527557E-3,9.502077103E-2,1.561737061E-2
5.257949922E2,4.267740250E-2,7.836246490E-2,7.048797607E-2
5.262949922E2,-3.000223637E-2,-1.100895405E-1,2.065277100E-2
5.267949922E2,3.140580654E-2,-1.087107658E-1,2.289581299E-2
5.272949922E2,-3.501176834E-3,-1.532192230E-1,7.855224609E-2
5.277949922E2,-1.561886072E-1,-2.907114029E-1,1.806564331E-1
5.282949922E2,-1.879272461E-1,-5.689203739E-1,7.244205475E-2
5.287949922E2,5.035054684E-2,-7.791209221E-2,6.700992584E-2
5.292949922E2,-1.170754433E-2,-1.992166042E-1,3.478813171E-2
5.297949922E2,-5.914199352E-2,6.944179535E-2,-3.998851776E-2
5.302949922E2,-8.750355244E-2,8.994293213E-2,-8.911037445E-2
5.307949922E2,-1.000046730E-1,1.038763523E-1,-9.916019440E-2
5.312949922E2,-2.458469868E-1,2.313349247E-1,1.104516983E-1
5.317949922E2,-1.125733852E-1,9.268116951E-2,-2.022733688E-1
5.322949922E2,-3.204798698E-2,3.474760056E-2,-1.319360733E-1
5.327949922E2,-1.005103588E-1,1.092464924E-1,8.016109467E-2
5.332949922E2,-1.203584671E-1,1.811137199E-1,-5.682563782E-2
5.337949922E2,-3.228735924E-2,1.242299080E-1,-1.784887314E-1
5.342949922E2,-1.070826054E-1,2.236866951E-2,-8.142757416E-2
5.347949922E2,-1.649546623E-2,-7.076883316E-2,1.114082336E-1
5.352949922E2,1.483893394E-2,2.892081738E-1,2.719173431E-1
5.357949922E2,-5.771398544E-3,2.247037888E-1,-3.847599030E-2
5.362949922E2,8.639400005E-1,-8.284711838E-2,4.873466492E-2
5.367949922E2,1.053027153E0,2.101502419E-1,2.662963867E-1
5.372949922E2,4.787687063E-1,5.206370354E-2,-1.612920761E-1
5.377949922E2,9.917962551E-2,7.730603218E-2,3.400897980E-1
5.382949922E2,-4.450273514E-2,-3.652310371E-2,1.030721664E-1
5.387949922E2,-1.250016689E-2,3.482837677E-1,1.961040497E-2
5.392949922E2,2.346026897E-2,2.282705307E-1,-6.871032715E-2
5.397949922E2,1.215094328E-1,3.488516808E-2,-1.348619461E-1
5.402949922E2,1.333158016E-1,2.395696640E-1,-2.554874420E-1
5.407949922E2,-2.548670769E-2,2.157676220E-1,-2.380466461E-2
5.412949922E2,7.745397091E-2,2.107901573E-1,-2.986526489E-2
5.417949922E2,3.149771690E-2,1.087625027E-1,3.808116913E-2
5.422949922E2,-2.578556538E-2,8.063077927E-3,-1.728477478E-1
5.427949922E2,-3.838455677E-2,-7.320713997E-2,-4.096031189E-3
5.432949922E2,8.763539791E-2,3.819274902E-2,-3.063201904E-3
5.437949922E2,-1.266980171E-2,-4.720425606E-2,-3.670501709E-2
5.442949922E2,7.166385651E-3,3.296382427E-1,-7.638645172E-2
5.447949922E2,-4.388093948E-4,-5.366802216E-4,-1.785182953E-2
5.452949922E2,2.545428276E-2,1.758921146E-1,-1.533203125E-1
5.457949922E2,-1.692004204E-1,-2.234711647E-1,3.171634674E-2
5.462949922E2,6.656599045E-2,2.788352966E-1,-1.258172989E-1
5.467949922E2,5.477499962E-2,-1.504175663E-1,-1.440725327E-1
5.472949922E2,-4.220521450E-2,-7.330846786E-2,9.358501434E-2
5.477949922E2,-6.676304340E-2,-7.173371315E-2,-4.174327850E-2
5.482949922E2,2.417325974E-2,-2.936387062E-2,-9.779930115E-3
5.487949922E2,1.258583069E-1,2.511336803E-1,-1.412143707E-1
5.492949922E2,1.163533926E-1,2.198274136E-1,-5.392265320E-2
5.497949922E2,-7.876205444E-2,-2.525317669E-1,-1.891202927E-1
5.502949922E2,-5.359387398E-2,-2.794265747E-4,1.190996170E-1
5.507949922E2,2.368366718E-2,-1.035928726E-3,2.184867859E-2
5.512949922E2,-3.784215450E-2,1.206703186E-1,6.704330444E-3
5.517949922E2,-6.436240673E-2,-1.379296780E-1,-6.105899811E-2
5.522949922E2,-2.558588982E-3,-4.819488525E-2,1.880798340E-1
5.527949922E2,-1.846432686E-3,-1.771688461E-1,-1.357145309E-1
5.532949922E2,-5.828058720E-2,-2.011182308E-1,4.798889160E-3
5.537949922E2,-1.042644978E-1,-3.054676056E-1,1.041746140E-1
5.542949922E2,-8.935272694E-2,-2.378712893E-1,-4.770278931E-2
5.547949922E2,-1.577070951E-1,-2.467168570E-1,2.615451813E-2
5.552949922E2,3.327238560E-2,-1.522887945E-1,7.110881805E-2
5.557949922E2,-1.311100721E-1,-8.382177353E-2,2.939605713E-2
5.562949922E2,1.041759253E-1,-5.948042870E-2,-4.612445831E-2
5.567949922E2,9.694862366E-2,9.940234423E-1,-3.355560303E-1
5.572949922E2,7.296764851E-1,8.795734644E-1,-2.638683319E-1
5.577949922E2,3.974019885E-1,4.681842327E-1,-7.901573181E-2
5.582949922E2,1.456668675E-1,2.032220364E-1,-9.322643280E-2
5.587949922E2,1.058606207E-1,-3.116174936E-1,3.410720825E-2
5.592949922E2,4.203307033E-1,8.213317394E-1,-4.242992401E-1
5.597949922E2,3.986944556E-1,4.322063923E-2,-2.756557465E-1
5.602949922E2,1.108822525E-1,1.327061653E-2,1.667261124E-1
5.607949922E2,1.745665371E-1,-1.103777885E-1,-3.048324585E-2
5.612949922E2,3.392490745E-2,2.231184244E-1,2.012414932E-1
5.617949922E2,-3.891419172E-1,-4.074550867E-1,-1.975908279E-1
5.622949922E2,7.212608457E-1,3.619519472E-1,-1.944189072E-1
5.627949922E2,-4.949369431E-1,1.059108377E-1,-3.861608505E-1
5.632949922E2,-9.608814120E-1,1.374536753E-1,1.029891968E-1
5.637949922E2,-2.397006750E-1,7.180829644E-1,-3.309030533E-1
5.642949922E2,-4.297752380E-1,3.845998645E-1,-2.280282974E-1
5.647949922E2,-1.221077442E-1,2.879479527E-1,-1.256380081E-1
5.652949922E2,-8.942115307E-2,5.229842663E-2,-9.639453888E-2
5.657949922E2,-9.566593170E-2,6.655216217E-3,-7.590293884E-3
5.662949922E2,-2.424359322E-3,2.563393116E-2,-8.847236633E-3
5.667949922E2,5.456209183E-3,3.776359558E-2,1.171875000E-2
5.672949922E2,5.289661884E-2,5.149865150E-2,-9.686946869E-2
5.677949922E2,-5.726337433E-2,2.573740482E-2,1.802024841E-1
5.682949922E2,1.769385338E-1,1.947001219E-1,-3.681306839E-1
5.687949922E2,1.781393290E-1,4.354565144E-1,-2.238073349E-1
5.692949922E2,1.104310751E-1,5.203163624E-2,4.613018036E-2
5.697949922E2,-5.807888508E-2,1.097656488E-1,-4.536628723E-3
5.702949922E2,-1.578797102E-1,-7.003366947E-2,-1.600027084E-1
5.707949922E2,1.158400774E-1,6.989264488E-2,4.993343353E-2
5.712949922E2,-6.586611271E-2,-3.509521484E-3,-2.708721161E-2
5.717949922E2,1.016626358E-1,-4.305851460E-2,2.072057724E-1
5.722949922E2,-6.598842144E-2,9.135580063E-2,-7.266998291E-3
5.727949922E2,9.164190292E-2,-1.510775089E-2,-1.364259720E-1
5.732949922E2,-9.857571125E-2,9.473145008E-2,3.599252701E-1
5.737949922E2,5.396986008E-2,-8.287262917E-2,-1.582803726E-1
5.742949922E2,-2.505445480E-2,8.036839962E-2,2.117147446E-1
5.747949922E2,5.733501911E-2,-2.824330330E-2,-1.694707870E-1
5.752949922E2,1.660947800E-1,2.327493429E-1,-1.259326935E-1
5.757949922E2,3.316450119E-2,4.240429401E-2,2.264242172E-1
5.762949922E2,9.417092800E-2,-7.581079006E-2,-1.855792999E-1
5.767949922E2,-3.945422173E-2,8.044302464E-2,1.338186264E-1
5.772949922E2,-3.940463066E-3,-5.991590023E-2,-1.544027328E-1
5.777949922E2,7.782757282E-2,2.845358849E-2,-7.057189941E-2
5.782949922E2,1.126859188E-1,-4.474020004E-2,-1.840591431E-1
5.787949922E2,-1.189793348E-1,1.095173359E-1,2.872152328E-1
5.792949922E2,7.213771343E-2,-4.820370674E-2,-5.722713470E-2
5.797949922E2,-2.275264263E-2,5.311334133E-2,1.556835175E-1
5.802949922E2,3.754806519E-2,-5.575716496E-2,-1.924943924E-1
5.807949922E2,-1.865158081E-1,8.293783665E-2,2.277622223E-1
5.812949922E2,-5.369234085E-2,-2.071595192E-2,-7.046890259E-2
5.817949922E2,-1.782617569E-1,9.909355640E-2,3.265857697E-2
5.822949922E2,-2.343559265E-2,8.102500439E-2,-2.377309799E-1
5.827949922E2,1.469142437E-1,-5.842292309E-2,-1.178607941E-1
5.832949922E2,3.597593307E-2,9.353363514E-2,1.209630966E-1
5.837949922E2,9.292292595E-2,8.467197418E-3,8.059120178E-2
5.842949922E2,4.766725302E-1,-1.473670006E-1,-1.939430237E-1
5.847949922E2,6.183757782E-1,-3.019142151E-2,4.597730637E-1
5.852949922E2,6.449594498E-1,-2.666532993E-2,2.764759064E-1
5.857949922E2,2.488556504E-1,-1.753803492E-1,-4.249477386E-2
5.862949922E2,-2.537717819E-1,2.001079321E-1,5.113935471E-1
5.867949922E2,-4.422396421E-1,1.459907293E-1,1.173820496E-1
5.872949922E2,-2.333804369E-1,-3.523731232E-2,-2.206134796E-2
5.877949922E2,-1.447967291E-1,1.093046665E-1,1.632509232E-1
5.882949922E2,1.622768641E-1,2.080250978E-1,-1.660594940E-1
5.887949922E2,-3.510429859E-1,1.249281168E-1,3.777046204E-1
5.892949922E2,3.072166443E-2,-2.439159155E-1,-3.240861893E-1
5.897949922E2,-1.031298637E-1,2.219254971E-1,4.532260895E-1
5.902949922E2,1.827462912E-1,-1.165192127E-1,-4.743671417E-1
5.907949922E2,-2.027633190E-1,1.658185720E-1,4.299297333E-1
5.912949922E2,2.987658978E-2,-2.040234804E-1,-4.719743729E-1
5.917949922E2,-1.449748278E-1,-1.865552664E-1,-1.615819931E-1
5.922949922E2,1.284079552E-1,3.725922108E-2,1.061544418E-1
5.927949922E2,3.876507282E-2,1.664972305E-2,-1.514625549E-2
5.932949922E2,3.872406483E-2,4.843568802E-2,-1.347322464E-1
5.937949922E2,1.216887236E-1,1.506071091E-1,6.040763855E-2
5.942949922E2,-8.801448345E-2,2.937793732E-2,-1.000976562E-2
5.947949922E2,1.565840244E-1,9.242081642E-2,1.260833740E-1
5.952949922E2,-5.380952358E-2,-9.498715401E-2,-2.738447189E-1
5.957949922E2,7.486391068E-2,3.602159023E-2,1.400279999E-2
5.962949922E2,-1.197493076E-2,-1.735079288E-2,5.125904083E-2
5.967949922E2,5.010128021E-3,2.117633820E-2,-1.519737244E-1
5.972949922E2,-1.901130676E-1,-2.989554405E-2,4.949474335E-2
5.977949922E2,-1.412792206E-1,6.141817570E-2,-4.595756531E-2
5.982949922E2,-1.291247606E-1,-9.113681316E-2,-1.076841354E-1
5.987949922E2,1.498159170E-1,2.201576233E-1,3.175411224E-1
5.992949922E2,-4.074144363E-2,-1.153644323E-1,-5.339460373E-1
5.997949922E2,1.667343378E-1,9.038448334E-2,-5.733489990E-3
6.002949922E2,1.558201313E-1,8.209776878E-2,-2.947235107E-2
6.007949922E2,4.291808605E-2,2.467513084E-2,2.969570160E-1
6.012949922E2,1.005351543E-1,5.142188072E-2,-3.465366364E-2
6.017949922E2,-1.941447258E-1,-5.596101284E-2,4.913806915E-2
6.022949922E2,-1.431144476E-1,-8.855152130E-2,4.137229919E-2
6.027949922E2,-7.959258556E-2,-1.288834810E-1,4.446887970E-2
6.032949922E2,8.006477356E-2,9.989762306E-2,-1.820449829E-1
6.037949922E2,2.736568451E-2,-6.067407131E-2,-3.559150696E-1
6.042949922E2,-8.780252934E-2,-7.280802727E-2,8.795833588E-2
6.047949922E2,2.158379555E-2,-7.435929775E-2,1.269435883E-2
6.052949922E2,-4.010796547E-3,3.863978386E-2,-1.341218948E-1
6.057949922E2,6.416904926E-2,3.296375275E-2,-1.514616013E-1
6.062949922E2,1.486635208E-2,-1.315704584E-1,-1.919689178E-1
6.067949922E2,-4.814028740E-2,7.907247543E-2,7.225294113E-1
6.072949922E2,2.020859718E-1,8.607792854E-2,-2.462425232E-1
6.077949922E2,5.987000465E-2,2.668492794E-1,2.910337448E-1
6.082949922E2,-1.891813278E-1,-7.805109024E-3,5.862350464E-1
6.087949922E2,-1.524733305E-1,-5.374944210E-2,1.879024506E-2
6.092949922E2,-2.158057690E-2,1.501679420E-2,3.643703461E-2
6.097949922E2,-7.628250122E-2,7.110309601E-2,3.533449173E-1
6.102949922E2,1.962810755E-1,1.821024418E-1,1.160039902E-1
6.107949922E2,1.234610081E-1,9.585142136E-3,-1.333656311E-1
6.112949922E2,9.215819836E-2,1.379451752E-1,2.660732269E-1
6.117949922E2,-1.001321077E-1,-8.652925491E-3,-7.020006180E-1
6.122949922E2,9.761166573E-2,-1.371464729E-1,-2.583036423E-1
6.127949922E2,4.329333305E-1,-1.712875366E-1,-4.285955429E-1
6.132949922E2,-3.390431404E-2,4.223728180E-2,3.140363693E-1
6.137949922E2,-2.004146576E-3,-1.505403519E-1,8.211517334E-2
6.142949922E2,4.789102077E-2,-1.507234573E-2,-2.287578583E-2
6.147949922E2,-6.376385689E-3,5.799317360E-2,2.866659164E-1
6.152949922E2,-9.003233910E-2,-5.301499367E-2,7.279109955E-2
6.157949922E2,6.714546680E-2,1.041705608E-1,3.183078766E-2
6.162949922E2,4.360532761E-2,1.485800743E-2,-1.724939346E-1
6.167949922E2,-4.740381241E-2,-6.226515770E-2,-4.501867294E-1
6.172949922E2,-6.210672855E-2,-5.808734894E-2,-2.708787918E-1
6.177949922E2,-6.313705444E-1,2.104821205E-1,5.714979172E-1
6.182949922E2,-1.578284502E-1,4.127335548E-2,2.293634415E-1
6.187949922E2,-6.479761600E-1,3.746664524E-1,2.397422791E-1
6.192949922E2,-2.162537575E-1,-1.996755600E-3,-3.054590225E-1
6.197949922E2,6.426322460E-2,-5.638360977E-3,-8.144283295E-2
6.202949922E2,-5.302500725E-2,-6.359314919E-2,3.764152527E-3
6.207949922E2,1.989053488E-1,-3.269743919E-2,-6.261377335E-1
6.212949922E2,1.069864035E-1,2.277591228E-1,9.827899933E-2
6.217949922E2,5.988705158E-2,-1.300086975E-1,-6.461820602E-1
6.222949922E2,3.098094463E-2,7.628607750E-2,6.188392639E-3
6.227949922E2,-1.397312880E-1,-1.391668320E-1,-4.558753967E-2
6.232949922E2,-1.043539047E-1,-5.318355560E-2,1.344118118E-1
6.237949922E2,5.118167400E-2,-7.409811020E-3,5.745124817E-2
6.242949922E2,-4.762208462E-2,-1.223444939E-2,2.356138229E-1
6.247949922E2,4.265940189E-2,-3.365445137E-2,-3.106412888E-1
6.252949922E2,1.076925993E-1,1.089379787E-1,9.315013885E-2
6.257949922E2,-2.311575413E-2,2.315068245E-2,-1.878213882E-1
6.262949922E2,-8.794069290E-3,3.404045105E-2,-5.758190155E-2
6.267949922E2,6.248080730E-2,2.161765099E-2,-1.764087677E-1
6.272949922E2,-2.239705324E-1,-1.036760807E-1,-3.946905136E-1
6.277949922E2,3.295910358E-2,1.084704399E-1,1.202201843E-1
6.282949922E2,-1.582682133E-2,-7.632279396E-2,-1.330080032E-1
6.287949922E2,-2.687382698E-1,1.504845619E-1,5.910701752E-1
6.292949922E2,2.298069000E-2,-3.187727928E-2,-1.394529343E-1
6.297949922E2,-1.128405333E-1,1.611194611E-1,5.382566452E-1
6.302949922E2,1.098893285E-1,-5.247402191E-2,-3.297061920E-1
6.307949922E2,3.275644779E-2,1.222774982E-1,2.486848831E-1
6.312949922E2,-1.440423727E-1,-1.486845016E-1,-4.588022232E-1
6.317949922E2,-6.492686272E-2,1.058039665E-1,3.536033630E-2
6.322949922E2,-9.728002548E-2,-1.367952824E-1,-2.284193039E-1
6.327949922E2,-1.067372561E-1,1.212120056E-3,1.228322983E-1
6.332949922E2,-5.539584160E-2,5.460143089E-2,3.527488708E-1
6.337949922E2,-4.366862774E-2,-9.899353981E-2,7.128620148E-2
6.342949922E2,7.719528675E-2,1.552271843E-2,-8.079242706E-2
6.347949922E2,-2.332115173E-2,6.297469139E-2,3.197698593E-1
6.352949922E2,-2.263736725E-2,1.071455479E-1,1.266870499E-1
6.357949922E2,9.811007977E-2,-8.087158203E-4,-3.483839035E-1
6.362949922E2,2.806651592E-2,-2.618985176E-1,-7.839555740E-1
6.367949922E2,-4.377126694E-3,9.082818031E-2,3.780584335E-1
6.372949922E2,-9.304165840E-2,-4.632854462E-2,-6.474113464E-2
6.377949922E2,-1.622328758E-1,-1.194045544E-1,1.520528793E-1
6.382949922E2,-5.959868431E-2,2.053778172E-1,6.044521332E-1
6.387949922E2,8.936476707E-2,-2.391951084E-1,-5.309629440E-1
6.392949922E2,-6.281745434E-2,4.182100296E-2,5.417299271E-1
6.397949922E2,6.759798527E-2,-9.013676643E-2,-4.479732513E-1
6.402949922E2,1.464366913E-2,-1.307487488E-3,1.829233170E-1
6.407949922E2,-4.856705666E-3,6.352448463E-2,9.208011627E-2
6.412949922E2,1.585656404E-2,-4.570865631E-2,-3.881282806E-1
6.417949922E2,-1.364247203E-1,-5.199527740E-2,8.933067322E-2
6.422949922E2,-5.566662550E-2,4.169964790E-2,-5.407428741E-2
6.427949922E2,7.982325554E-2,-7.524895668E-2,-1.657428741E-1
6.432949922E2,-2.411328554E-1,1.630024910E-1,7.206459045E-1
6.437949922E2,4.371267557E-2,-6.353187561E-2,-2.510766983E-1
6.442949922E2,4.334712029E-2,8.329701424E-2,2.265577316E-1
6.447949922E2,-1.437538862E-2,-5.913138390E-2,-5.621042252E-1
6.452949922E2,3.479558229E-2,4.414575100E-1,6.852045059E-1
6.457949922E2,3.487835526E-1,1.044099331E-1,1.477279663E-1
6.462949922E2,-4.330856204E-1,1.586914062E-3,2.372055054E-1
6.467949922E2,-8.754301071E-2,3.564610481E-1,1.475676537E0
6.472949922E2,-3.783971071E-2,-2.651276588E-1,-4.966077805E-1
6.477949922E2,-4.092472792E-2,1.845674515E-1,3.967943192E-1
6.482949922E2,-2.025210857E-2,-3.377270699E-2,1.386241913E-1
6.487949922E2,9.515148401E-2,2.559473515E-1,2.511568069E-1
6.492949922E2,8.874851465E-2,-3.632109165E-1,-1.092308998E0
6.497949922E2,-2.108054757E-1,-1.476700306E-1,-2.944984436E-1
6.502949922E2,9.376424551E-2,-1.298859119E-1,-2.178888321E-1
6.507949922E2,-9.087824821E-2,-4.225111008E-2,2.124633789E-1
6.512949922E2,-7.746863365E-2,-9.356379509E-2,1.906156540E-1
6.517949922E2,1.191496849E-2,-2.341246605E-2,5.434989929E-3
6.522949922E2,7.332694530E-2,7.598066330E-2,4.482202530E-1
6.527949922E2,3.572130203E-2,-1.618762016E-1,-1.428194046E-1
6.532949922E2,-2.639871836E-2,6.702828407E-2,1.559152603E-1
6.537949922E2,1.192553043E-1,-2.360749245E-2,-1.631956100E-1
6.542949922E2,2.279287577E-2,4.111990929E-1,-2.152919769E-2
6.547949922E2,9.083342552E-2,2.514290810E-2,-7.248048782E-1
6.552949922E2,-2.147678733E-1,1.493310928E-1,2.691488266E-1
6.557949922E2,-6.022697687E-2,1.684880257E-2,1.077260971E-1
6.562949922E2,8.269160986E-2,-8.424520493E-3,-2.564496994E-1
6.567949922E2,-1.343393326E-2,2.610702515E-1,5.748825073E-1
6.572949922E2,2.696955204E-2,1.499032974E-2,2.003383636E-1
6.577949922E2,-1.095046401E-1,-1.398587227E-2,7.445240021E-2
6.582949922E2,8.026307821E-2,3.010702133E-2,-7.944011688E-2
6.587949922E2,5.652153492E-2,8.044815063E-2,-2.221012115E-2
6.592949922E2,2.692478895E-2,9.597301483E-3,1.222076416E-1
6.597949922E2,1.049977541E-1,3.601908684E-2,-2.559375763E-2
6.602949922E2,-6.577020884E-2,-1.097662449E-1,-4.452800751E-2
6.607949922E2,6.663465500E-2,-8.937835693E-3,3.051223755E-1
6.612949922E2,-5.053931475E-2,3.339362144E-2,2.677774429E-1
6.617949922E2,-2.773064375E-2,-1.424796581E-1,-2.236700058E-1
6.622949922E2,-8.074647188E-2,1.421921253E-1,6.630496979E-1
6.627949922E2,8.283960819E-2,-8.031034470E-2,-1.374578476E-1
6.632949922E2,-4.756760597E-2,2.905201912E-2,1.302022934E-1
6.637949922E2,9.367102385E-2,4.742002487E-2,-2.980327606E-2
6.642949922E2,9.521096945E-2,4.861950874E-2,-1.193342209E-1
6.647949922E2,2.398383617E-2,-4.566216469E-2,-2.683095932E-1
6.652949922E2,-1.161563993E-1,5.968499184E-2,2.512416840E-1
6.657949922E2,6.377264261E-1,4.687356949E-2,-3.437118530E-1
6.662949922E2,7.567817569E-1,-4.309206009E-1,-8.510656357E-1
6.667949922E2,6.157637835E-1,1.047315598E-1,4.262351990E-1
6.672949922E2,1.332693100E0,-6.761751175E-1,-2.893381119E-1
6.677949922E2,2.221727073E-1,-1.961896420E-1,7.971572876E-2
6.682949922E2,3.961895704E-1,-6.000494957E-1,-5.172405243E-1
6.687949922E2,-8.572188020E-2,-2.475788593E-1,6.217479706E-2
6.692949922E2,-8.292716742E-2,-1.775214672E-1,-2.312469482E-1
6.697949922E2,-2.236007750E-1,1.161820889E-1,1.422004700E-1
6.702949922E2,-4.705184698E-1,-2.529673576E-1,-1.490926743E-1
6.707949922E2,-7.377539873E-1,-1.518273354E-2,7.324409485E-2
6.712949922E2,-1.088708639E-1,-2.587532997E-2,-2.866744995E-1
6.717949922E2,-2.867595553E-1,-6.338763237E-2,-2.163200378E-1
6.722949922E2,-7.126420736E-2,2.499413490E-2,4.674339294E-2
6.727949922E2,-4.468154907E-2,2.341914177E-2,-1.732091904E-1
6.732949922E2,-1.637977958E-1,2.181553841E-2,1.610498428E-1
6.737949922E2,6.341922283E-2,1.178929806E-1,-2.104501724E-1
6.742949922E2,1.181882024E-1,2.157313824E-1,-1.827726364E-1
6.747949922E2,1.608792543E-1,2.547433376E-1,1.647472382E-1
6.752949922E2,4.167014956E-1,2.029895782E-2,-6.127662659E-1
6.757949922E2,5.305314064E-2,-5.436658859E-3,-1.299285889E-1
6.762949922E2,1.367745399E-1,-5.570769310E-2,-2.794179916E-1
6.767949922E2,1.588300467E-1,5.415296555E-2,-1.362609863E-2
6.772949922E2,-1.639144421E-1,-3.725790977E-2,-6.075954437E-2
6.777949922E2,9.857654572E-3,-7.433915138E-2,-7.101821899E-2
6.782949922E2,-2.110493183E-2,3.453803062E-2,-7.867908478E-2
6.787949922E2,-6.141304970E-3,2.381086349E-3,7.078838348E-2
6.792949922E2,-4.388225079E-2,-9.413218498E-2,-1.406078339E-1
6.797949922E2,-2.317762375E-2,9.915471077E-2,1.781892776E-1
6.802949922E2,5.606544018E-2,-5.117368698E-2,-1.319246292E-1
6.807949922E2,-7.446777821E-2,1.594092846E-1,2.533798218E-1
6.812949922E2,8.917367458E-2,2.195191383E-2,3.503322601E-2
6.817949922E2,2.306187153E-2,3.378319740E-2,-2.426433563E-2
6.822949922E2,1.083072424E-1,3.567028046E-2,-9.240627289E-2
6.827949922E2,4.180431366E-3,6.635665894E-2,7.839775085E-2
6.832949922E2,1.950933337E-1,-1.680467129E-1,-3.844270706E-1
6.837949922E2,7.475471497E-2,1.377863884E-1,3.459081650E-1
6.842949922E2,4.246401787E-2,-4.508090019E-2,-1.839752197E-1
6.847949922E2,-3.025329113E-2,7.864356041E-2,1.866693497E-1
6.852949922E2,-3.861498833E-2,-3.594994545E-2,3.721332550E-2
6.857949922E2,-1.234393120E-1,3.571915627E-2,6.437015533E-2
6.862949922E2,-8.376765251E-2,1.092679501E-1,-2.464704514E-1
6.867949922E2,-1.571547985E-1,6.283416748E-1,3.671216965E-1
6.872949922E2,1.254677773E-2,-1.437158585E-1,-2.661895752E-2
6.877949922E2,-5.180752277E-2,2.160625458E-1,8.359146118E-2
6.882949922E2,-5.135929585E-2,-1.230309010E-1,-8.432865143E-2
6.887949922E2,1.389415264E-1,9.763622284E-2,1.922130585E-2
6.892949922E2,2.579331398E-2,7.460260391E-2,-7.489871979E-2
6.897949922E2,3.155934811E-2,1.342003345E-1,9.215831757E-2
6.902949922E2,-1.065886021E-2,-4.884195328E-2,6.321430206E-2
6.907949922E2,4.740875959E-2,1.981139183E-2,1.321783066E-1
6.912949922E2,7.892566919E-2,7.715225220E-3,-3.677272797E-2
6.917949922E2,1.311439276E-2,-2.197773457E-1,2.076740265E-1
6.922949922E2,8.901029825E-2,-1.085994244E-1,-2.752304077E-2
6.927949922E2,1.008528471E-2,3.648519516E-3,-2.055168152E-2
6.932949922E2,2.024474740E-2,-1.043629646E-2,-1.178703308E-1
6.937949922E2,-2.738124132E-2,1.754746437E-1,3.175230026E-1
6.942949922E2,-6.659185886E-2,-1.236107349E-1,1.120271683E-1
6.947949922E2,-8.427021503E-1,-9.620165825E-2,1.046676636E-1
6.952949922E2,-8.171108961E-1,-2.897779942E-1,-4.160318375E-1
6.957949922E2,-2.798931599E-1,-2.015564442E-1,-7.613468170E-2
6.962949922E2,-1.610271931E-1,-6.671023369E-2,-9.403228760E-3
6.967949922E2,-5.882239342E-2,-1.428899765E-1,-5.128383636E-2
6.972949922E2,-3.171887398E-1,-2.549571991E-1,5.842781067E-2
6.977949922E2,4.873250723E-1,1.933023930E-1,1.737756729E-1
6.982949922E2,8.080239892E-1,9.245991707E-2,1.932182312E-1
6.987949922E2,5.269023180E-1,9.134292603E-3,2.008972168E-1
6.992949922E2,1.018025875E-1,1.954250336E-1,1.529207230E-1
6.997949922E2,2.436695099E-1,5.049185753E-1,-3.729915619E-2
7.002949922E2,7.283031940E-2,-9.009814262E-2,-7.138156891E-2
7.007949922E2,1.384443045E-1,-2.046577930E-1,1.097106934E-2
7.012949922E2,-1.520329714E-1,5.233798027E-1,-2.057275772E-1
7.017949922E2,1.491993666E-1,2.055661678E-1,-3.716754913E-2
7.022949922E2,-1.766494513E-1,-1.396224499E-1,1.305608749E-1
7.027949922E2,-9.407198429E-2,-2.384178638E-1,-1.094713211E-1
7.032949922E2,-2.221643925E-2,-1.010987759E-1,1.538095474E-1
7.037949922E2,3.812646866E-2,-5.445647240E-2,-5.391407013E-2
7.042949922E2,-9.140551090E-2,-8.394622803E-2,1.979045868E-1
7.047949922E2,1.111960411E-1,-1.316092014E-1,-1.128606796E-1
7.052949922E2,8.456945419E-3,-4.512906075E-2,-1.819038391E-2
7.057949922E2,-2.230799198E-2,-6.637334824E-3,1.457309723E-2
7.062949922E2,-2.536523342E-2,-8.747875690E-2,7.322311401E-3
7.067949922E2,2.571296692E-2,-2.184176445E-2,8.923530579E-3
7.072949922E2,2.692830563E-2,1.582958698E-1,-1.434478760E-1
7.077949922E2,1.200255156E-1,3.263647556E-1,-1.574993134E-2
7.082949922E2,7.030797005E-2,7.945275307E-2,-9.393978119E-2
7.087949922E2,5.789613724E-2,1.282892227E-1,1.404285431E-2
7.092949922E2,1.208925247E-2,-5.835592747E-1,-2.360401154E-1
7.097949922E2,-1.249461174E-1,-6.940834522E-1,4.174232483E-3
7.102949922E2,-9.042644501E-2,-4.798476696E-1,-9.960174561E-3
7.107949922E2,-2.287566662E-2,-2.019582987E-1,8.552837372E-2
7.112949922E2,1.325404644E-2,-5.797755718E-2,-6.694793701E-3
7.117949922E2,6.062150002E-3,1.444101334E-3,1.208591461E-2
7.122949922E2,7.982134819E-3,-4.603028297E-3,-1.082515717E-2
7.127949922E2,1.596057415E-2,-4.571938515E-2,-2.484416962E-2
7.132949922E2,-5.274355412E-2,3.728556633E-2,1.222944260E-1
7.137949922E2,-1.380968094E-2,-8.416295052E-3,-7.547378540E-3
7.142949922E2,-9.816408157E-3,3.781855106E-2,1.493930817E-2
7.147949922E2,5.443811417E-3,-8.607506752E-3,3.373146057E-3
7.152949922E2,1.278603077E-2,7.115602493E-3,1.485633850E-2
7.157949922E2,-8.904099464E-3,-7.090210915E-3,1.142215729E-2
7.162949922E2,1.653587818E-2,1.582777500E-2,9.302139282E-3
7.167949922E2,2.331960201E-2,1.846015453E-2,-2.739906311E-3
7.172949922E2,-4.193878174E-2,1.434838772E-2,-1.171970367E-2
7.177949922E2,2.164530754E-2,-2.277386189E-2,2.683639526E-3
7.182949922E2,1.343095303E-2,6.834149361E-3,1.626110077E-2
7.187949922E2,-3.279566765E-3,4.823565483E-3,2.731323242E-3
7.192949922E2,-7.803797722E-3,2.314674854E-2,1.165390015E-2
7.197949922E2,3.966796398E-2,-1.159739494E-2,9.641647339E-3
7.202949922E2,4.444241524E-3,2.949118614E-3,6.821632385E-3
7.207949922E2,-1.001974344E-1,7.777678967E-2,-1.788396835E-1
7.212949922E2,7.196545601E-3,6.304979324E-3,2.701759338E-3
7.217949922E2,-1.575314999E-2,-4.286646843E-3,1.536464691E-2
7.222949922E2,5.832433701E-3,-5.503058434E-3,-2.929687500E-3
7.227949922E2,-2.085530758E-2,-1.848959923E-2,-5.931854248E-4
7.232949922E2,1.257359982E-2,-1.948130131E-2,-5.717277527E-3
7.237949922E2,-6.383657455E-4,-9.493350983E-3,9.980201721E-3
7.242949922E2,-1.180291176E-3,6.700038910E-3,1.608848572E-3
7.247949922E2,-3.378868103E-3,1.220130920E-2,-5.021095276E-3
7.252949922E2,1.007556915E-2,-1.649808884E-2,1.995563507E-2
7.257949922E2,2.972781658E-2,6.286263466E-3,1.034069061E-2
7.262949922E2,-1.489424706E-2,1.638185978E-2,-5.503654480E-3
7.267949922E2,-1.892042160E-2,-4.091143608E-3,9.431838989E-4
7.272949922E2,3.463959694E-2,-2.932369709E-2,4.818916321E-3
7.277949922E2,7.114052773E-3,8.508324623E-3,6.672859192E-3
7.282949922E2,5.826592445E-3,-7.689118385E-3,9.913444519E-3
7.287949922E2,5.780696869E-3,1.108264923E-2,1.830482483E-2
7.292949922E2,-4.129469395E-2,2.505624294E-2,-2.499389648E-2
7.297949922E2,-1.364755630E-2,-2.083384991E-2,-9.319305420E-3
7.302949922E2,6.705522537E-3,-9.267330170E-4,7.320404053E-3
7.307949922E2,5.026662350E-2,1.144647598E-2,-1.135349274E-2
7.312949922E2,9.945273399E-3,-2.574253082E-2,3.265380859E-3
7.317949922E2,1.641094685E-2,1.618623734E-2,1.046180725E-3
7.322949922E2,-7.688474655E-2,-1.200056076E-2,-4.799842834E-3
7.327949922E2,-2.898478508E-2,1.838171482E-2,-4.737377167E-2
7.332949922E2,9.755969048E-3,-4.411184788E-2,-1.550006866E-2
7.337949922E2,4.466891289E-3,1.733934879E-2,3.992366791E-2
7.342949922E2,-9.883415699E-2,-2.313982248E-1,3.035354614E-2
7.347949922E2,8.136510849E-2,-8.865272999E-2,-4.699611664E-2
7.352949922E2,2.792048454E-2,-2.009987831E-3,-3.625869751E-2
7.357949922E2,4.762887955E-2,-1.140631437E-1,4.764842987E-2
7.362949922E2,-6.932473183E-2,-1.929899454E-1,-9.098052979E-3
7.367949922E2,-3.977823257E-2,8.041620255E-3,1.710577011E-1
7.372949922E2,3.752338886E-2,5.891203880E-3,-3.059101105E-2
7.377949922E2,-4.982793331E-2,-2.143603563E-2,7.218647003E-2
7.382949922E2,-5.082261562E-2,-2.073133588E-1,-7.252597809E-2
7.387949922E2,-1.420929432E-1,-1.657684147E-1,1.979160309E-2
7.392949922E2,-1.201503277E-1,-8.099031448E-2,-1.169586182E-2
7.397949922E2,-4.922366142E-2,-7.032126188E-2,1.415386200E-1
7.402949922E2,2.825852633E-1,8.916680217E-1,-3.920516968E-1
7.407949922E2,-9.684133530E-2,2.147579193E-2,1.439161301E-1
7.412949922E2,2.480435371E-2,7.775011659E-2,-2.157621384E-1
7.417949922E2,3.933322430E-2,4.836058617E-2,-1.049766541E-1
7.422949922E2,2.015212774E-1,3.289570212E-1,4.023742676E-2
7.427949922E2,-1.136389971E-1,2.494733334E-1,-2.965450287E-2
7.432949922E2,-2.482581139E-2,2.279927731E-1,-2.671899796E-1
7.437949922E2,-6.885039806E-2,1.642149687E-1,3.056039810E-1
7.442949922E2,2.904117107E-2,1.806989908E-1,-3.012752533E-2
7.447949922E2,1.521478891E-1,-2.257732153E-1,-3.257846832E-1
7.452949922E2,4.359734058E-2,2.583752871E-1,7.888917923E-1
7.457949922E2,6.400179863E-2,1.497535706E-1,7.615280151E-1
7.462949922E2,2.878688574E-1,2.885752320E-1,1.347694397E-1
7.467949922E2,-2.430105209E-2,-4.791498184E-2,-3.582906723E-1
7.472949922E2,-4.161753654E-1,1.920233965E-1,6.527843475E-1
7.477949922E2,-4.450857639E-1,4.269897938E-1,1.801776886E-2
7.482949922E2,-4.833602905E-1,5.854558945E-2,-3.682813644E-1
7.487949922E2,-4.928438663E-1,-2.069504261E-1,-4.171094894E-1
7.492949922E2,-5.534498692E-1,3.468251228E-2,8.342905045E-1
7.497949922E2,-3.323297501E-1,-6.120622158E-2,-1.952953339E-1
7.502949922E2,-2.116403580E-1,-8.621585369E-2,-4.083185196E-1
7.507949922E2,-2.885746956E-2,1.570292711E-1,7.628393173E-1
7.512949922E2,-3.021240234E-2,8.271646500E-2,3.083276749E-1
7.517949922E2,2.615666389E-2,6.453227997E-2,-1.728534698E-2
7.522949922E2,9.374737740E-2,-3.294253349E-2,-2.505426407E-1
7.527949922E2,1.619403362E-1,3.973400593E-2,1.346120834E-1
7.532949922E2,-9.001564980E-2,1.434447765E-1,1.543292999E-1
7.537949922E2,2.866084576E-1,1.191418171E-1,-2.954702377E-1
7.542949922E2,3.049439192E-1,-5.377256870E-2,-1.467819214E-1
7.547949922E2,2.094801664E-1,3.740143776E-2,1.264152527E-1
7.552949922E2,1.347100735E-2,-4.617571831E-3,4.159069061E-2
7.557949922E2,1.980564594E-1,3.091275692E-2,-1.570701599E-2
7.562949922E2,-1.018500328E-1,-7.058519125E-2,-8.246421814E-3
7.567949922E2,-2.247178555E-2,9.824347496E-2,1.980752945E-1
7.572949922E2,5.284011364E-2,5.548357964E-3,-1.213235855E-1
7.577949922E2,-9.732520580E-2,5.055367947E-2,1.483974457E-1
7.582949922E2,-3.011667728E-2,-1.854479313E-2,-8.537769318E-2
7.587949922E2,-6.659185886E-2,2.866387367E-2,1.352605820E-1
7.592949922E2,6.732308865E-2,-5.552113056E-2,-1.349515915E-1
7.597949922E2,-4.172074795E-2,4.844427109E-2,2.376079559E-1
7.602949922E2,2.966761589E-3,5.536234379E-2,9.448528290E-2
7.607949922E2,4.231297970E-2,1.040133238E-1,3.975486755E-2
7.612949922E2,5.260455608E-2,-6.084740162E-2,-2.044153214E-1
7.617949922E2,-4.557538033E-2,-3.599429131E-2,-1.294050217E-1
7.622949922E2,-4.880154133E-2,-2.445304394E-2,1.974105835E-3
7.627949922E2,5.044198036E-2,-1.353561878E-2,-1.328029633E-1
7.632949922E2,-7.466065884E-2,8.331537247E-3,1.420688629E-1
7.637949922E2,-1.993083954E-2,-7.683765888E-2,-9.948825836E-2
7.642949922E2,-3.124237061E-3,6.843268871E-2,-1.182813644E-1
7.647949922E2,-5.065917969E-2,2.053487301E-2,8.439731598E-2
7.652949922E2,-2.163887024E-3,1.666092873E-2,-4.552459717E-2
7.657949922E2,1.047084332E-1,-4.096496105E-2,-3.255624771E-1
7.662949922E2,-1.060843468E-2,1.116597652E-2,1.949739456E-1
7.667949922E2,-1.466012001E-2,4.990625381E-2,1.204814911E-1
7.672949922E2,1.402151585E-1,-4.104363918E-2,-2.936477661E-1
7.677949922E2,-9.366893768E-2,7.984399796E-2,2.495756149E-1
7.682949922E2,5.084562302E-2,3.218090534E-2,-1.101284027E-1
7.687949922E2,-7.838487625E-3,-5.983173847E-2,-3.072690964E-1
7.692949922E2,3.819537163E-2,7.105374336E-2,1.482896805E-1
7.697949922E2,9.478330612E-3,-1.967179775E-2,-7.120037079E-2
7.702949922E2,3.520250320E-3,6.639814377E-2,1.599187851E-1
7.707949922E2,1.774787903E-2,-2.936422825E-2,-8.219146729E-2
7.712949922E2,-3.363490105E-2,1.143363714E-1,2.533931732E-1
7.717949922E2,3.166699409E-2,-5.791556835E-2,-2.322149277E-1
7.722949922E2,-1.032984257E-1,8.035290241E-2,3.123807907E-1
7.727949922E2,3.187608719E-2,-8.264625072E-2,-2.835741043E-1
7.732949922E2,4.348564148E-2,4.707670212E-2,4.207496643E-1
7.737949922E2,1.558947563E-1,1.056224108E-1,7.078361511E-2
7.742949922E2,1.432631016E-1,6.758093834E-3,3.936100006E-2
7.747949922E2,-1.655077934E-2,-4.290068150E-2,-1.380624771E-1
7.752949922E2,-4.249215126E-2,6.290054321E-2,2.777662277E-1
7.757949922E2,-1.816964149E-2,9.377360344E-3,-1.762180328E-1
7.762949922E2,-1.622328758E-1,5.370974541E-3,3.077459335E-1
7.767949922E2,8.042025566E-2,-2.874839306E-2,-1.918191910E-1
7.772949922E2,1.038596630E-1,8.970820904E-2,4.123401642E-2
7.777949922E2,-9.796857834E-3,1.586438417E-1,1.283349991E-1
7.782949922E2,7.461857796E-2,1.103324890E-1,7.914924622E-2
7.787949922E2,1.859805584E-1,3.520488739E-3,-8.443737030E-2
7.792949922E2,1.003258228E-1,4.952859879E-2,2.006626129E-2
7.797949922E2,-7.911288738E-2,7.124555111E-2,3.767156601E-1
7.802949922E2,1.397939920E-1,-2.182458639E-1,-5.600700378E-1
7.807949922E2,-2.102479935E-1,-1.243765354E-1,-3.900833130E-1
7.812949922E2,-4.343503714E-1,2.290649414E-1,9.808006287E-1
7.817949922E2,-9.043598175E-2,-2.556393147E-1,-7.724256516E-1
7.822949922E2,-4.576139450E-1,-1.750965118E-1,4.342870712E-1
7.827949922E2,-3.711805344E-1,-3.170584440E-1,-6.021842957E-1
7.832949922E2,-4.428937435E-1,-9.199213982E-2,4.287719727E-2
7.837949922E2,-2.385005951E-1,-7.016324997E-2,-1.964473724E-1
7.842949922E2,-2.528495789E-1,1.041488647E-1,-8.176803589E-3
7.847949922E2,-1.045022011E-1,1.013302803E-2,-1.230707169E-1
7.852949922E2,-5.247807503E-2,-7.574903965E-2,-1.300811768E-3
7.857949922E2,-8.737325668E-2,2.849090099E-2,1.963109970E-1
7.862949922E2,-7.007551193E-2,-4.819369316E-2,-2.084913254E-1
7.867949922E2,1.671218872E-2,-8.903098106E-2,-1.591157913E-1
7.872949922E2,-2.667307854E-2,3.741908073E-2,1.402225494E-1
7.877949922E2,4.532814026E-3,-8.965003490E-2,-1.679601669E-1
7.882949922E2,1.143860817E-1,9.952104092E-2,1.938066483E-1
7.887949922E2,2.812075615E-2,4.563331604E-4,2.627086639E-2
7.892949922E2,2.091670036E-2,5.612802505E-2,9.152698517E-2
7.897949922E2,1.387910843E-1,3.065073490E-2,-1.063737869E-1
7.902949922E2,-9.530758858E-2,4.591107368E-3,3.073081970E-1
7.907949922E2,5.033659935E-2,-3.022277355E-2,-1.599655151E-1
7.912949922E2,1.512882710E-1,5.366718769E-2,-8.401393890E-2
7.917949922E2,-2.005434036E-2,-9.175062180E-3,-1.497421265E-1
7.922949922E2,5.558943748E-2,-2.517211437E-2,-8.301258087E-2
7.927949922E2,1.479415894E-1,-3.206741810E-2,-9.722423553E-2
7.932949922E2,2.196948528E-1,5.961656570E-3,1.224431992E-1
7.937949922E2,1.245858669E-1,4.562222958E-2,1.445932388E-1
7.942949922E2,3.264141083E-2,-7.866835594E-2,-8.373546600E-2
7.947949922E2,-1.247239113E-2,-1.426974535E-1,-3.109750748E-1
7.952949922E2,-2.405381203E-2,1.336199045E-1,4.038600922E-1
7.957949922E2,4.790902138E-2,-9.774947166E-2,-3.180971146E-1
7.962949922E2,-8.058810234E-2,2.110946178E-1,5.030641556E-1
7.967949922E2,-2.473473549E-2,-6.805765629E-2,-1.795558929E-1
7.972949922E2,-6.277728081E-2,9.601473808E-3,-4.897403717E-2
7.977949922E2,-1.445701122E-1,-1.766443253E-2,1.214313507E-1
7.982949922E2,-2.662062645E-2,-3.714764118E-2,-3.885364532E-2
7.987949922E2,1.387667656E-2,-2.543854713E-2,6.938457489E-2
7.992949922E2,-1.024389267E-2,2.294778824E-4,5.559921265E-4
7.997949922E2,4.359078407E-2,-3.301644325E-2,8.564281464E-2
8.002949922E2,3.303313255E-2,-5.288159847E-2,4.738235474E-2
8.007949922E2,-1.345825195E-2,1.852571964E-2,1.667127609E-1
8.012949922E2,-2.792978287E-2,-3.464758396E-2,-1.885719299E-1
8.017949922E2,-1.075644493E-1,1.799285412E-2,2.070131302E-1
8.022949922E2,4.976344109E-2,3.928303719E-3,-3.079271317E-1
8.027949922E2,-1.000301838E-1,9.779727459E-2,2.382917404E-1
8.032949922E2,1.304087639E-1,-6.688320637E-2,-3.211479187E-1
8.037949922E2,5.593609810E-2,5.439889431E-2,2.990818024E-2
8.042949922E2,3.604006767E-2,-3.387069702E-2,1.837730408E-2
8.047949922E2,-5.250763893E-2,1.772668362E-1,6.242189407E-1
8.052949922E2,1.146605015E-1,-3.120957017E-1,-1.128914833E0
8.057949922E2,-1.568925381E-1,1.393949986E-1,6.307601929E-1
8.062949922E2,1.275548935E-1,-2.630176544E-1,-9.831771851E-1
8.067949922E2,-2.808237076E-2,-1.408085823E-1,-2.473354340E-2
8.072949922E2,1.269452572E-1,-1.332954168E-1,-2.838382721E-1
8.077949922E2,9.511446953E-2,-5.995285511E-2,-2.739515305E-1
8.082949922E2,-6.066775322E-2,-9.676361084E-2,2.141418457E-1
8.087949922E2,-1.468133926E-1,6.677842140E-2,9.788599014E-1
8.092949922E2,-2.179389000E-1,1.417043209E-1,1.099256516E0
8.097949922E2,8.831119537E-2,2.737538815E-1,4.507398605E-1
8.102949922E2,1.037862301E-1,1.422193050E-1,-1.763877869E-1
8.107949922E2,-2.279334068E-1,1.351141930E-1,8.504667282E-1
8.112949922E2,7.978749275E-2,-1.793073416E-1,-5.829715729E-1
8.117949922E2,-1.589775085E-2,3.352072239E-1,-2.233695984E-2
8.122949922E2,-4.869532585E-2,2.116258144E-1,-2.647237778E-1
8.127949922E2,-1.351430416E-1,-7.354700565E-2,-4.254817963E-2
8.132949922E2,-8.565735817E-2,1.932382584E-4,2.236185074E-1
8.137949922E2,1.188879013E-1,1.045705080E-1,-2.030515671E-1
8.142949922E2,1.893856525E-1,5.350697041E-2,-1.981096268E-1
8.147949922E2,-1.496367455E-1,-1.444157362E-1,7.263278961E-2
8.152949922E2,8.224022388E-2,2.565681934E-2,2.538652420E-1
8.157949922E2,9.980547428E-2,2.981293201E-2,-1.644601822E-1
8.162949922E2,-2.409994602E-2,1.972436905E-2,6.986331940E-2
8.167949922E2,2.772341967E-1,2.927660942E-3,-3.357515335E-1
8.172949922E2,1.763546467E-1,2.023398876E-1,3.507499695E-1
8.177949922E2,5.107055306E-1,-2.765173912E-1,-6.115264893E-1
8.182949922E2,3.667221069E-1,2.287697792E-1,7.968091965E-1
8.187949922E2,3.232582808E-1,-2.474611998E-1,-3.530635834E-1
8.192949922E2,3.869044781E-1,-8.269762993E-2,1.402673721E-1
8.197949922E2,9.917151928E-2,-1.550132036E-1,-1.189804077E-1
8.202949922E2,-1.408219337E-2,-5.858719349E-2,1.785078049E-1
8.207949922E2,-6.882917881E-2,-1.870274544E-3,2.329111099E-1
8.212949922E2,1.427539587E-1,-1.105762124E-1,-7.051372528E-2
8.217949922E2,6.274664402E-2,2.490735054E-2,2.066011429E-1
8.222949922E2,-1.398824453E-1,6.156200171E-2,3.008728027E-1
8.227949922E2,-6.944227219E-2,-7.172501087E-2,-9.645366669E-2
8.232949922E2,-1.702882051E-1,2.988493443E-2,-4.450798035E-3
8.237949922E2,-1.749498844E-1,6.007248163E-2,3.842067719E-1
8.242949922E2,-1.783001423E-2,6.157130003E-2,-2.322397232E-1
8.247949922E2,-9.523200989E-2,5.867904425E-2,-1.079597473E-1
8.252949922E2,-6.534540653E-2,1.980173588E-2,-4.057693481E-2
8.257949922E2,-9.547591209E-3,5.271989107E-2,-2.177495956E-1
8.262949922E2,-2.328386307E-1,2.402436733E-2,3.474874496E-1
8.267949922E2,-1.290626526E-1,-6.951528788E-2,-1.510000229E-1
8.272949922E2,-1.260280609E-2,9.706479311E-2,-6.655216217E-2
8.277949922E2,-3.119206429E-2,1.164877415E-1,5.110454559E-2
8.282949922E2,-6.792783737E-3,-5.113303661E-2,-1.404953003E-1
8.287949922E2,-6.450104713E-2,2.679598331E-2,4.399337769E-1
8.292949922E2,1.438205242E-1,1.059579849E-1,-2.447767258E-1
8.297949922E2,1.462290287E-1,2.756990194E-1,9.432888031E-2
8.302949922E2,-6.689810753E-2,-3.134298325E-2,-3.387641907E-2
8.307949922E2,-1.354448795E-1,1.330518723E-2,2.605867386E-1
8.312949922E2,-6.716251373E-4,7.744491100E-2,1.406297684E-1
8.317949922E2,-2.698111534E-2,-5.954492092E-2,-2.800302505E-1
8.322949922E2,4.311323166E-2,1.849323511E-1,3.657350540E-1
8.327949922E2,3.007440567E-1,1.247774363E-1,-4.798727036E-1
8.332949922E2,-4.824399948E-2,-6.598055363E-2,-1.345262527E-1
8.337949922E2,-1.377637386E-1,1.888269186E-1,2.893161774E-2
8.342949922E2,-3.695487976E-2,1.047909260E-1,-1.868276596E-1
8.347949922E2,-2.030372620E-2,4.979872704E-2,-1.172189713E-1
8.352949922E2,2.171921730E-2,1.775072813E-1,1.892356873E-1
8.357949922E2,1.889586449E-1,7.145881653E-3,-5.722332001E-2
8.362949922E2,2.291347980E-1,5.191409588E-2,2.756023407E-2
8.367949922E2,6.743482351E-1,-2.507793903E-2,5.634317398E-1
8.372949922E2,7.759004831E-1,-5.545483828E-1,-6.200923920E-1
8.377949922E2,7.305797338E-1,-1.438074112E-1,8.257246017E-1
8.382949922E2,9.793866873E-1,-5.497831702E-1,-5.058002472E-1
8.387949922E2,3.606021404E-1,-1.226558685E-1,4.412097931E-1
8.392949922E2,3.203625679E-1,-1.473684907E-1,2.423877716E-1
8.397949922E2,4.916906357E-3,-2.078920603E-1,-2.160100937E-1
8.402949922E2,1.967487335E-1,-2.242212296E-1,-4.135417938E-1
8.407949922E2,-3.480818272E-1,-7.731521130E-2,1.688137054E-1
8.412949922E2,3.058421612E-2,-2.758084536E-1,-2.755527496E-1
8.417949922E2,-3.048382998E-1,1.395428181E-2,4.120969772E-1
8.422949922E2,-2.644183636E-1,-5.353015661E-2,1.208505630E-1
8.427949922E2,-6.113293171E-1,-2.441352606E-2,-1.007671356E-1
8.432949922E2,-4.676158428E-1,-3.077089787E-3,-2.885122299E-1
8.437949922E2,-2.021439075E-1,8.756893873E-2,1.270351410E-1
8.442949922E2,-7.698297501E-3,-4.798293114E-2,-2.478761673E-1
8.447949922E2,1.348590851E-1,4.447710514E-2,-1.430196762E-1
8.452949922E2,6.758859158E-1,-1.473098993E-2,-2.076034546E-1
8.457949922E2,2.603886127E-1,-2.022081614E-2,3.960351944E-1
8.462949922E2,4.546687603E-1,-6.859010458E-2,-4.097890854E-1
8.467949922E2,1.597716808E-1,1.332616210E-1,5.192432404E-1
8.472949922E2,1.264436245E-1,-7.249796391E-2,1.445503235E-1
8.477949922E2,-9.582424164E-2,-6.549859047E-2,3.084478378E-1
8.482949922E2,-5.561280251E-2,6.214863062E-2,4.568119049E-1
8.487949922E2,2.460837364E-2,3.145599365E-2,-4.246797562E-1
8.492949922E2,-1.943788528E-1,5.740344524E-2,5.881443024E-1
8.497949922E2,1.254482269E-1,-4.600936174E-2,-2.822761536E-1
8.502949922E2,-8.593797684E-3,7.746940851E-2,9.961605072E-2
8.507949922E2,1.187150478E-1,-9.648323059E-3,-3.410940170E-1
8.512949922E2,-1.476440430E-1,-3.654199839E-2,4.030160904E-1
8.517949922E2,-2.463650703E-2,-1.011283398E-1,-9.405231476E-2
8.522949922E2,-8.554697037E-3,1.094475389E-1,2.152347565E-2
8.527949922E2,9.921240807E-2,-3.018736839E-2,-3.383989334E-1
8.532949922E2,-5.299377441E-2,4.745876789E-2,1.473550797E-1
8.537949922E2,7.968306541E-2,4.592627287E-2,-1.361923218E-1
8.542949922E2,-1.584064960E-1,-7.016021013E-2,3.727245331E-1
8.547949922E2,6.466627121E-3,-5.266278982E-2,-1.145372391E-1
8.552949922E2,-9.061455727E-2,-2.420347929E-2,2.481966019E-1
8.557949922E2,-8.497834206E-2,-8.484226465E-2,-5.674362183E-4
8.562949922E2,1.679408550E-1,7.397770882E-2,-2.007207870E-1
8.567949922E2,1.601457596E-3,8.166992664E-2,2.282962799E-1
8.572949922E2,-8.499622345E-3,-9.996885061E-2,-1.115045547E-1
8.577949922E2,5.912637711E-2,1.525262594E-1,2.055625916E-1
8.582949922E2,2.415738106E-1,-3.060483932E-2,-6.076049805E-1
8.587949922E2,2.199196815E-2,4.656016827E-2,-6.708526611E-2
8.592949922E2,8.326768875E-2,6.694030762E-2,-3.287105560E-1
8.597949922E2,-1.388828754E-1,-7.994115353E-2,4.878044128E-3
8.602949922E2,-8.104419708E-2,-2.768361568E-2,-1.929273605E-1
8.607949922E2,-7.499766350E-2,-4.673540592E-2,2.227745056E-1
8.612949922E2,4.535245895E-2,-1.174946427E-1,-1.233663559E-1
8.617949922E2,1.448206902E-1,1.276981831E-2,-1.911077499E-1
8.622949922E2,5.344843864E-2,2.405107021E-2,2.214517593E-1
8.627949922E2,1.283957958E-1,3.352284431E-3,-4.355897903E-1
8.632949922E2,-3.493309021E-3,1.206644773E-1,2.412271500E-1
8.637949922E2,2.064943314E-2,-1.475458741E-1,-3.368520737E-1
8.642949922E2,-6.049513817E-2,2.835667133E-2,9.289836884E-2
8.647949922E2,-1.788306236E-2,-6.736820936E-2,-8.408164978E-2
8.652949922E2,-8.094573021E-2,4.409849644E-2,3.093442917E-1
8.657949922E2,1.035094261E-1,5.549371243E-2,-7.579898834E-2
8.662949922E2,-1.458513737E-1,1.620116234E-1,4.744424820E-1
8.667949922E2,8.011269569E-2,1.079475880E-2,-4.229373932E-1
8.672949922E2,-4.857540131E-3,9.981667995E-2,1.346683502E-2
8.677949922E2,-5.899167061E-2,-1.993668079E-2,-1.086425781E-2
8.682949922E2,-5.771851540E-2,-8.795976639E-3,2.507305145E-2
8.687949922E2,1.376783848E-1,-1.189279556E-2,-3.215265274E-1
8.692949922E2,1.495122910E-3,1.069178581E-1,1.247301102E-1
8.697949922E2,1.701405048E-1,8.314800262E-2,-1.840982437E-1
8.702949922E2,1.820707321E-2,-1.259708405E-2,-1.221942902E-1
8.707949922E2,1.452863216E-1,4.287958145E-3,-1.012363434E-1
8.712949922E2,9.769773483E-2,-3.098551035E-1,-3.293857574E-1
8.717949922E2,-8.485722542E-2,-2.992001772E-1,3.240680695E-2
8.722949922E2,-1.287119389E-1,-2.064827681E-1,9.740352631E-2
8.727949922E2,-5.379319191E-2,-1.487916708E-1,2.554292679E-1
8.732949922E2,-1.210224628E-1,-1.475300789E-1,4.515743256E-2
8.737949922E2,-9.963345528E-2,-1.026763320E-1,3.309354782E-1
8.742949922E2,-2.899622917E-2,-7.725656033E-3,2.810478210E-3
8.747949922E2,-5.435705185E-3,-1.337631345E-1,-2.222547531E-1
8.752949922E2,1.326060295E-2,2.340577841E-1,-8.166313171E-3
8.757949922E2,1.737489700E-1,1.614868641E-2,-5.746984482E-1
8.762949922E2,9.561538696E-3,-9.078198671E-2,-1.764163971E-1
8.767949922E2,6.641864777E-2,5.519258976E-2,4.719829559E-2
8.772949922E2,-1.394047737E-1,1.253417730E-1,-2.215213776E-1
8.777949922E2,-1.510179043E-1,1.835334301E-2,5.264282227E-4
8.782949922E2,9.143900871E-2,1.810648441E-1,-4.319858551E-2
8.787949922E2,4.202556610E-2,1.149958372E-1,-7.991790771E-4
8.792949922E2,1.942925453E-1,-1.339913607E-1,-3.514146805E-1
8.797949922E2,-4.644560814E-2,7.626235485E-2,5.005636215E-1
8.802949922E2,-8.277940750E-2,-7.345342636E-2,1.002359390E-1
8.807949922E2,-1.689379215E-1,-9.985995293E-2,3.445501328E-1
8.812949922E2,-4.121804237E-2,-7.086145878E-2,2.214527130E-2
8.817949922E2,-1.513981819E-2,-5.900812149E-2,6.690311432E-2
8.822949922E2,4.155421257E-2,-1.521527767E-2,6.517791748E-2
8.827949922E2,-6.648087502E-2,-4.066109657E-2,9.124946594E-2
8.832949922E2,7.834982872E-2,-3.073680401E-2,-4.463672638E-2
8.837949922E2,4.525756836E-2,-9.458875656E-2,-1.575441360E-1
8.842949922E2,1.308679581E-3,8.345139027E-2,2.835655212E-2
8.847949922E2,-1.456036568E-1,2.122443914E-1,4.586172104E-1
8.852949922E2,1.984086037E-1,-4.290878773E-2,-7.324943542E-1
8.857949922E2,-7.053041458E-2,9.866058826E-2,7.567214966E-2
8.862949922E2,3.509545326E-2,-8.167743683E-2,-9.633350372E-2
8.867949922E2,2.770781517E-2,-6.469476223E-2,-1.268587112E-1
8.872949922E2,-1.123046875E-1,-5.008780956E-2,1.530122757E-1
8.877949922E2,4.907941818E-2,-1.450455189E-2,-9.338283539E-2
8.882949922E2,4.612927437E-1,-3.986322880E-2,-5.632629395E-1
8.887949922E2,5.847158432E-1,-5.275256634E-1,-2.060053825E0
8.892949922E2,2.187812328E-1,-5.217278004E-2,1.681341171E0
8.897949922E2,4.226202965E-1,-4.365694523E-2,4.146699905E-1
8.902949922E2,3.024694920E-1,-2.216171026E-1,-9.457569122E-1
8.907949922E2,-2.149639130E-1,-4.890203476E-2,4.070568085E-1
8.912949922E2,6.772994995E-2,-1.369102001E-1,1.121644974E-1
8.917949922E2,2.775380611E-1,-3.164064884E-2,3.552436829E-3
8.922949922E2,2.272660732E-1,1.118478775E-1,1.215232849E0
8.927949922E2,5.580490828E-1,3.273959160E-1,5.886878967E-1
8.932949922E2,2.834581137E-1,-1.167923212E-1,-2.316999435E-1
8.937949922E2,5.529876947E-1,-1.662912369E-1,2.840137482E-2
8.942949922E2,3.351079226E-1,-1.817321777E-1,-7.782573700E-1
8.947949922E2,2.632398605E-1,-1.150958538E-1,5.525207520E-2
8.952949922E2,-1.576282978E-1,-1.091690660E-1,-3.304481506E-3
8.957949922E2,4.046845436E-2,2.463674545E-2,-1.517963409E-1
8.962949922E2,-6.154870987E-2,7.598865032E-2,2.650308609E-1
8.967949922E2,1.058657169E-1,-9.771513939E-2,-3.582887650E-1
8.972949922E2,-2.992837429E-1,1.532220840E-2,6.927089691E-1
8.977949922E2,-2.854347229E-2,-2.780414224E-1,-9.481697083E-1
8.982949922E2,-4.257633686E-1,-1.871170998E-1,2.921628952E-1
8.987949922E2,-5.037286282E-1,-1.678441167E-1,-2.909841537E-1
8.992949922E2,-4.478881359E-1,-2.059486508E-1,-4.672393799E-1
8.997949922E2,-4.443314075E-1,9.085845947E-2,-1.413259506E-1
9.002949922E2,-4.418942928E-1,-1.338968873E-1,-7.296848297E-1
9.007949922E2,-5.973358154E-1,-1.419806480E-2,8.579826355E-2
9.012949922E2,-9.724712372E-2,-3.135025501E-2,-1.310558319E-1
9.017949922E2,7.634639740E-3,-3.190648556E-2,-6.498050690E-2
9.022949922E2,6.151795387E-2,-1.042835116E-1,-3.752698898E-1
9.027949922E2,1.390202045E-1,5.908137560E-2,2.015638351E-1
9.032949922E2,2.380943298E-1,-6.952196360E-2,-3.862113953E-1
9.037949922E2,1.487166882E-1,2.749896049E-2,1.604099274E-1
9.042949922E2,6.851506233E-2,4.093706608E-2,3.196907043E-2
9.047949922E2,7.156968117E-2,1.053911448E-2,-7.417106628E-2
9.052949922E2,5.989003181E-2,4.907119274E-2,1.516427994E-1
9.057949922E2,1.332454681E-1,-1.473861933E-2,-1.639623642E-1
9.062949922E2,6.361389160E-2,3.641349077E-2,8.003711700E-2
9.067949922E2,1.015365124E-1,-7.711994648E-2,-2.845678329E-1
9.072949922E2,-4.847216606E-2,6.098794937E-2,2.303533554E-1
9.077949922E2,6.314778328E-2,-3.977155685E-2,-1.855869293E-1
9.082949922E2,2.508258820E-2,5.700623989E-2,-3.941345215E-2
9.087949922E2,-8.072614670E-3,2.617061138E-2,6.482219696E-2
9.092949922E2,5.571389198E-2,2.552866936E-3,-1.599187851E-1
9.097949922E2,-2.948880196E-2,-7.419937849E-2,-1.120290756E-1
9.102949922E2,-7.786965370E-2,2.892112732E-2,3.470926285E-1
9.107949922E2,-1.057171822E-2,-1.813042164E-2,-9.392929077E-2
9.112949922E2,-1.324279308E-1,4.256749153E-2,1.216859818E-1
9.117949922E2,5.514383316E-2,1.819980145E-2,-1.640510559E-2
9.122949922E2,9.662437439E-2,2.289652824E-2,-6.778430939E-2
9.127949922E2,-1.439619064E-2,-8.471381664E-2,-2.181558609E-1
9.132949922E2,-3.612399101E-2,3.565692902E-2,3.248214722E-1
9.137949922E2,9.675669670E-2,-1.607525349E-2,-2.579927444E-1
9.142949922E2,-3.105425835E-2,6.303668022E-2,-3.886222839E-3
9.147949922E2,-1.123695374E-1,4.357099533E-4,9.031963348E-2
9.152949922E2,-8.030962944E-2,-3.865277767E-2,1.471452713E-1
9.157949922E2,9.702491760E-2,-1.305341721E-2,-1.925191879E-1
9.162949922E2,6.692409515E-4,4.736816883E-2,1.716642380E-1
9.167949922E2,-4.464054108E-2,1.293380260E-1,7.278537750E-2
9.172949922E2,-4.685997963E-2,3.049474955E-1,1.048078537E-1
9.177949922E2,5.773973465E-2,4.384887218E-2,-1.116895676E-1
9.182949922E2,-3.389501572E-2,4.555749893E-2,1.402921677E-1
9.187949922E2,8.289265633E-2,-5.182528496E-2,-6.095504761E-2
9.192949922E2,-6.869292259E-2,-3.956162930E-2,-5.263042450E-2
9.197949922E2,-6.064510345E-2,1.032519341E-2,5.760288239E-2
9.202949922E2,7.203054428E-2,-6.151556969E-3,-1.710176468E-1
9.207949922E2,1.330850124E-1,6.596851349E-2,7.080650330E-2
9.212949922E2,-8.906531334E-2,-7.919204235E-2,1.226873398E-1
9.217949922E2,-8.297967911E-2,-1.306509972E-1,1.463088989E-1
9.222949922E2,-2.758097649E-2,-3.304779530E-2,-1.372337341E-2
9.227949922E2,-1.270842552E-1,1.629793644E-2,2.655687332E-1
9.232949922E2,1.171398163E-1,1.003193855E-2,-2.882394791E-1
9.237949922E2,-1.843638420E-1,-7.687222958E-2,4.079694748E-1
9.242949922E2,6.201243401E-2,-4.908323288E-3,-1.350240707E-1
9.247949922E2,2.432751656E-2,-7.484090328E-2,-3.058576584E-1
9.252949922E2,1.931738853E-2,2.949893475E-2,9.838104248E-3
9.257949922E2,6.601142883E-2,-3.231768012E-1,-6.165504456E-1
9.262949922E2,-1.691567898E-1,-1.607955694E-1,5.972700119E-1
9.267949922E2,6.114363670E-2,-5.364494920E-1,-7.950716019E-1
9.272949922E2,2.217972279E-1,-5.149558783E-1,-8.392753601E-1
9.277949922E2,-2.946777344E-1,-2.227524519E-1,1.049712181E0
9.282949922E2,-9.646439552E-2,-1.797443628E-1,2.669858932E-1
9.287949922E2,-1.517829895E-1,-1.180493236E-1,5.201463699E-1
9.292949922E2,2.174711227E-2,-5.787646770E-2,1.990861893E-1
9.297949922E2,7.403683662E-2,-3.022968769E-3,-1.022367477E-1
9.302949922E2,8.963918686E-2,4.382431507E-3,-1.649618149E-1
9.307949922E2,-4.379415512E-2,-4.044294357E-2,-3.773593903E-2
9.312949922E2,-9.316968918E-2,-1.017242670E-2,2.175836563E-1
9.317949922E2,1.437640190E-2,5.659306049E-2,-9.708595276E-2
9.322949922E2,8.883690834E-2,7.203137875E-2,-2.457590103E-1
9.327949922E2,-5.507206917E-2,-5.467426777E-2,1.113815308E-1
9.332949922E2,2.169680595E-2,-7.239025831E-2,2.501487732E-2
9.337949922E2,2.753379345E-1,-1.445412636E-4,-5.958013535E-1
9.342949922E2,1.379542351E-1,4.529833794E-3,-2.856750488E-1
9.347949922E2,5.856537819E-2,-4.698771238E-2,-5.169315338E-1
9.352949922E2,-1.033031940E-1,2.214246392E-1,9.245395660E-2
9.357949922E2,8.620381355E-2,1.687972546E-1,-1.123485565E-1
9.362949922E2,-1.045894623E-1,9.381532669E-3,1.623573303E-1
9.367949922E2,1.705734730E-1,4.811406136E-3,-4.136343002E-1
9.372949922E2,5.879044533E-2,7.970023155E-2,1.193513870E-1
9.377949922E2,6.670451164E-2,-1.006051302E-1,-1.906642914E-1
9.382949922E2,-1.067636013E-1,2.744078636E-2,5.526828766E-1
9.387949922E2,6.662392616E-2,7.103979588E-2,-2.106990814E-1
9.392949922E2,1.152365208E-1,3.280889988E-2,-1.720695496E-1
9.397949922E2,-1.469182968E-2,4.164421558E-2,1.788663864E-1
9.402949922E2,6.355404854E-2,-5.357027054E-3,-2.188825607E-1
9.407949922E2,-1.661636829E-1,-1.027790308E-1,2.721576691E-1
9.412949922E2,-7.458281517E-2,-4.678952694E-2,1.541700363E-1
9.417949922E2,1.098449230E-1,-4.591333866E-2,-2.046308517E-1
9.422949922E2,-2.510154247E-1,-2.202403545E-2,4.209890366E-1
9.427949922E2,2.065789700E-1,-1.534917355E-1,-7.165603638E-1
9.432949922E2,-1.448373795E-1,-2.951490879E-2,2.617263794E-1
9.437949922E2,1.305623055E-1,-5.308163166E-2,-2.131891251E-1
9.442949922E2,-8.942627907E-2,-9.044289589E-3,6.969451904E-2
9.447949922E2,7.251191139E-2,-5.905985832E-3,-1.277742386E-1
9.452949922E2,4.623436928E-2,-3.407430649E-2,-1.735115051E-1
9.457949922E2,6.889986992E-2,6.397807598E-2,8.710575104E-2
9.462949922E2,1.279232502E-1,-6.272602081E-2,-2.855806351E-1
9.467949922E2,-6.333327293E-2,4.661524296E-2,1.871662140E-1
9.472949922E2,-5.655169487E-2,7.787942886E-3,2.901258469E-1
9.477949922E2,5.446171761E-2,-1.024674177E-1,-2.074575424E-1
9.482949922E2,-4.910914898E-1,3.096327782E-1,1.031472206E0
9.487949922E2,2.561504841E-1,3.322714567E-1,-8.704729080E-1
9.492949922E2,-1.087272167E-1,4.345468283E-1,-4.510879517E-4
9.497949922E2,7.956361771E-2,2.837100029E-1,-8.436584473E-2
9.502949922E2,1.357877254E-1,1.391310692E-1,-4.399919510E-1
9.507949922E2,-1.059286594E-1,1.002351046E-1,2.486810684E-1
9.512949922E2,8.782553673E-2,1.507073641E-1,-2.076864243E-1
9.517949922E2,5.154490471E-2,-5.155396461E-2,-1.760234833E-1
9.522949922E2,-4.452490807E-2,1.181354523E-1,1.920881271E-1
9.527949922E2,8.537578583E-2,2.233409882E-2,-1.736688614E-1
9.532949922E2,4.722261429E-2,6.674170494E-2,1.804227829E-1
9.537949922E2,-4.783844948E-2,1.326084137E-3,-8.848285675E-2
9.542949922E2,3.738617897E-2,-8.039546013E-2,2.899932861E-2
9.547949922E2,-6.676483154E-2,4.231381416E-2,2.464485168E-1
9.552949922E2,8.839344978E-2,9.483981133E-2,-1.194524765E-1
9.557949922E2,1.294660568E-2,-3.917574883E-2,3.247537613E-1
9.562949922E2,6.018376350E-2,1.427571774E-1,-2.109289169E-1
9.567949922E2,1.387668848E-1,-8.473491669E-2,8.605957031E-2
9.572949922E2,7.909321785E-2,-1.338205338E-1,-7.719898224E-2
9.577949922E2,-7.332384586E-2,1.416838169E-2,1.072254181E-1
9.582949922E2,-4.257762432E-2,-3.093829155E-1,-1.535081863E-1
9.587949922E2,-1.305592060E-1,4.533112049E-2,2.851591110E-1
9.592949922E2,-4.533586502E-1,-3.410859108E-1,-6.759433746E-1
9.597949922E2,-3.853123188E-1,-2.978122234E-2,-2.711763382E-1
9.602949922E2,-2.391912937E-1,-5.774903297E-2,1.144742966E-1
9.607949922E2,6.797695160E-2,3.158736229E-2,8.676242828E-2
9.612949922E2,1.101250648E-1,-1.951471567E-1,-2.045221329E-1
9.617949922E2,3.354134560E-1,4.610438347E-1,5.780925751E-1
9.622949922E2,4.833948612E-1,4.809625149E-1,5.905532837E-2
9.627949922E2,3.265106678E-1,1.182093620E-1,-1.615171432E-1
9.632949922E2,7.997488976E-2,3.752315044E-2,1.553564072E-1
9.637949922E2,1.032780409E-1,7.722265720E-1,1.616020203E-1
9.642949922E2,-7.591247559E-3,6.306624413E-1,4.078483582E-2
9.647949922E2,-1.539993286E-2,1.544926167E-1,2.940187454E-1
9.652949922E2,2.072739601E-2,-4.418683052E-2,-1.175432205E-1
9.657949922E2,-1.405582428E-1,1.685547829E-2,1.367149353E-1
9.662949922E2,-7.376718521E-2,-2.072348595E-1,-1.095676422E-2
9.667949922E2,-1.429247856E-2,-1.094465256E-1,-1.037778854E-1
9.672949922E2,-2.728700638E-3,3.370046616E-2,-6.022453308E-3
9.677949922E2,5.134105682E-3,3.493118286E-2,-1.947116852E-2
9.682949922E2,-2.522685528E-1,-8.249322772E-1,-2.207517624E-1
9.687949922E2,-1.459708214E-1,-8.930142522E-1,-6.666088104E-2
9.692949922E2,-7.030868530E-2,-5.674598217E-1,-6.574249268E-2
9.697949922E2,-3.607010841E-2,-2.295002341E-1,9.359359741E-2
9.702949922E2,-1.422572136E-2,-5.793213844E-2,-1.052951813E-2
9.707949922E2,2.419948578E-4,-1.642042398E-2,-1.266193390E-2
9.712949922E2,4.252672195E-3,-2.188092470E-2,2.270698547E-3
9.717949922E2,3.738403320E-4,-4.490017891E-3,9.598731995E-3
9.722949922E2,-1.229619980E-2,-9.229838848E-3,-1.303195953E-2
9.727949922E2,7.469654083E-3,7.137715816E-3,1.456069946E-2
9.732949922E2,1.502299309E-2,-2.962529659E-3,5.304336548E-3
9.737949922E2,-3.252959251E-2,2.060908079E-2,-7.069587708E-3
9.742949922E2,2.644157410E-2,-3.665709496E-2,5.867004395E-3
9.747949922E2,3.058028221E-2,-1.153576374E-2,3.367424011E-3
9.752949922E2,-9.236335754E-4,-8.863389492E-3,-2.140045166E-3
9.757949922E2,-1.908183098E-2,8.047223091E-3,-9.641647339E-4
9.762949922E2,-2.303051949E-2,1.592099667E-3,-3.130912781E-3
9.767949922E2,8.567810059E-3,-4.151761532E-3,2.301216125E-3
9.772949922E2,1.352524757E-2,2.462565899E-3,-2.852439880E-3
9.777949922E2,2.540349960E-3,-1.903772354E-4,-8.569717407E-3
9.782949922E2,1.778841019E-3,-3.961563110E-3,3.189086914E-3
9.787949922E2,7.505655289E-3,4.588305950E-3,-2.674102783E-3
9.792949922E2,-1.371216774E-2,-3.631472588E-3,4.107475281E-3
9.797949922E2,-4.537343979E-3,-1.392185688E-3,1.693630219E-2
9.802949922E2,5.731821060E-3,-7.738769054E-3,1.372528076E-2
9.807949922E2,-8.886575699E-3,-6.532669067E-5,-6.494522095E-4
9.812949922E2,-1.019787788E-2,-2.731740475E-3,1.209259033E-3
9.817949922E2,-2.041840553E-2,-8.817017078E-3,-4.546165466E-3
9.822949922E2,5.467176437E-3,-4.806518555E-4,-3.266334534E-3
9.827949922E2,7.747411728E-3,1.504784822E-2,-1.441383362E-2
9.832949922E2,-4.690814018E-2,-6.242692471E-3,-3.010082245E-2
9.837949922E2,-1.349520683E-2,-3.531616926E-2,4.794311523E-2
9.842949922E2,5.757260323E-2,3.322952986E-2,3.439331055E-2
9.847949922E2,-5.911612511E-2,-2.801650763E-2,2.335548401E-3
9.852949922E2,-5.658149719E-3,5.819678307E-3,-1.711368561E-2
9.857949922E2,-8.285856247E-2,-2.018351108E-1,4.518413544E-2
9.862949922E2,2.324008942E-2,-9.169517457E-2,-5.616664886E-2
9.867949922E2,1.446795464E-2,-1.618203521E-2,-2.886962891E-2
9.872949922E2,4.317498207E-2,3.338131309E-2,3.106021881E-2
9.877949922E2,-4.406452179E-3,1.727899909E-2,-1.227188110E-2
9.882949922E2,-2.152276039E-2,8.647418022E-2,1.575756073E-2
9.887949922E2,-3.203940392E-2,6.805467606E-2,-3.279590607E-2
9.892949922E2,-2.241063118E-2,-5.328217149E-2,2.623462677E-2
9.897949922E2,1.358985901E-5,-1.416133642E-1,5.978488922E-2
9.902949922E2,-5.913734436E-3,-2.565242946E-1,-1.687145233E-2
9.907949922E2,-9.655117989E-2,-1.473042667E-1,1.639461517E-2
9.912949922E2,3.624987602E-2,1.479513943E-2,2.143573761E-2
