"Time (s)","Acceleration x (m/s^2)","Acceleration y (m/s^2)","Acceleration z (m/s^2)"
1.786618000E-3,2.894119024E0,3.997808456E0,8.815158844E0
2.279828400E-2,2.563909531E0,3.774677753E0,9.333204269E0
5.227982840E-1,8.215158463E0,-3.153740168E0,1.841277003E0
1.022798284E0,9.917651176E0,-8.867800713E0,7.298108935E-2
1.522798284E0,9.705288887E0,-1.072343445E1,1.543968797E0
2.022798284E0,8.447860718E0,-1.052183914E1,8.195417523E-1
2.522798284E0,4.704289436E0,-1.172363472E1,1.288534999E0
3.022798284E0,7.094120979E0,-1.273460197E1,4.115654826E-1
3.522798284E0,3.584448338E0,-1.060678482E1,8.865407705E-1
4.022798284E0,8.807381630E0,-1.153340530E1,1.309472203E0
4.522798284E0,1.225125194E0,-1.381017590E1,-5.108676553E-1
5.022798284E0,9.692726135E0,-1.264188004E1,-5.012963414E-1
5.522798284E0,2.169692039E0,-1.252283764E1,-7.513462901E-1
6.022798284E0,9.013164520E0,-1.136291695E1,7.274180651E-1
6.522798284E0,2.130808592E0,-1.209512043E1,-1.182054400E0
7.022798284E0,1.093400288E1,-9.600004196E0,-1.105484009E0
7.522798284E0,4.879563808E0,-1.136889839E1,-5.467599630E-1
8.022798284E0,1.093639565E1,-8.263014793E0,-2.726023197E0
8.522798284E0,5.858826160E0,-1.074257755E1,4.582255483E-1
9.022798284E0,9.205786705E0,-7.543971539E0,-1.951346874E0
9.522798284E0,5.502295494E0,-7.757531166E0,-4.311866283E0
1.002279828E1,4.505086899E0,-9.591629982E0,-7.465606928E-1
1.052279828E1,5.431707382E0,-6.354140759E0,-3.273381472E0
1.102279828E1,3.653241873E0,-7.794619560E0,1.536192179E0
1.152279828E1,4.707878590E0,-5.095515728E0,-2.946761131E0
1.202279828E1,1.513460279E0,-8.373682976E0,9.655039310E-1
1.252279828E1,3.745365620E0,-6.141777515E0,-1.610967875E0
1.302279828E1,2.181057930E0,-9.537791252E0,-3.056232691E0
1.352279828E1,5.940780640E0,-7.788039684E0,-4.366901219E-1
1.402279828E1,3.471387386E0,-1.183490086E1,-5.002793789E0
1.452279828E1,6.594619274E0,-1.419302750E1,-6.478567123E-1
1.502279828E1,4.525425911E0,-1.287218952E1,7.477570772E-1
1.552279828E1,9.110074043E0,-1.246481133E1,1.028913736E0
1.602279828E1,7.208378315E0,-1.096092224E1,1.020538807E0
1.652279828E1,1.023170948E1,-8.540582657E0,-1.499701619E0
1.702279828E1,6.101697922E0,-1.140718365E1,-8.673982024E-1
1.752279828E1,7.951947689E0,-8.314460754E0,-1.957328916E0
1.802279828E1,5.581857204E0,-1.070548820E1,-1.268195987E0
1.852279828E1,5.927619934E0,-1.009950638E1,-4.271188378E-1
1.902279828E1,4.813162804E0,-5.637490273E0,-3.135794163E0
1.952279828E1,3.228515863E0,-8.785248756E0,-1.490130305E0
2.002279828E1,4.703093052E0,-4.841876507E0,-4.340580463E0
2.052279828E1,3.121437073E0,-7.654041290E0,1.750349760E0
2.102279828E1,4.019941807E0,-4.370490551E0,-4.002593994E0
2.152279828E1,3.349951804E-1,-7.630113125E0,5.665007830E-1
2.202279828E1,3.433102369E0,-4.418346882E0,-3.253042459E0
2.252279828E1,7.339983582E-1,-7.894520283E0,3.672982752E-1
2.302279828E1,4.425525665E0,-3.942175388E0,-4.088735580E0
2.352279828E1,3.037688255E0,-8.201399803E0,1.973480463E0
2.402279828E1,3.500101328E0,-5.980261803E0,-1.955534339E0
2.452279828E1,8.249256015E-1,-9.360722542E0,-1.055832982E0
2.502279828E1,1.850250125E0,-9.244669914E0,-8.500502706E-1
2.552279828E1,1.098903775E0,-8.522037506E0,-1.176072359E0
2.602279828E1,2.191825628E0,-8.849854469E0,-1.287338614E0
2.652279828E1,1.561316729E0,-8.505886078E0,-1.655833244E0
2.702279828E1,2.508874655E0,-1.140239811E1,-1.339980662E-1
2.752279828E1,2.781656265E0,-1.136949635E1,-8.602197170E-1
2.802279828E1,4.314857483E0,-1.351466274E1,-5.922235921E-2
2.852279828E1,3.994817495E0,-1.092203903E1,-7.513462901E-1
2.902279828E1,7.442874908E0,-1.330110264E1,-8.470591903E-1
2.952279828E1,4.646861553E0,-1.052722359E1,1.351346612E0
3.002279828E1,9.446864128E0,-1.439522076E1,1.911267042E0
3.052279828E1,3.887738705E0,-1.456750393E1,-1.141974568E0
3.102279828E1,1.070548820E1,-1.088913727E1,-1.472782373E0
3.152279828E1,6.853044033E0,-1.162074280E1,1.200000525E0
3.202279828E1,1.007198906E1,-7.419544697E0,-2.094317913E0
3.252279828E1,5.693123341E0,-9.234500885E0,-1.830509305E-1
3.302279828E1,5.765506268E0,-8.127820015E0,-1.604985833E0
3.352279828E1,3.686143398E0,-7.369893551E0,-4.061816216E0
3.402279828E1,4.386641979E0,-7.095317364E0,1.791625977E0
3.452279828E1,3.932005882E0,-4.914857864E0,-4.626522541E0
3.502279828E1,2.844467878E0,-6.936194420E0,1.312463164E0
3.552279828E1,2.785245657E0,-5.693123341E0,-3.517449379E0
3.602279828E1,1.242473125E0,-8.280961037E0,4.115654826E-1
3.652279828E1,3.102294445E0,-7.432106972E0,-1.606780410E0
3.702279828E1,2.030908108E0,-9.627521515E0,-1.545763373E0
3.752279828E1,2.490330219E0,-1.384008598E1,6.664010882E-1
3.802279828E1,2.657827854E0,-1.082632637E1,-2.572882652E0
3.852279828E1,4.490729809E0,-1.349551964E1,1.314856052E0
3.902279828E1,2.906083107E0,-1.184925747E1,2.871387303E-1
3.952279828E1,7.178467751E0,-1.282732391E1,4.151547253E-1
4.002279828E1,1.417747378E0,-1.261496067E1,5.676971674E-1
4.052279828E1,9.055637360E0,-1.093519974E1,-1.725823283E0
4.102279828E1,2.121237278E0,-1.181456184E1,1.171286702E0
4.152279828E1,7.910671711E0,-9.472586632E0,5.473581553E-1
4.202279828E1,2.288734913E0,-1.294397449E1,-2.374876440E-1
4.252279828E1,7.311269760E0,-9.630513191E0,-9.272187948E-2
4.302279828E1,5.171487808E0,-1.015035343E1,-2.480758905E0
4.352279828E1,6.600601196E0,-1.065464115E1,3.242274821E-1
4.402279828E1,6.406782627E0,-1.190668583E1,-1.137188911E0
4.452279828E1,3.688536167E0,-9.370293617E0,1.558325768E0
4.502279828E1,6.143572330E0,-6.746563435E0,-2.997010469E0
4.552279828E1,3.464807272E0,-9.738788605E0,1.094716311E0
4.602279828E1,5.591428280E0,-4.937589645E0,-2.137987137E0
4.652279828E1,2.834896564E0,-8.688937187E0,1.419542074E0
4.702279828E1,5.039284706E0,-4.907081127E0,-3.452244759E0
4.752279828E1,2.547159672E0,-8.751151085E0,6.831508875E-1
4.802279828E1,4.241278172E0,-6.732206345E0,-2.190030813E0
4.852279828E1,2.170888424E0,-9.352945328E0,2.512463741E-2
4.902279828E1,2.901895761E0,-7.971090317E0,-2.073380709E0
4.952279828E1,2.070389748E0,-1.068335533E1,-2.213959217E0
5.002279828E1,4.578067780E0,-1.238644600E1,4.773681164E-1
5.052279828E1,3.901497364E0,-1.230389404E1,-2.428714931E-1
5.102279828E1,8.170890808E0,-1.399143219E1,-1.902294010E-1
5.152279828E1,2.261815548E0,-1.160219860E1,1.112662554E-1
5.202279828E1,9.218947411E0,-1.135334492E1,-1.584048629E0
5.252279828E1,4.827519894E0,-1.128574753E1,1.042074203E0
5.302279828E1,7.670193195E0,-8.121239662E0,-1.519442350E-1
5.352279828E1,3.743571043E0,-8.233104706E0,-3.889533281E0
5.402279828E1,6.669992924E0,-7.623532772E0,-1.713261008E0
5.452279828E1,4.900500774E0,-6.344569206E0,-5.129015446E0
5.502279828E1,4.733003139E0,-8.532805443E0,-1.082752272E-1
5.552279828E1,3.482155085E0,-5.835496426E0,-4.308277130E0
5.602279828E1,3.978665829E0,-8.678169250E0,2.437688112E0
5.652279828E1,5.520840168E0,-4.322634220E0,-3.161516905E0
5.702279828E1,3.235096216E0,-8.129016876E0,1.353141189E0
5.752279828E1,4.088735580E0,-4.007379532E0,-3.786641836E0
5.802279828E1,2.178664923E0,-7.569096088E0,1.615753531E0
5.852279828E1,3.976871252E0,-6.224329948E0,-3.676572084E0
5.902279828E1,1.671386600E0,-9.416953087E0,1.932204217E-1
5.952279828E1,1.880758643E0,-8.408378601E0,-1.266999602E0
6.002279828E1,3.527020693E0,-1.033340454E1,-1.805384636E0
6.052279828E1,5.752345562E0,-1.270887947E1,7.621139884E-1
6.102279828E1,3.790230989E0,-9.553942680E0,-3.475574851E-1
6.152279828E1,9.058030128E0,-1.186720371E1,3.255435228E0
6.202279828E1,2.868396044E0,-1.066361427E1,2.166102648E0
6.252279828E1,1.070249748E1,-1.227637672E1,4.854438782E0
6.302279828E1,6.903293133E-1,-1.359781265E1,-1.405783296E-1
6.352279828E1,1.039920712E1,-9.788438797E0,-2.714657307E0
6.402279828E1,4.244867325E0,-1.163031483E1,-2.986242771E0
6.452279828E1,1.116012478E1,-1.020419216E1,-7.238288522E-1
6.502279828E1,5.524429321E0,-9.775279045E0,-9.774680734E-1
6.552279828E1,8.247461319E0,-7.604390144E0,-3.862015724E0
6.602279828E1,7.304090977E0,-1.087418270E1,-3.016751051E0
6.652279828E1,9.391230583E0,-7.109674454E0,-2.759522676E0
6.702279828E1,6.055037498E0,-1.026341438E1,-2.060818434E0
6.752279828E1,7.084549427E0,-7.619943619E0,-1.761117458E0
6.802279828E1,5.581857204E0,-6.435496330E0,-4.093521118E0
6.852279828E1,5.991627693E0,-8.448458672E0,1.136590727E-2
6.902279828E1,6.265605927E0,-7.039684296E0,-4.762913704E0
6.952279828E1,6.468996048E0,-9.726225853E0,-5.934200287E-1
7.002279828E1,7.510472298E0,-6.897311211E0,-2.480160713E0
7.052279828E1,5.809773445E0,-6.969096184E0,6.813562512E-1
7.102279828E1,5.534000397E0,-5.931209087E0,-3.139383316E0
7.152279828E1,2.730808735E0,-8.260024071E0,3.044866920E-1
7.202279828E1,4.174279213E0,-4.639084816E0,-4.981856823E0
7.252279828E1,3.308077335E0,-6.605985165E0,2.468196630E0
7.302279828E1,3.407379389E0,-5.559125423E0,-3.466601849E0
7.352279828E1,-3.104089260E0,-6.055635929E0,-2.073380709E0
7.402279828E1,3.694518089E0,-3.303291559E0,-1.786242127E0
7.452279828E1,2.126022816E0,-5.999404430E0,1.869392633E0
7.502279828E1,5.516652584E0,-4.601995945E0,-2.705085993E0
7.552279828E1,2.740978241E0,-7.964509964E0,2.129612207E0
7.602279828E1,9.810572863E-1,-9.075378418E0,-1.752742529E-1
7.652279828E1,2.318047047E0,-9.401998520E0,-6.257231236E-1
7.702279828E1,2.064407825E0,-1.034357452E1,-2.132603168E0
7.752279828E1,3.893720627E0,-1.085264683E1,-1.191625714E0
7.802279828E1,5.270790100E0,-1.406800270E1,1.793420553E0
7.852279828E1,3.073580742E0,-1.117448139E1,7.770691514E-1
7.902279828E1,8.113463402E0,-1.434915924E1,2.036890268E0
7.952279828E1,2.834298372E0,-1.270229912E1,-3.361915946E-1
8.002279828E1,7.853243828E0,-1.166560841E1,8.644071817E-1
8.052279828E1,3.176471949E0,-1.115832996E1,-2.213360928E-2
8.102279828E1,1.054277611E1,-9.826126099E0,-2.640479803E0
8.152279828E1,8.172087669E0,-1.036092186E1,2.309672117E0
8.202279828E1,1.033041382E1,-8.067401886E0,-2.518445730E0
8.252279828E1,7.715656757E0,-1.017248726E1,7.322037220E-1
8.302279828E1,8.709874153E0,-8.512466431E0,-1.947757602E0
8.352279828E1,7.612166882E0,-1.042134094E1,-2.183450699E0
8.402279828E1,8.997013092E0,-8.176873207E0,-1.107278705E0
8.452279828E1,7.028916359E0,-9.938589096E0,-4.151547253E-1
8.502279828E1,8.256434441E0,-8.185248375E0,-6.209374666E-1
8.552279828E1,6.098108292E0,-6.543173313E0,-1.607976794E0
8.602279828E1,7.545766354E0,-7.160521984E0,2.362912416E0
8.652279828E1,5.562116146E0,-6.136991978E0,-1.844268084E0
8.702279828E1,6.357131481E0,-7.411767960E0,1.037288666E0
8.752279828E1,7.832904816E0,-4.212564468E0,-9.302098155E-1
8.802279828E1,5.150550842E0,-5.641079426E0,1.794616925E-3
8.852279828E1,3.659224033E0,-5.487340450E0,-4.850849628E0
8.902279828E1,3.525824070E0,-6.348756790E0,2.111665964E0
8.952279828E1,4.201796532E0,-4.442275047E0,-4.226921082E0
9.002279828E1,2.819941521E0,-7.511668682E0,1.343569875E0
9.052279828E1,4.150351048E0,-4.475774765E0,-3.527020693E0
9.102279828E1,2.669193745E0,-8.636893272E0,1.066002488E0
9.152279828E1,2.837887764E0,-4.670789719E0,-2.327618122E0
9.202279828E1,1.470987678E0,-8.647661209E0,-1.168893814E0
9.252279828E1,2.877967358E0,-7.919046402E0,-1.609771490E0
9.302279828E1,1.689332843E0,-8.601000786E0,-1.530210137E0
9.352279828E1,3.085544825E0,-8.325826645E0,-1.320838094E0
9.402279828E1,3.013760090E0,-1.010728264E1,-1.582253933E0
9.452279828E1,4.144368649E0,-1.180499077E1,-0.000000000E0
9.502279828E1,2.644667149E0,-1.040399265E1,-1.567897081E0
9.552279828E1,8.542376518E0,-1.269751358E1,2.465803623E0
9.602279828E1,2.313261271E0,-1.251565838E1,-6.424728632E-1
9.652279828E1,1.052841949E1,-8.392227173E0,-6.041877270E-1
9.702279828E1,4.774877548E0,-9.787840843E0,4.582255483E-1
9.752279828E1,8.183453560E0,-1.015633583E1,9.607182741E-1
9.802279828E1,6.473183632E0,-9.163313866E0,-2.994019270E0
9.852279828E1,4.147958279E0,-8.596813202E0,1.405783296E-1
9.902279828E1,5.020142078E0,-5.270790100E0,-2.851048231E0
9.952279828E1,2.927618504E0,-9.161520004E0,1.236491084E0
1.000227983E2,6.334998131E0,-5.734997749E0,-1.320838094E0
1.005227983E2,-3.170489892E-2,-1.132762241E1,1.134197950E0
1.010227983E2,6.117250919E0,-4.993222713E0,-1.070788130E-1
1.015227983E2,1.872981906E0,-6.820741177E0,-5.204389095E-1
1.020227983E2,2.531606436E0,-7.667799950E0,-8.602197170E-1
1.025227983E2,1.932204217E-1,-9.979267120E0,-1.208375469E-1
1.030227983E2,2.362912416E0,-1.098006535E1,-6.580262445E-3
1.035227983E2,2.465803623E0,-1.027836990E1,4.277170599E-1
1.040227983E2,5.557928562E0,-1.175533962E1,1.594816327E0
1.045227983E2,1.531406522E0,-1.118524933E1,1.108475089E0
1.050227983E2,5.261219025E0,-1.180259800E1,2.466402054E0
1.055227983E2,1.927418590E0,-1.194317627E1,-4.965106845E-1
1.060227983E2,9.947562218E0,-1.110748291E1,2.269592285E0
1.065227983E2,4.734199524E0,-1.071206856E1,7.208378315E-1
1.070227983E2,9.868000984E0,-9.555737495E0,-1.357328653E0
1.075227983E2,7.124629498E0,-1.082213879E1,3.284149170E-1
1.080227983E2,1.122592735E1,-7.272386074E0,8.733802289E-2
1.085227983E2,6.671189308E0,-6.306283951E0,-3.145963669E0
1.090227983E2,5.103292465E0,-8.036892891E0,1.044467092E0
1.095227983E2,4.075575352E0,-4.759922504E0,-4.331008911E0
1.100227983E2,3.209971666E0,-6.709474564E0,1.300499082E0
1.105227983E2,4.233501434E0,-4.938786030E0,-4.250849247E0
1.110227983E2,-9.571290761E-2,-7.928617954E0,1.769492388E0
1.115227983E2,1.172483087E0,-6.693921566E0,-1.974676847E0
1.120227983E2,-3.074777126E-1,-6.825526714E0,4.863412082E-1
1.125227983E2,1.200000525E0,-7.485945702E0,-7.956135273E-2
1.130227983E2,3.720839322E-1,-7.386045456E0,7.310073376E-1
1.135227983E2,1.738983870E0,-7.224529743E0,-6.825526357E-1
1.140227983E2,3.329612732E0,-7.952546120E0,-2.171486616E-1
1.145227983E2,6.439683914E0,-9.616155624E0,3.960121572E-1
1.150227983E2,5.099703312E0,-9.660423279E0,-8.500502706E-1
1.155227983E2,8.575876236E0,-1.034477043E1,8.985049129E-1
1.160227983E2,3.723232031E0,-1.072762203E1,1.196411327E-1
1.165227983E2,9.792626381E0,-1.041476059E1,1.237687469E0
1.170227983E2,5.141577721E0,-1.243789196E1,6.041877270E-1
1.175227983E2,1.176969624E1,-7.867600918E0,-2.140379906E0
1.180227983E2,6.291328907E0,-9.269794464E0,1.323829174E0
1.185227983E2,1.017727280E1,-7.865806103E0,-3.349951655E-2
1.190227983E2,7.121040344E0,-9.995418549E0,-2.410768867E-1
1.195227983E2,8.717651367E0,-7.962117195E0,-1.357926846E0
1.200227983E2,8.336593628E0,-7.661818027E0,-1.475773335E0
1.205227983E2,5.727221012E0,-9.244071960E0,-7.591229677E-1
1.210227983E2,6.824330330E0,-7.909475327E0,-2.397608280E0
1.215227983E2,6.200999737E0,-8.947361946E0,-2.106880426E0
1.220227983E2,3.056232691E0,-6.191428661E0,-4.494917393E0
1.225227983E2,3.116651535E0,-6.060421467E0,5.856433511E-1
1.230227983E2,3.251247883E0,-5.150550842E0,-2.238485575E0
1.235227983E2,2.214557409E0,-5.600999832E0,1.255035520E0
1.240227983E2,3.769891977E0,-6.001199245E0,-2.574677229E0
1.245227983E2,2.984447956E0,-7.875377655E0,-6.478567123E-1
1.250227983E2,3.094517946E0,-8.028517723E0,-1.278963685E0
1.255227983E2,1.946561217E0,-9.129815102E0,-1.409970760E0
1.260227983E2,3.035893679E0,-9.199206352E0,-1.914258122E0
1.265227983E2,3.011367321E0,-9.515657425E0,-2.310270309E0
1.270227983E2,5.954539299E0,-1.032263660E1,7.226324677E-1
1.275227983E2,2.691327333E0,-1.223390388E1,-1.252642632E0
1.280227983E2,9.303294182E0,-1.146341515E1,5.084748194E-2
1.285227983E2,5.340780258E0,-1.201974678E1,-2.955136001E-1
1.290227983E2,1.106441212E1,-1.009651470E1,-7.812566161E-1
1.295227983E2,7.663612843E0,-1.000319481E1,5.120640397E-1
1.300227983E2,8.580661774E0,-8.103293419E0,-7.226324677E-1
1.305227983E2,4.460221291E0,-7.952546120E0,-3.323032379E0
1.310227983E2,5.632704735E0,-8.690732002E0,7.004988194E-1
1.315227983E2,5.339583874E0,-5.669793129E0,-5.559125423E0
1.320227983E2,2.682952404E0,-7.028318405E0,2.602194548E-1
1.325227983E2,4.248456478E0,-6.049055576E0,-2.681157827E0
1.330227983E2,2.629113913E0,-9.007781029E0,-2.333002090E-1
1.335227983E2,4.016352654E0,-5.407779217E0,-2.331805706E0
1.340227983E2,1.965703845E0,-8.309675217E0,-6.400800347E-1
1.345227983E2,4.201796532E0,-8.028517723E0,-1.659422517E0
1.350227983E2,1.896910191E0,-9.682557106E0,-1.164706469E0
1.355227983E2,3.520440340E0,-1.077368355E1,-8.243274093E-1
1.360227983E2,2.300100803E0,-1.057268715E1,-2.075773627E-1
1.365227983E2,4.798207760E0,-1.194018459E1,9.936196208E-1
1.370227983E2,2.857030153E0,-1.253719425E1,1.369891018E-1
1.375227983E2,6.131608009E0,-1.424566936E1,-8.356932998E-1
1.380227983E2,4.231706619E0,-1.183191013E1,3.146561682E-1
1.385227983E2,9.668798447E0,-9.017352104E0,-2.415554523E0
1.390227983E2,8.499305725E0,-9.967302322E0,-2.697907448E0
1.395227983E2,8.800801277E0,-8.124231339E0,-2.471187592E0
1.400227983E2,6.649055958E0,-9.759725571E0,-1.306481123E0
1.405227983E2,6.270391941E0,-7.989036560E0,-8.937192559E-1
1.410227983E2,3.936791420E0,-5.747560024E0,-2.622533560E0
1.415227983E2,3.760320902E0,-7.859225750E0,1.433898926E0
1.420227983E2,4.987838745E0,-5.152943611E0,-2.760120869E0
1.425227983E2,2.474178553E0,-7.066603661E0,2.506481647E0
1.430227983E2,3.595814228E0,-5.801398277E0,-2.654238462E0
1.435227983E2,1.917847395E0,-8.847461700E0,-4.223332107E-1
1.440227983E2,7.908278704E-1,-7.151548862E0,-6.376872063E-1
1.445227983E2,1.821536183E0,-7.817949772E0,-1.021137118E0
1.450227983E2,2.998805046E0,-1.143290615E1,1.430907965E0
1.455227983E2,4.243072987E0,-1.048654556E1,-1.196411327E-1
1.460227983E2,7.138986588E0,-1.398963737E1,1.904686809E0
1.465227983E2,4.777270317E0,-1.184626675E1,6.687939167E-1
1.470227983E2,9.804591179E0,-1.129771233E1,-3.427718580E-1
1.475227983E2,6.136393547E0,-1.159681511E1,-1.944168359E-1
1.480227983E2,1.112303638E1,-8.196015358E0,-1.780260086E0
1.485227983E2,6.540780544E0,-8.694320679E0,-2.196611166E0
1.490227983E2,7.255038261E0,-8.267800331E0,1.089332461E0
1.495227983E2,6.636493683E0,-9.550353050E0,-7.357929349E-1
1.500227983E2,7.322037220E0,-8.571090698E0,7.052844763E-1
1.505227983E2,4.468596458E0,-8.542376518E0,-2.501696110E0
1.510227983E2,6.846463680E0,-8.568099976E0,3.577269912E-1
1.515227983E2,5.554339409E0,-7.921439171E0,-2.139183521E0
1.520227983E2,6.990033150E0,-8.790034294E0,3.349951804E-1
1.525227983E2,5.641079426E0,-8.579465866E0,-4.934000492E0
1.530227983E2,3.772883177E0,-9.933803558E0,1.584048629E0
1.535227983E2,6.165705681E0,-5.669195175E0,-1.902892232E0
1.540227983E2,2.847458839E0,-9.178867340E0,4.941178858E-1
1.545227983E2,6.420541286E0,-6.433701992E0,-3.595814228E0
1.550227983E2,2.858226538E0,-1.122891808E1,4.175475538E-1
1.555227983E2,6.180062771E0,-1.008993530E1,5.724828243E-1
1.560227983E2,2.656033039E0,-1.213938713E1,-3.266202807E-1
1.565227983E2,1.079821014E1,-1.213520050E1,1.231705427E0
1.570227983E2,2.496910334E0,-1.268196011E1,-1.376471281E0
1.575227983E2,9.513862610E0,-9.170493126E0,-3.092723191E-1
1.580227983E2,5.066802025E0,-8.441878319E0,-1.034895778E0
1.585227983E2,4.094717979E0,-8.596215248E0,7.579265833E-1
1.590227983E2,4.588237286E0,-4.935196877E0,-2.964108944E0
1.595227983E2,1.722832322E0,-8.818149567E0,-9.876375198E-1
1.600227983E2,2.619542599E0,-7.861020565E0,-1.887338877E0
1.605227983E2,2.282752752E0,-1.175354481E1,-3.224328518E0
1.610227983E2,6.565905571E0,-1.184148121E1,1.290329576E0
1.615227983E2,3.870390654E0,-1.263290691E1,-7.944171429E-1
1.620227983E2,1.309053421E1,-7.623532772E0,3.397808075E-1
1.625227983E2,6.401997089E0,-1.105484104E1,2.237289101E-1
1.630227983E2,7.465606689E0,-1.122532940E1,4.445864677E0
1.635227983E2,5.390431404E0,-5.280361176E0,-9.726824164E-1
1.640227983E2,3.214757204E0,-6.942774773E0,-2.093719877E-2
1.645227983E2,3.262015581E0,-4.361517429E0,-3.699303865E0
1.650227983E2,1.846062660E0,-6.805187702E0,-1.309472203E0
1.655227983E2,2.839084148E0,-7.094120979E0,-9.559326172E-1
1.660227983E2,3.249453068E0,-9.225527763E0,1.752742529E-1
1.665227983E2,1.774278045E0,-1.424806213E1,-1.164108157E0
1.670227983E2,7.525427341E-1,-1.051525879E1,1.772483349E0
1.675227983E2,4.872983456E0,-1.367079353E1,-6.861419082E-1
1.680227983E2,2.584248543E0,-1.184925747E1,6.269195080E-1
1.685227983E2,1.061097240E1,-1.040698433E1,-4.151547253E-1
1.690227983E2,3.477369547E0,-1.230389404E1,-1.984248161E0
1.695227983E2,9.022137642E0,-7.283751965E0,-1.422533035E0
1.700227983E2,4.590630054E0,-9.105288506E0,-1.825125456E0
1.705227983E2,6.314060688E0,-6.888338089E0,-8.973085135E-2
1.710227983E2,5.437689304E0,-6.498906136E0,-3.698107481E0
1.715227983E2,3.477967739E0,-8.172685623E0,2.257628202E0
1.720227983E2,5.286941528E0,-4.585844517E0,-2.872583628E0
1.725227983E2,3.823730469E0,-6.811768055E0,6.622136831E-1
1.730227983E2,4.228715897E0,-5.581258774E0,-2.012962103E0
1.735227983E2,2.694318295E0,-8.111668587E0,-7.908278704E-1
1.740227983E2,3.212364435E0,-8.504091263E0,-4.707878530E-1
1.745227983E2,3.506681681E0,-9.456435204E0,-9.553344250E-1
1.750227983E2,3.812364578E0,-1.254197979E1,2.222334146E0
1.755227983E2,4.297509670E0,-1.012044334E1,-6.879364848E-1
1.760227983E2,6.599404812E0,-1.284347534E1,6.430711150E-1
1.765227983E2,4.463810444E0,-1.244746304E1,7.956135273E-2
1.770227983E2,9.457631111E0,-1.209212875E1,6.011967063E-1
1.775227983E2,4.058227062E0,-1.282911873E1,1.022931710E-1
1.780227983E2,1.003549862E1,-1.029511929E1,-1.082752228E0
1.785227983E2,4.806582451E0,-8.709874153E0,-1.623530149E0
1.790227983E2,4.298706055E0,-7.813164234E0,1.365105271E0
1.795227983E2,3.482155085E0,-5.729613781E0,-2.440679073E-1
1.800227983E2,2.003390789E0,-6.849454880E0,3.068794966E0
1.805227983E2,5.133800983E0,-4.565505505E0,-4.056432724E0
1.810227983E2,2.848655462E0,-7.478168964E0,7.944171429E-1
1.815227983E2,3.879363775E0,-4.013959885E0,-2.297109842E0
1.820227983E2,2.874976397E0,-8.430512428E0,8.315058798E-2
1.825227983E2,3.755535126E0,-1.037827015E1,-2.500499785E-1
1.830227983E2,4.123431683E0,-1.005464077E1,-4.851447940E-1
1.835227983E2,5.848058701E0,-1.331546021E1,3.601796389E0
1.840227983E2,4.093521118E0,-1.308036518E1,1.767697692E0
1.845227983E2,1.141077328E1,-9.201001167E0,1.513460279E-1
1.850227983E2,6.540780544E0,-1.101775169E1,2.078764677E0
1.855227983E2,9.322437286E0,-8.529814720E0,-1.782652885E-1
1.860227983E2,5.061418056E0,-1.058883858E1,-5.347958803E-1
1.865227983E2,4.167100430E0,-9.775279045E0,-3.649054468E-2
1.870227983E2,5.874977589E0,-6.153143406E0,-2.021337032E0
1.875227983E2,2.891726255E0,-1.176431274E1,3.608376503E0
1.880227983E2,4.283152580E0,-4.865206718E0,-3.175873756E0
1.885227983E2,5.161916733E0,-4.351347923E0,1.405783296E-1
1.890227983E2,3.445664644E0,-5.042873859E0,-3.729812384E0
1.895227983E2,1.794616938E0,-7.606184959E0,9.571290612E-1
1.900227983E2,2.992224693E0,-5.879763603E0,-1.999203324E0
1.905227983E2,2.472982168E0,-8.876175880E0,-7.495517135E-1
1.910227983E2,2.499901533E0,-7.363911629E0,-1.138983607E0
1.915227983E2,1.834098577E0,-9.596415520E0,-1.442273855E0
1.920227983E2,3.543172121E0,-1.240618706E1,6.927221417E-1
1.925227983E2,2.794816732E0,-1.113021469E1,9.272187948E-2
1.930227983E2,8.277970314E0,-1.222074318E1,-5.551348329E-1
1.935227983E2,2.126621008E0,-1.262752342E1,-9.870393574E-2
1.940227983E2,1.076949692E1,-1.123490047E1,-2.602194548E0
1.945227983E2,5.037489891E0,-1.102433205E1,9.493523836E-1
1.950227983E2,7.890332699E0,-7.988438606E0,-1.534397483E0
1.955227983E2,5.889334679E0,-8.177471161E0,-3.183650494E0
1.960227983E2,7.499105930E0,-8.112865448E0,-5.742774606E-1
1.965227983E2,6.106483459E0,-6.629314899E0,-3.092723370E0
1.970227983E2,4.624129772E0,-8.515457153E0,3.816552162E-1
1.975227983E2,4.441078663E0,-5.784050465E0,-4.114458561E0
1.980227983E2,2.927618504E0,-8.703892708E0,7.621139884E-1
1.985227983E2,5.338985443E0,-5.053641319E0,-3.178864956E0
1.990227983E2,2.461018085E0,-6.631109715E0,1.714457393E0
1.995227983E2,3.783650875E0,-5.371288776E0,-1.908276081E0
2.000227983E2,2.998805046E0,-7.149754047E0,1.591227055E-1
2.005227983E2,2.644667149E0,-7.290332317E0,-1.513460279E0
2.010227983E2,3.900300980E0,-9.637093544E0,-2.298306227E0
2.015227983E2,7.440482140E0,-9.625128746E0,1.724626899E0
2.020227983E2,4.635495663E0,-1.165005493E1,3.224328458E-1
2.025227983E2,1.016351414E1,-1.370608807E1,-1.263410330E0
2.030227983E2,5.227120876E0,-1.270110226E1,2.274976015E0
2.035227983E2,9.051449776E0,-1.046979523E1,-6.831508875E-1
2.040227983E2,2.353341103E0,-1.356371498E1,-4.085744619E-1
2.045227983E2,9.010173798E0,-9.151947975E0,-1.289133191E0
2.050227983E2,6.311069489E0,-1.043928719E1,-3.469592705E-2
2.055227983E2,6.357131481E0,-8.467002869E0,2.075773627E-1
2.060227983E2,4.106083870E0,-6.966104984E0,-6.334998131E0
2.065227983E2,4.635495663E0,-7.687541008E0,2.991028316E-2
2.070227983E2,4.322634220E0,-4.536791801E0,-3.943371773E0
2.075227983E2,2.719442844E0,-7.320840836E0,2.285743713E0
2.080227983E2,3.561716557E0,-4.710271358E0,-3.253042459E0
2.085227983E2,8.249256015E-1,-8.081758499E0,1.936391711E0
2.090227983E2,4.803591251E0,-5.222933769E0,-3.912863255E0
2.095227983E2,3.549154282E0,-7.540382385E0,1.818545222E0
2.100227983E2,3.641875982E0,-5.709274769E0,-6.065805554E-1
2.105227983E2,2.079961061E0,-7.941180229E0,-4.085744619E-1
2.110227983E2,9.062815905E-1,-8.857032776E0,-1.898106575E0
2.115227983E2,2.793022156E0,-1.114277649E1,-1.453041553E0
2.120227983E2,4.747360229E0,-1.310010624E1,1.540977836E0
2.125227983E2,5.819344521E0,-1.129771233E1,3.349951804E-1
2.130227983E2,1.354636765E1,-8.155936241E0,2.529811859E0
2.135227983E2,2.618944407E0,-1.328674603E1,-2.919243574E-1
2.140227983E2,8.819944382E0,-1.044048309E1,7.196413875E-1
2.145227983E2,5.581857204E0,-1.163210869E1,9.092725813E-2
2.150227983E2,8.055437088E0,-8.113463402E0,-1.939382792E0
2.155227983E2,5.434698582E0,-8.129016876E0,-3.312862873E0
2.160227983E2,2.965305567E0,-9.044869423E0,4.755735099E-1
2.165227983E2,3.537788391E0,-5.335994720E0,-4.603790760E0
2.170227983E2,2.697907448E0,-8.330014229E0,5.036891699E-1
2.175227983E2,3.193221807E0,-5.186442852E0,-3.568296671E0
2.180227983E2,2.761317253E0,-7.371688366E0,1.370489120E0
2.185227983E2,3.645465374E0,-4.785645485E0,-3.490530014E0
2.190227983E2,1.915454507E0,-8.545966148E0,9.966106415E-1
2.195227983E2,2.271985054E0,-7.301100254E0,-2.180459738E0
2.200227983E2,1.899901152E0,-7.734799385E0,-1.578066587E0
2.205227983E2,2.855235577E0,-7.366902828E0,-1.123430252E0
2.210227983E2,3.104089260E0,-7.768897057E0,-1.490130305E0
2.215227983E2,5.774479389E0,-1.041535854E1,-3.050848842E-2
2.220227983E2,3.875176191E0,-1.077607632E1,-9.744769931E-1
2.225227983E2,7.759325504E0,-1.142154026E1,3.415754437E-1
2.230227983E2,4.098307133E0,-1.052183914E1,-1.597209126E-1
2.235227983E2,9.003593445E0,-1.419242954E1,-2.151745796E0
2.240227983E2,2.696112871E0,-1.139821053E1,-4.480560422E-1
2.245227983E2,1.204247856E1,-8.468797684E0,1.831705689E0
2.250227983E2,2.047059774E0,-1.081675434E1,-1.372283816E0
2.255227983E2,1.007497978E1,-9.132805824E0,-8.937192559E-1
2.260227983E2,5.253442287E0,-1.153340530E1,-3.762713671E-1
2.265227983E2,8.175676346E0,-9.530014038E0,-1.083350420E0
2.270227983E2,5.286343575E0,-9.008378983E0,-1.697707653E0
2.275227983E2,6.893123627E0,-9.421140671E0,1.244267747E-1
2.280227983E2,4.636094093E0,-6.254838467E0,-2.886940479E0
2.285227983E2,2.960519791E0,-7.191030025E0,8.039883971E-1
2.290227983E2,5.727221012E0,-4.287938118E0,-3.698107481E0
2.295227983E2,3.373879910E0,-7.761120319E0,2.791825771E0
2.300227983E2,5.210371494E0,-3.930211306E0,-3.041875839E0
2.305227983E2,3.093321562E0,-6.929614544E0,4.133601189E-1
2.310227983E2,5.584847927E0,-5.056632519E0,-2.107478619E0
2.315227983E2,2.190030813E0,-7.265805721E0,-5.778666735E-1
2.320227983E2,5.090131760E0,-6.777669907E0,-3.320041299E-1
2.325227983E2,3.422932863E0,-9.550353050E0,-2.193022013E0
2.330227983E2,4.975276470E0,-1.234576797E1,-6.017948985E-1
2.335227983E2,5.082355499E0,-1.166261768E1,-1.481755376E0
2.340227983E2,8.883952141E0,-1.174038410E1,-6.047859192E-1
2.345227983E2,4.532006264E0,-1.144128132E1,-2.404786795E-1
2.350227983E2,8.563314438E0,-9.649655342E0,2.871387079E-2
2.355227983E2,5.975476265E0,-1.035015392E1,2.113460541E0
2.360227983E2,9.034101486E0,-8.407182693E0,3.098705411E-1
2.365227983E2,3.233899832E0,-5.980261803E0,-2.968296528E0
2.370227983E2,2.111665964E0,-5.631507874E0,5.868397355E-1
2.375227983E2,2.257628202E0,-6.221338749E0,-2.719442844E0
2.380227983E2,2.127817631E0,-6.044270039E0,-2.002194405E0
2.385227983E2,2.906083107E0,-5.616552830E0,-3.542573929E0
2.390227983E2,2.589034081E0,-7.869395256E0,-1.411765337E0
2.395227983E2,3.504288673E0,-7.722835064E0,1.836491376E-1
2.400227983E2,3.013161898E0,-1.010429192E1,-1.322034478E0
2.405227983E2,4.377668858E0,-8.388039589E0,-4.534398913E-1
2.410227983E2,4.197010994E0,-8.851649284E0,-1.647458434E0
2.415227983E2,8.081160545E0,-9.393025398E0,1.104287624E0
2.420227983E2,6.602993965E0,-9.756733894E0,-2.297109663E-1
2.425227983E2,7.715656757E0,-1.115653515E1,1.070788130E-1
2.430227983E2,5.432903767E0,-1.185404301E1,1.585245013E0
2.435227983E2,8.930013657E0,-1.117089272E1,-8.769695163E-1
2.440227983E2,6.119643688E0,-1.178225899E1,7.298108935E-2
2.445227983E2,1.124806118E1,-1.037049294E1,5.054838061E-1
2.450227983E2,4.362713814E0,-1.149512005E1,1.448854089E0
2.455227983E2,1.009292603E1,-7.537391186E0,9.744769931E-1
2.460227983E2,4.040280819E0,-1.065643597E1,2.427518606E0
2.465227983E2,9.477372169E0,-7.990232944E0,5.742774159E-2
2.470227983E2,7.194021225E0,-8.411369324E0,-6.831508875E-1
2.475227983E2,7.657032490E0,-8.341380119E0,5.090730190E-1
2.480227983E2,5.411368370E0,-7.202396393E0,-2.351546526E0
2.485227983E2,5.990431309E0,-9.783055305E0,-4.241278172E-1
2.490227983E2,6.534200668E0,-7.079165936E0,-3.451646566E0
2.495227983E2,3.209373474E0,-9.495916367E0,-5.868397355E-1
2.500227983E2,6.320042610E0,-5.734997749E0,-2.111665964E0
2.505227983E2,4.088735580E0,-9.856635094E0,4.414757788E-1
2.510227983E2,8.272585869E0,-7.457829952E0,1.692921966E-1
2.515227983E2,9.946365356E0,-7.794619560E0,1.483550072E0
2.520227983E2,8.998807907E0,-1.058764172E1,1.810768485E0
2.525227983E2,8.714659691E0,-8.406583786E0,-2.171486616E-1
2.530227983E2,6.602993965E0,-1.251924801E1,-7.525427341E-1
2.535227983E2,7.743174076E0,-1.079821014E1,-8.787640929E-1
2.540227983E2,4.966303349E0,-8.724231720E0,-5.599204898E-1
2.545227983E2,4.717449665E0,-7.969295979E0,9.571290761E-2
2.550227983E2,2.991028309E0,-7.634300709E0,-1.126421213E0
2.555227983E2,4.128217220E0,-8.022536278E0,-1.375274777E0
2.560227983E2,3.182454109E0,-8.428717613E0,-1.351346612E0
2.565227983E2,5.891129494E0,-9.483354568E0,-2.021337032E0
2.570227983E2,5.078765869E0,-1.137727356E1,-1.980060786E-1
2.575227983E2,8.687142372E0,-1.169013500E1,3.002992272E-1
2.580227983E2,4.003790379E0,-1.165663528E1,1.775474429E0
2.585227983E2,9.662218094E0,-8.952746391E0,-2.103889227E0
2.590227983E2,7.214958668E0,-1.278844070E1,-1.112662554E-1
2.595227983E2,6.001199245E0,-7.691728592E0,1.307677627E0
2.600227983E2,5.219942570E0,-2.798406124E0,-4.872983456E0
2.605227983E2,2.683550596E0,-6.945765972E0,-2.126621008E0
2.610227983E2,3.348755360E0,-7.831110477E0,-1.045065284E0
2.615227983E2,2.710469961E0,-1.110150051E1,-4.295116663E-1
2.620227983E2,1.099143124E1,-1.776610947E1,4.462614357E-1
2.625227983E2,4.455435753E0,-5.662614822E0,3.714857101E-1
2.630227983E2,3.893720627E0,-5.931209087E0,-2.135594130E0
2.635227983E2,3.606581926E0,-9.888937950E0,-7.621139884E-1
2.640227983E2,3.758526087E0,-1.172183990E1,-5.533402562E-1
2.645227983E2,8.706883430E0,-1.216511059E1,3.614358664E0
2.650227983E2,4.271786690E0,-1.138804150E1,6.687939167E-1
2.655227983E2,9.078369141E0,-8.210372925E0,-2.290529490E0
2.660227983E2,3.445664644E0,-5.929414749E0,-2.542972326E0
2.665227983E2,3.058027267E0,-7.049255371E0,1.250249863E0
2.670227983E2,3.876372576E0,-4.750350952E0,-3.230310678E0
2.675227983E2,7.657032609E-1,-9.311071396E0,-5.741578102E0
2.680227983E2,3.868596077E0,-1.185882950E1,-2.787638307E-1
2.685227983E2,1.915454507E0,-1.181695461E1,-8.434699774E-1
2.690227983E2,1.209691525E1,-9.091529846E0,-4.666004330E-2
2.695227983E2,5.176871777E0,-1.080000496E1,1.710868180E-1
2.700227983E2,1.079342461E1,-8.775078773E0,-1.512263894E0
2.705227983E2,4.925625324E0,-1.018086243E1,-1.274178028E-1
2.710227983E2,7.910671711E0,-7.846663475E0,-7.022934556E-1
2.715227983E2,5.650650501E0,-7.378268719E0,-2.386242390E0
2.720227983E2,4.938786030E0,-9.801001549E0,6.143572330E-1
2.725227983E2,6.220142365E0,-3.753142357E0,-4.040280819E0
2.730227983E2,3.544966698E0,-9.587442398E0,1.456032634E0
2.735227983E2,4.576871395E0,-3.671786308E0,-4.729413986E0
2.740227983E2,2.064407825E0,-6.198606968E0,-9.972088337E-1
2.745227983E2,3.424727440E0,-4.988437176E0,-2.702095032E0
2.750227983E2,1.901097536E0,-6.869195461E0,-1.266999602E0
2.755227983E2,4.951946259E0,-4.091726780E0,-3.476173162E0
2.760227983E2,4.537988186E0,-9.739984512E0,1.236491084E0
2.765227983E2,6.650252342E0,-5.014159679E0,-2.874976397E0
2.770227983E2,3.806382656E0,-9.786644936E0,2.464607239E0
2.775227983E2,4.591228485E0,-5.657829285E0,-4.318446636E0
2.780227983E2,5.353940487E0,-9.603593826E0,1.377069473E0
2.785227983E2,9.721440315E0,-6.640681267E0,-3.241676569E0
2.790227983E2,5.002195835E0,-8.959924698E0,2.650051117E-1
2.795227983E2,5.845067501E0,-6.708278179E0,-4.323232174E0
2.800227983E2,4.276572227E0,-9.432506561E0,1.025922656E0
2.805227983E2,4.329214573E0,-4.792225361E0,-4.843072891E0
2.810227983E2,4.103092670E0,-8.324031830E0,1.480558991E0
2.815227983E2,5.995217323E0,-5.776273727E0,-2.756531715E0
2.820227983E2,3.630510092E0,-9.258428574E0,5.084748268E-1
2.825227983E2,3.870390654E0,-6.518048763E0,-2.492124796E0
2.830227983E2,2.001596212E0,-9.720842361E0,-2.763710022E-1
2.835227983E2,5.726622581E0,-9.065806389E0,-5.377869010E-1
2.840227983E2,4.529015064E0,-1.187318611E1,-6.538388133E-1
2.845227983E2,9.713663101E0,-1.027777100E1,3.123830080E0
2.850227983E2,3.491726398E0,-1.152981567E1,-4.528416991E-1
2.855227983E2,8.459824562E0,-6.699903488E0,-4.031906128E-1
2.860227983E2,7.124629498E0,-3.337389469E0,-3.564109325E0
2.865227983E2,5.210371494E0,-8.477172852E0,1.957328916E0
2.870227983E2,7.046264648E0,-8.854640007E0,3.254238665E-1
2.875227983E2,5.596213818E0,-1.125284672E1,-1.261615753E0
2.880227983E2,1.066540909E1,-1.249711418E1,-1.118644550E-1
2.885227983E2,4.064807415E0,-9.856635094E0,1.134197950E0
2.890227983E2,5.406582832E0,-8.595019341E0,1.336391449E0
2.895227983E2,3.538386583E0,-6.910471916E0,-3.923032761E0
2.900227983E2,1.324427366E0,-7.179664135E0,6.334998012E-1
2.905227983E2,3.678964853E0,-8.504091263E0,-1.269392371E0
2.910227983E2,3.224328518E0,-9.571290970E0,-2.554338276E-1
2.915227983E2,5.785845280E0,-1.015394306E1,2.783450842E0
2.920227983E2,4.147359848E0,-1.131027412E1,2.009970993E-1
2.925227983E2,8.968298912E0,-1.089392376E1,2.400599241E0
2.930227983E2,5.364708424E0,-1.245703506E1,2.481955290E0
2.935227983E2,7.353742123E0,-1.298225880E1,-1.875972986E0
2.940227983E2,9.305088997E0,-8.205587387E0,4.378865242E0
2.945227983E2,3.681955814E0,-8.551948547E0,-2.404786795E-1
2.950227983E2,5.141577721E0,-5.978467464E0,-3.335594654E0
2.955227983E2,3.631108284E0,-5.071587563E0,3.312862873E0
2.960227983E2,1.953739643E0,-5.023132801E0,-1.317847013E0
2.965227983E2,3.016152859E0,-4.980062008E0,-2.724826813E0
2.970227983E2,4.699503899E0,-6.990033150E0,1.879562140E0
2.975227983E2,1.904686809E0,-1.013599682E1,-1.555334684E-2
2.980227983E2,9.856635094E0,-1.233440208E1,2.365305185E0
2.985227983E2,3.949353695E0,-1.222732353E1,-3.655036688E-1
2.990227983E2,1.030229759E1,-1.197667599E1,-3.246462107E0
2.995227983E2,3.891926050E0,-1.662054634E1,-3.588037491E0
3.000227983E2,4.758726120E0,-1.048355389E1,-2.070987940E0
3.005227983E2,3.187239647E0,-8.422736168E0,-2.199602127E0
3.010227983E2,1.828116536E0,-8.249256134E0,-1.148554832E-1
3.015227983E2,4.747360229E0,-5.324628353E0,-3.246462107E0
3.020227983E2,2.066202402E0,-9.667003632E0,-2.644068897E-1
3.025227983E2,3.568894863E0,-7.934599876E0,-2.327019930E0
3.030227983E2,2.260619164E0,-1.067557812E1,-3.193221807E0
3.035227983E2,8.904291153E0,-1.208734322E1,2.553740025E0
3.040227983E2,2.888735056E0,-1.314257812E1,2.566302419E-1
3.045227983E2,1.083290672E1,-1.040997505E1,-2.410768747E0
3.050227983E2,7.411170006E0,-9.114859581E0,8.219345808E-1
3.055227983E2,5.833701611E0,-7.639086246E0,2.329412937E0
3.060227983E2,4.152743816E0,-5.503491879E0,-3.825525284E0
3.065227983E2,3.205185890E0,-1.057448101E1,1.896311939E-1
3.070227983E2,3.157329559E0,-1.030229759E1,-1.256231815E-1
3.075227983E2,2.468196630E0,-1.050090218E1,-2.176272154E0
3.080227983E2,7.556533813E0,-1.350150204E1,2.233101845E0
3.085227983E2,4.392025948E0,-1.303250885E1,-1.006780148E0
3.090227983E2,7.811967850E0,-1.312044430E1,2.797807932E0
3.095227983E2,1.087537885E0,-1.238824081E1,-4.989035130E-1
3.100227983E2,9.457631111E0,-9.354740143E0,-4.881358147E-1
3.105227983E2,3.669393539E0,-1.261675549E1,-6.155536175E-1
3.110227983E2,7.935796261E0,-8.186444283E0,-2.036890268E0
3.115227983E2,4.735994339E0,-1.248455238E1,2.991028363E-3
3.120227983E2,3.153740168E0,-1.034656525E1,2.465803623E0
3.125227983E2,7.907680511E0,-5.942574978E0,-3.391826153E0
3.130227983E2,3.233899832E0,-8.357531548E0,1.542772412E0
3.135227983E2,4.752145767E0,-5.056632519E0,-4.504488468E0
3.140227983E2,3.448655605E0,-7.095915318E0,1.209571838E0
3.145227983E2,3.821935892E0,-4.631308079E0,-2.452044964E0
3.150227983E2,1.965105653E0,-8.971888542E0,3.146561682E-1
3.155227983E2,3.876372576E0,-9.134600639E0,-1.735992789E0
3.160227983E2,2.502892494E0,-1.075035381E1,-3.040679455E0
3.165227983E2,6.205187321E0,-1.043868923E1,7.716853023E-1
3.170227983E2,3.306880951E0,-1.071386337E1,-7.100701332E-1
3.175227983E2,8.634500504E0,-1.196889877E1,1.889133453E0
3.180227983E2,4.007379532E0,-1.290389442E1,4.001995921E-1
3.185227983E2,7.983652592E0,-1.100040436E1,1.745564103E0
3.190227983E2,5.482554913E0,-1.243490124E1,1.491326690E0
3.195227983E2,9.332008362E0,-8.925228119E0,-4.497310162E0
3.200227983E2,7.028916359E0,-1.042134094E1,-4.151547253E-1
3.205227983E2,5.371288776E0,-9.142376900E0,-1.615155339E-1
3.210227983E2,3.394817114E0,-4.249652863E0,-2.748156786E0
3.215227983E2,2.963510752E0,-7.827520847E0,1.599601984E0
3.220227983E2,6.775277138E0,-4.244867325E0,-3.083750248E0
3.225227983E2,2.450250387E0,-6.541976929E0,-4.319044948E-1
3.230227983E2,4.248456478E0,-6.270391941E0,-1.770688772E0
3.235227983E2,3.410968781E0,-7.821538925E0,-2.702095032E0
3.240227983E2,4.547559261E0,-1.016112137E1,1.862812400E0
3.245227983E2,2.960519791E0,-9.512067795E0,-1.138983607E0
3.250227983E2,8.206185341E0,-1.075932693E1,3.466601849E0
3.255227983E2,2.013560295E0,-1.195454216E1,7.100701332E-1
3.260227983E2,9.083154678E0,-1.181934738E1,1.217348576E0
3.265227983E2,2.175673962E0,-1.368395424E1,-7.214360237E-1
3.270227983E2,9.600004196E0,-8.974281311E0,-1.099501967E0
3.275227983E2,5.125426292E0,-1.133539867E1,-2.380858511E-1
3.280227983E2,8.569295883E0,-1.043868923E1,1.513460279E-1
3.285227983E2,6.745965004E0,-9.309874535E0,4.151547253E-1
3.290227983E2,5.472983360E0,-1.047876835E1,7.417750359E-1
3.295227983E2,8.695517540E0,-8.586644173E0,-6.221339107E-1
3.300227983E2,6.608976364E0,-1.031127071E1,-1.208973646E0
3.305227983E2,6.521039963E0,-6.387042046E0,-4.802993298E0
3.310227983E2,4.441078663E0,-8.998807907E0,7.064808607E-1
3.315227983E2,5.860620975E0,-4.637290478E0,-6.929614544E0
3.320227983E2,3.654438496E0,-6.547959328E0,1.537388563E0
3.325227983E2,4.222135544E0,-5.062016487E0,-2.883949518E0
3.330227983E2,2.772084951E0,-7.952546120E0,1.440479279E0
3.335227983E2,4.176073551E0,-6.695117950E0,-1.936391711E0
3.340227983E2,-5.922235847E-1,-9.314660072E0,-1.138983607E0
3.345227983E2,2.395813704E0,-7.764111042E0,-4.046861172E0
3.350227983E2,1.759322882E0,-9.457631111E0,-2.310270309E0
3.355227983E2,4.210171223E0,-1.150947666E1,-5.042873621E-1
3.360227983E2,5.629713535E0,-1.132283688E1,-4.145565331E-1
3.365227983E2,1.055832958E1,-1.372044468E1,-3.578466177E0
3.370227983E2,4.092923164E0,-9.052646637E0,2.506481707E-1
3.375227983E2,8.306683540E0,-1.081914711E1,-1.416550994E0
3.380227983E2,4.213162422E0,-9.790233612E0,5.389832854E-1
3.385227983E2,8.773283958E0,-6.805187702E0,3.649054468E-2
3.390227983E2,5.422136307E0,-5.916254044E0,-3.412165165E0
3.395227983E2,3.305684566E0,-6.736393929E0,2.421536446E0
3.400227983E2,6.055037498E0,-5.045266628E0,-1.543968797E0
3.405227983E2,2.520838737E0,-8.026723862E0,2.117049932E0
3.410227983E2,3.775874138E0,-5.191228867E0,-3.598805189E0
3.415227983E2,3.089732170E0,-9.151350021E0,1.403988719E0
3.420227983E2,3.444468260E0,-7.588238716E0,-4.562514782E0
3.425227983E2,3.422932863E0,-1.197368431E1,-2.251047850E0
3.430227983E2,6.261418819E0,-1.085743237E1,-5.563312769E-2
3.435227983E2,3.792025566E0,-1.105184937E1,-1.610967875E0
3.440227983E2,1.192762280E1,-1.157647610E1,4.921437740E0
3.445227983E2,1.433898926E0,-1.355115318E1,2.455035925E0
3.450227983E2,1.373599815E1,-7.712665558E0,1.480558991E0
3.455227983E2,4.360919476E0,-1.048355389E1,1.140179992E0
3.460227983E2,8.478966713E0,-7.127620220E0,-2.404786795E-1
3.465227983E2,4.978267670E0,-8.614161491E0,-9.487541914E-1
3.470227983E2,5.091926575E0,-8.922237396E0,1.042074203E0
3.475227983E2,6.104688644E0,-3.884747505E0,-3.952943087E0
3.480227983E2,1.577468276E0,-6.005984783E0,-4.390829504E-1
3.485227983E2,3.955934048E0,-6.267400742E0,-1.383051515E0
3.490227983E2,2.596810818E0,-6.899703979E0,-8.614161611E-1
3.495227983E2,2.332403898E0,-1.075693417E1,1.594816327E0
3.500227983E2,3.638286829E0,-1.065643597E1,-3.349951655E-2
3.505227983E2,5.444868088E0,-1.181575775E1,2.001596212E0
3.510227983E2,3.912863255E0,-1.019641590E1,1.214357495E0
3.515227983E2,7.172485828E0,-1.289073372E1,-3.625126183E-1
3.520227983E2,5.539384484E-1,-1.260359478E1,-1.068395257E0
3.525227983E2,8.940781593E0,-1.060977554E1,4.642075896E-1
3.530227983E2,5.524429321E0,-1.012463093E1,2.793022156E0
3.535227983E2,6.023931026E0,-1.010429192E1,4.534398913E-1
3.540227983E2,7.201199532E0,-7.923233986E0,-2.505883455E0
3.545227983E2,2.487339020E0,-7.357331276E0,4.061816216E0
3.550227983E2,5.376074314E0,-5.000999451E0,-3.246462107E0
3.555227983E2,3.011965513E0,-5.949753284E0,1.161715388E0
3.560227983E2,4.322634220E0,-5.300700188E0,-1.042074203E0
3.565227983E2,2.673979282E0,-6.263213158E0,-8.327022791E-1
3.570227983E2,2.903092146E0,-7.935796261E0,6.394818425E-1
3.575227983E2,3.025724173E0,-8.511868477E0,-1.453639746E0
3.580227983E2,4.965705395E0,-1.043270683E1,2.236092806E0
3.585227983E2,4.626522541E0,-9.786644936E0,6.257231236E-1
3.590227983E2,8.642875671E0,-1.035254669E1,3.948157310E0
3.595227983E2,4.648656368E0,-1.170927715E1,1.617548108E0
3.600227983E2,1.082812023E1,-9.300303459E0,1.889133453E0
3.605227983E2,3.898506403E0,-1.089093208E1,6.586244106E-1
3.610227983E2,1.047876835E1,-8.462815285E0,8.117650747E-1
3.615227983E2,4.992624283E0,-9.713065147E0,9.445667267E-1
3.620227983E2,8.371290207E0,-8.050651550E0,-1.555334684E-2
3.625227983E2,5.240281582E0,-6.324828625E0,-5.814558983E0
3.630227983E2,5.070989609E0,-8.501100540E0,1.850848317E0
3.635227983E2,7.848458290E0,-2.608176708E0,-5.195415974E0
3.640227983E2,5.150550842E0,-6.214758396E0,-5.012963414E-1
3.645227983E2,6.990631580E0,-6.141179085E0,-1.376471281E0
3.650227983E2,4.551148891E0,-9.064012527E0,-1.405783296E0
3.655227983E2,5.222335339E0,-1.157288647E1,3.345165968E0
3.660227983E2,1.066002488E0,-1.021376324E1,-9.391828626E-2
3.665227983E2,8.819944382E0,-1.344766331E1,1.960319996E0
3.670227983E2,-7.674978375E-1,-1.430429363E1,-5.982056726E-3
3.675227983E2,1.132941723E1,-7.753942013E0,-7.782655358E-1
3.680227983E2,7.732406139E0,-8.877371788E0,2.518445849E-1
3.685227983E2,6.119643688E0,-8.574680328E0,-1.775474429E0
3.690227983E2,3.808177233E0,-7.261020184E0,-5.412564754E0
3.695227983E2,1.839482427E0,-8.252246857E0,5.443671346E-2
3.700227983E2,4.358526230E0,-4.508078098E0,-3.686143398E0
3.705227983E2,1.386042476E0,-8.646464348E0,-5.778666735E-1
3.710227983E2,1.328614831E0,-9.171091080E0,-1.898106575E0
3.715227983E2,2.116451740E0,-1.044885826E1,-2.243271112E0
3.720227983E2,5.162514687E0,-1.283809185E1,-6.652047038E-1
3.725227983E2,3.475574970E0,-1.259701443E1,5.850451589E-1
3.730227983E2,8.531010628E0,-1.245703506E1,-4.450650215E-1
3.735227983E2,2.493321180E0,-1.158126163E1,-2.476571500E-1
3.740227983E2,9.061020851E0,-7.747959614E0,-1.732403636E0
3.745227983E2,5.362913609E0,-1.019701385E1,-4.384847581E-1
3.750227983E2,5.980261803E0,-8.223533630E0,1.592423439E0
3.755227983E2,6.196214199E0,-3.966103554E0,-3.658027649E0
3.760227983E2,2.566302299E0,-8.338388443E0,6.687939167E-1
3.765227983E2,4.329812527E0,-7.038487911E0,-1.852044702E0
3.770227983E2,2.529811859E0,-9.555138588E0,-1.214357495E0
3.775227983E2,2.348555326E0,-1.082991505E1,-8.374879360E-1
3.780227983E2,4.741377831E0,-1.270110226E1,-2.094317913E0
3.785227983E2,7.540382385E0,-1.406142235E1,-2.070389748E0
3.790227983E2,4.896911621E0,-1.294337559E1,1.609173268E-1
3.795227983E2,1.029691410E1,-1.187318611E1,-2.518445730E0
3.800227983E2,4.435096741E0,-1.120140076E1,1.012762189E0
3.805227983E2,6.832107067E0,-7.496115208E0,2.475973129E0
3.810227983E2,5.175076962E0,-4.959125042E0,-3.654438496E0
3.815227983E2,3.681357622E0,-6.145965099E0,1.965703845E0
3.820227983E2,4.459024906E0,-3.535395384E0,-2.732603550E0
3.825227983E2,2.277967215E0,-7.566105366E0,-1.370489120E0
3.830227983E2,1.619342685E0,-8.866005898E0,-2.097907305E0
3.835227983E2,3.390031576E0,-1.069771194E1,-9.505487680E-1
3.840227983E2,6.007181168E0,-1.333938789E1,3.625126183E-1
3.845227983E2,3.779463291E0,-1.155613708E1,-1.018146038E0
3.850227983E2,1.174217892E1,-9.491130829E0,-4.180859566E0
3.855227983E2,6.530611038E0,-1.192283726E1,-1.004985452E0
3.860227983E2,8.919246674E0,-1.012821960E1,5.359922647E-1
3.865227983E2,4.329812527E0,-1.073599720E1,-1.465603858E-1
3.870227983E2,1.024307537E1,-7.237092018E0,-1.087537885E0
3.875227983E2,4.383651257E0,-1.054158020E1,-1.156929731E0
3.880227983E2,8.105088234E0,-1.001037312E1,-1.448854089E0
3.885227983E2,6.918846607E0,-8.496315002E0,-1.549352646E0
3.890227983E2,5.350351334E0,-8.283951759E0,1.192822099E0
3.895227983E2,5.449055195E0,-5.924628735E0,-3.812962770E0
3.900227983E2,3.163311481E0,-8.478966713E0,1.932204247E0
3.905227983E2,3.792025566E0,-4.447659016E0,-3.468396425E0
3.910227983E2,1.524826288E0,-7.618747234E0,1.446461320E0
3.915227983E2,3.318246841E0,-6.457031727E0,-3.696312666E0
3.920227983E2,1.403988719E0,-9.716055870E0,-2.820539713E0
3.925227983E2,2.653042078E0,-1.042911720E1,-1.603191137E0
3.930227983E2,3.260220766E0,-1.120439243E1,-1.829911113E0
3.935227983E2,5.430510998E0,-1.293679523E1,3.702892959E-1
3.940227983E2,2.327019930E0,-1.324188042E1,-9.349954724E-1
3.945227983E2,9.641280174E0,-1.175234795E1,2.404786795E-1
3.950227983E2,2.547159672E0,-1.215194988E1,4.127619043E-2
3.955227983E2,1.100399303E1,-8.939585686E0,-1.472184181E0
3.960227983E2,5.204987526E0,-1.215912819E1,-1.932204217E-1
3.965227983E2,9.426525116E0,-9.287740707E0,-2.538186550E0
3.970227983E2,5.506483078E0,-9.081958771E0,-1.590628862E0
3.975227983E2,5.814558983E0,-8.469395638E0,1.162911773E0
3.980227983E2,6.370890141E0,-5.586642742E0,-5.544768333E0
3.985227983E2,3.664009571E0,-7.003193855E0,1.654636860E0
3.990227983E2,5.361119270E0,-6.275775433E0,-1.322632670E0
3.995227983E2,1.211964726E0,-8.866603851E0,1.097707391E0
4.000227983E2,1.362114310E0,-1.049611664E1,3.349951804E-1
4.005227983E2,-4.229314029E-1,-9.052646637E0,-1.191625714E0
4.010227983E2,6.310471535E0,-7.520043373E0,9.032905698E-1
4.015227983E2,3.273381472E0,-9.774082184E0,8.243274093E-1
4.020227983E2,7.210771084E0,-1.065165043E1,-8.135596663E-2
4.025227983E2,4.163511276E0,-1.051047325E1,-2.667997181E-1
4.030227983E2,8.311469078E0,-1.336929798E1,1.734796353E-2
4.035227983E2,2.889333248E0,-1.132104206E1,-1.208375469E-1
4.040227983E2,8.674580574E0,-1.236610699E1,8.069794178E-1
4.045227983E2,2.931805849E0,-1.262752342E1,4.019941986E-1
4.050227983E2,1.039143085E1,-9.796216011E0,-5.473581553E-1
4.055227983E2,2.893520832E0,-1.221177006E1,-5.563312769E-2
4.060227983E2,1.101775169E1,-7.749754429E0,-1.017547846E0
4.065227983E2,5.212764263E0,-1.252223873E1,2.572284266E-2
4.070227983E2,7.532605648E0,-1.167218876E1,-3.601198196E-1
4.075227983E2,6.937391281E0,-6.119643688E0,-4.236492634E0
4.080227983E2,5.040481091E0,-8.453244209E0,1.804188251E0
4.085227983E2,4.975276470E0,-5.472983360E0,-4.697709084E0
4.090227983E2,3.673580885E0,-7.837690353E0,1.467996716E0
4.095227983E2,4.091726780E0,-6.939185619E0,-1.164108157E0
4.100227983E2,1.877169371E0,-8.090731621E0,-7.597211599E-1
4.105227983E2,3.153740168E0,-1.035135078E1,1.034895778E-1
4.110227983E2,2.689532757E0,-9.509077072E0,-1.173679471E0
4.115227983E2,3.924229145E0,-1.383889008E1,1.974078715E-1
4.120227983E2,4.777868748E0,-1.303011608E1,1.612762451E0
4.125227983E2,9.884152412E0,-1.168056393E1,1.617548108E0
4.130227983E2,1.593619823E0,-1.275553894E1,6.299105883E-1
4.135227983E2,8.946166039E0,-8.029116631E0,-2.091326952E0
4.140227983E2,3.643072367E0,-1.233918858E1,5.168496966E-1
4.145227983E2,8.062017441E0,-8.785248756E0,-6.251249313E-1
4.150227983E2,5.821139336E0,-8.256434441E0,-2.635095835E0
4.155227983E2,3.605385542E0,-9.337990761E0,2.099103689E0
4.160227983E2,4.363312244E0,-5.486144066E0,-3.228515863E0
4.165227983E2,3.552145243E0,-7.554739475E0,1.613958836E0
4.170227983E2,3.495315790E0,-5.991627693E0,-2.287538528E0
4.175227983E2,2.012962103E0,-8.801998138E0,-6.969096065E-1
4.180227983E2,2.220539331E0,-9.729216576E0,3.649054468E-1
4.185227983E2,2.530410051E0,-1.030229759E1,-5.916253924E-1
4.190227983E2,2.429911375E0,-1.305823135E1,1.269392371E0
4.195227983E2,1.384247899E0,-1.210648632E1,-1.188634634E0
4.200227983E2,6.366703033E0,-1.348953724E1,4.869394004E-1
4.205227983E2,-5.156532526E-1,-1.359123230E1,5.676971674E-1
4.210227983E2,9.180064201E0,-1.171047401E1,9.714859724E-1
4.215227983E2,1.281356573E0,-1.337468243E1,-4.486542568E-2
4.220227983E2,9.334999084E0,-9.056235313E0,1.722832322E-1
4.225227983E2,5.880361557E0,-1.196770287E1,-1.555334684E-2
4.230227983E2,5.299503803E0,-1.135454178E1,2.189432681E-1
4.235227983E2,4.611567497E0,-7.540980339E0,-5.784648895E0
4.240227983E2,4.456632137E0,-1.320838070E1,1.884347796E0
4.245227983E2,8.027321815E0,-8.885149002E0,-3.376870871E0
4.250227983E2,2.073979139E0,-9.464211464E0,1.927418590E0
4.255227983E2,6.880561352E0,-6.601199627E0,-2.367099762E0
4.260227983E2,3.905086517E0,-9.824930191E0,2.702693224E0
4.265227983E2,5.687141418E0,-5.647061348E0,-2.099103689E0
4.270227983E2,3.027518749E0,-9.381061554E0,-5.383851007E-2
4.275227983E2,4.956732273E0,-9.206384659E0,-5.467599630E-1
4.280227983E2,4.470989227E0,-1.137846947E1,-1.828116536E0
4.285227983E2,7.009175777E0,-1.328614807E1,2.135594130E0
4.290227983E2,3.131008387E0,-1.011027431E1,-2.117647976E-1
4.295227983E2,9.003593445E0,-1.279322624E1,1.719243050E0
4.300227983E2,2.575873613E0,-9.662218094E0,2.667997181E-1
4.305227983E2,1.153639603E1,-1.060199928E1,-4.785645287E-3
4.310227983E2,3.235096216E0,-1.080598736E1,-1.021137118E0
4.315227983E2,9.820143700E0,-7.607381344E0,9.475577474E-1
4.320227983E2,2.986242771E0,-1.035494041E1,5.694918036E-1
4.325227983E2,1.427079391E1,-6.889534473E0,3.011965513E0
4.330227983E2,5.423332691E0,-1.278425312E1,4.271188378E-1
4.335227983E2,1.005344391E1,-1.097348499E1,1.100698411E-1
4.340227983E2,4.181457520E0,-9.378668785E0,3.110669553E-1
4.345227983E2,6.275775433E0,-9.710074425E0,9.415757060E-1
4.350227983E2,3.778865099E0,-8.690732002E0,2.380858511E-1
4.355227983E2,8.852247238E0,-5.998208046E0,-2.568695068E0
4.360227983E2,5.065007210E0,-7.918448448E0,-6.783652306E-1
4.365227983E2,5.644070625E0,-8.151150703E0,3.858426511E-1
4.370227983E2,4.829912663E0,-8.268398285E0,-3.188436031E-1
4.375227983E2,5.533402443E0,-8.505288124E0,6.041877344E-2
4.380227983E2,6.022136211E0,-8.427521706E0,-2.602194548E-1
4.385227983E2,4.474578381E0,-9.649057388E0,5.102694035E-1
4.390227983E2,4.454239368E0,-1.123849010E1,3.074777126E-1
4.395227983E2,5.632704735E0,-9.827920914E0,4.701896608E-1
4.400227983E2,7.194619656E0,-9.093922615E0,1.243071318E0
4.405227983E2,1.587637782E0,-1.182233810E1,3.828516304E-1
4.410227983E2,1.158425236E1,-9.010173798E0,-1.282552958E0
4.415227983E2,4.932205677E0,-1.026341438E1,6.352944374E-1
4.420227983E2,8.328219414E0,-7.559525013E0,-1.345962763E0
4.425227983E2,4.092923164E0,-9.795019150E0,-2.694318295E0
4.430227983E2,6.025127411E0,-7.507481098E0,7.322037220E-1
4.435227983E2,4.180859566E0,-5.219344616E0,-4.019941807E0
4.440227983E2,4.121636868E0,-7.200601578E0,1.142572761E0
4.445227983E2,2.940180779E0,-5.184050083E0,-2.740978241E0
4.450227983E2,2.291127682E0,-7.101897717E0,-4.133601189E-1
4.455227983E2,4.048655987E0,-8.368298531E0,-5.425725579E-1
4.460227983E2,4.146163464E0,-9.629914284E0,-7.549355626E-1
4.465227983E2,5.111069202E0,-1.368694592E1,2.590828657E0
4.470227983E2,1.009771109E0,-1.216989613E1,-2.404786795E-1
4.475227983E2,1.160399342E1,-1.063549805E1,-1.201196909E0
4.480227983E2,4.347160339E0,-1.222732353E1,1.470987678E0
4.485227983E2,5.539982796E0,-9.102297783E0,1.997408748E0
4.490227983E2,5.018945694E0,-4.059423447E0,-6.602993965E0
4.495227983E2,3.245863914E0,-7.229913712E0,-1.438684583E0
4.500227983E2,3.592225075E0,-8.687741280E0,-1.386640668E0
4.505227983E2,4.116851330E0,-1.036092186E1,-1.688136339E0
4.510227983E2,1.215434265E1,-1.083111191E1,-1.587637782E0
4.515227983E2,5.191228867E0,-1.312822151E1,-6.400800347E-1
4.520227983E2,1.073420238E1,-9.816555023E0,-8.536394835E-1
4.525227983E2,7.655237675E0,-1.272622681E1,1.773679733E0
4.530227983E2,7.406982422E0,-8.936594009E0,2.727817893E-1
4.535227983E2,7.536194801E0,-6.884748936E0,-2.781656265E0
4.540227983E2,5.312066078E0,-8.481359482E0,2.025524378E0
4.545227983E2,4.758726120E0,-7.746763229E0,-1.706680775E0
4.550227983E2,4.272384644E0,-1.032921696E1,-4.325026870E-1
4.555227983E2,6.230910301E0,-1.233260822E1,1.979462504E0
4.560227983E2,3.059821844E0,-1.175833035E1,7.686942816E-1
4.565227983E2,8.456234932E0,-1.044407272E1,1.064207911E0
4.570227983E2,2.920439959E0,-1.406680584E1,9.092726111E-1
4.575227983E2,9.306285858E0,-1.123071289E1,-3.961317778E0
4.580227983E2,5.167300701E0,-1.288475132E1,-2.201396823E-1
4.585227983E2,4.527220249E0,-9.817152977E0,8.793623000E-2
4.590227983E2,4.680361271E0,-5.852844238E0,-4.327419758E0
4.595227983E2,2.618944407E0,-5.728417397E0,6.652047038E-1
4.600227983E2,3.342175007E0,-5.946762562E0,-1.600200176E0
4.605227983E2,1.780260086E0,-7.966903210E0,-1.733600020E0
4.610227983E2,5.238486767E0,-1.230688477E1,9.332008362E-1
4.615227983E2,4.618147850E0,-1.070548820E1,-1.686939895E-1
4.620227983E2,7.842476368E0,-1.266461182E1,2.322832584E0
4.625227983E2,1.658824325E0,-1.200598717E1,1.106680512E0
4.630227983E2,9.969695091E0,-1.104048347E1,2.496910334E0
4.635227983E2,2.226521492E0,-1.123968601E1,1.202991605E0
4.640227983E2,1.063071251E1,-8.809176445E0,-1.124626637E0
4.645227983E2,6.589833736E0,-1.083290672E1,1.704886109E-1
4.650227983E2,6.981060028E0,-8.481958389E0,-1.189831018E0
4.655227983E2,4.717449665E0,-6.907480717E0,-4.255635262E0
4.660227983E2,5.382654667E0,-7.553543091E0,8.985049129E-1
4.665227983E2,4.856233597E0,-3.860819340E0,-3.617947817E0
4.670227983E2,3.673580885E0,-4.975874901E0,1.518245935E0
4.675227983E2,4.117449760E0,-4.595416069E0,-1.841277003E0
4.680227983E2,2.864806890E0,-6.434898376E0,-1.955534339E0
4.685227983E2,3.000599623E0,-6.926623344E0,8.733802289E-2
4.690227983E2,2.799602509E0,-1.036869907E1,2.506481707E-1
4.695227983E2,5.577071190E0,-1.301396370E1,4.528416634E0
4.700227983E2,3.433102369E0,-1.204726410E1,1.475773335E0
4.705227983E2,9.984650612E0,-1.284766293E1,-5.168496966E-1
4.710227983E2,1.317847013E0,-1.185224915E1,1.480558991E0
4.715227983E2,8.678169250E0,-9.033503532E0,-6.156134605E0
4.720227983E2,6.031109333E0,-9.737591743E0,1.830509305E-1
4.725227983E2,7.423732281E0,-9.105288506E0,-2.079961061E0
4.730227983E2,4.932804108E0,-1.042433167E1,-1.442273855E0
4.735227983E2,6.684350014E0,-9.727422714E0,1.721037745E0
4.740227983E2,6.541976929E0,-5.906682491E0,-4.077369690E0
4.745227983E2,5.464010715E0,-7.587042332E0,1.726421595E0
4.750227983E2,4.636094093E0,-5.497509956E0,-2.250449657E0
4.755227983E2,3.120240688E0,-9.593423843E0,1.839482427E0
4.760227983E2,3.782454491E0,-8.338388443E0,-1.491924882E0
4.765227983E2,2.830111027E0,-9.970293999E0,-6.580262631E-2
4.770227983E2,4.102494240E0,-1.267238903E1,2.447259426E0
4.775227983E2,3.710071564E0,-1.103390312E1,6.209374666E-1
4.780227983E2,1.007737255E1,-1.122114182E1,2.584248543E0
4.785227983E2,2.494517565E0,-1.145803165E1,5.665007830E-1
4.790227983E2,1.062293625E1,-1.011386299E1,2.130808592E0
4.795227983E2,2.716451883E0,-1.105125141E1,2.002194405E0
4.800227983E2,1.048833942E1,-8.976674080E0,-1.782652885E-1
4.805227983E2,2.526820660E0,-1.114277649E1,-1.136590727E-2
4.810227983E2,9.480362892E0,-8.416155815E0,-2.008176327E0
4.815227983E2,4.645066738E0,-1.148913765E1,-8.961120844E-1
4.820227983E2,8.857032776E0,-7.972885132E0,-1.703689694E0
4.825227983E2,7.357331276E0,-9.007781029E0,-4.187439755E-2
4.830227983E2,7.313662529E0,-7.063612461E0,-4.019941986E-1
4.835227983E2,3.779463291E0,-6.799205780E0,-4.774279594E0
4.840227983E2,5.845067501E0,-8.140382767E0,5.132604837E-1
4.845227983E2,4.049852371E0,-5.989833355E0,-5.157131195E0
4.850227983E2,4.996213913E0,-6.480959892E0,1.458425403E0
4.855227983E2,3.692723513E0,-4.741377831E0,-3.916452408E0
4.860227983E2,4.102494240E0,-6.116054535E0,2.528017044E0
4.865227983E2,3.601796389E0,-5.198407173E0,-2.021337032E0
4.870227983E2,3.894318938E-1,-7.897511005E0,-6.783652306E-1
4.875227983E2,2.842673302E0,-7.415955544E0,-1.144965649E0
4.880227983E2,4.009174347E0,-9.050851822E0,-1.979462504E0
4.885227983E2,4.291527271E0,-1.074556828E1,3.361915946E-1
4.890227983E2,4.572085857E0,-1.060618591E1,-3.030509949E0
4.895227983E2,6.502495766E0,-1.194796181E1,9.942178130E-1
4.900227983E2,4.421936035E0,-1.217767239E1,5.916253924E-1
4.905227983E2,1.076411247E1,-1.028255749E1,1.582253933E0
4.910227983E2,2.145763636E0,-1.077428246E1,-2.237289101E-1
4.915227983E2,1.104526901E1,-7.291528702E0,-2.164906263E0
4.920227983E2,4.832305431E0,-1.182832050E1,-9.391828626E-2
4.925227983E2,9.400801659E0,-7.602595806E0,-1.397408366E0
4.930227983E2,5.797211170E0,-7.637889862E0,-2.070987940E0
4.935227983E2,6.353542328E0,-7.971090317E0,1.310070455E-1
4.940227983E2,4.786841869E0,-4.999204636E0,-5.745765209E0
4.945227983E2,5.242076397E0,-7.607979774E0,7.453642488E-1
4.950227983E2,2.737389088E0,-3.434896946E0,-3.556930780E0
4.955227983E2,3.171686411E0,-7.064808846E0,-2.835494876E-1
4.960227983E2,4.941776752E0,-5.712863922E0,-1.944766641E0
4.965227983E2,4.444668293E0,-7.653443336E0,1.676172256E0
4.970227983E2,6.175277233E0,-6.342176437E0,-9.248259664E-1
4.975227983E2,5.312066078E0,-6.964310169E0,-7.770691514E-1
4.980227983E2,7.945965767E0,-7.945367813E0,1.734796353E-2
4.985227983E2,6.404389858E0,-9.999007225E0,-6.400800347E-1
4.990227983E2,1.133360481E1,-6.659823418E0,-1.180259824E0
4.995227983E2,4.451846600E0,-1.059362411E1,2.820539713E0
5.000227983E2,1.151067352E1,-7.640881062E0,2.285145670E-1
5.005227983E2,3.739383698E0,-1.116191959E1,9.032905698E-1
5.010227983E2,1.218305683E1,-8.419146538E0,-2.241476536E0
5.015227983E2,5.709274769E0,-1.054158020E1,1.880758643E0
5.020227983E2,1.072941685E1,-6.805187702E0,-2.201396823E-1
5.025227983E2,7.369893551E0,-5.232504845E0,-3.066402197E0
5.030227983E2,5.934200287E0,-5.782256126E0,9.110672474E-1
5.035227983E2,5.376074314E0,-3.877569199E0,-3.434896946E0
5.040227983E2,4.121636868E0,-5.795416355E0,5.742774159E-2
5.045227983E2,3.731008768E0,-6.465406895E0,-1.457827210E0
5.050227983E2,3.893720627E0,-7.609176159E0,-1.065404296E0
5.055227983E2,4.667798996E0,-8.646464348E0,2.069791555E-1
5.060227983E2,5.288137913E0,-9.516854286E0,1.196411327E-1
5.065227983E2,9.955338478E0,-1.087777138E1,2.166102648E0
5.070227983E2,5.778068542E0,-1.155852985E1,1.287338614E0
5.075227983E2,1.190967655E1,-1.027597713E1,1.356132269E0
5.080227983E2,4.241278172E0,-1.062413216E1,5.904290080E-1
5.085227983E2,1.035972595E1,-7.277770042E0,-2.499303341E0
5.090227983E2,5.749354839E0,-1.029093170E1,2.344966233E-1
5.095227983E2,6.993622303E0,-7.424330235E0,1.974078715E-1
5.100227983E2,4.399204254E0,-5.691926956E0,-4.887340069E0
5.105227983E2,3.080759048E0,-5.970690727E0,-7.339983582E-1
5.110227983E2,4.521238327E0,-5.734997749E0,-2.035693884E0
5.115227983E2,3.081955671E0,-7.965108395E0,-6.496513486E-1
5.120227983E2,3.922434568E0,-9.000003815E0,-5.886343718E-1
5.125227983E2,4.680361271E0,-9.504291534E0,-2.374876440E-1
5.130227983E2,8.626724243E0,-1.196889877E1,1.783849239E0
5.135227983E2,5.344369411E0,-1.091725349E1,2.983251572E0
5.140227983E2,1.090828037E1,-1.029751205E1,-7.130611539E-1
5.145227983E2,4.616951466E0,-1.019641590E1,1.597209096E0
5.150227983E2,1.047936630E1,-8.467600822E0,-4.666004330E-2
5.155227983E2,5.678766251E0,-9.794421196E0,7.848458290E-1
5.160227983E2,7.754539967E0,-8.539385796E0,1.336391449E0
5.165227983E2,2.385046005E0,-8.248658180E0,-2.509472847E0
5.170227983E2,1.867598057E0,-7.162914753E0,3.745365620E0
5.175227983E2,2.295913219E0,-5.136792183E0,-5.102694511E0
5.180227983E2,4.241278172E0,-5.388636589E0,1.585245013E0
5.185227983E2,3.313461065E0,-6.244070530E0,-2.989831924E0
5.190227983E2,3.771088600E0,-6.404987812E0,-1.801197290E0
5.195227983E2,4.078566074E0,-1.018863869E1,1.178465188E-1
5.200227983E2,4.583451748E0,-1.081675434E1,-2.193022013E0
5.205227983E2,6.131608009E0,-1.081436157E1,4.001995921E-1
5.210227983E2,4.214957237E0,-1.111226845E1,5.371887088E-1
5.215227983E2,9.699306488E0,-1.058883858E1,2.492124796E0
5.220227983E2,3.265006542E0,-1.251446247E1,1.470987678E0
5.225227983E2,9.801001549E0,-1.048833942E1,-2.554338276E-1
5.230227983E2,3.983451605E0,-1.142453194E1,2.237289101E-1
5.235227983E2,8.684151649E0,-9.445667267E0,-1.386042476E0
5.240227983E2,7.091129780E0,-1.014257717E1,-1.226321608E-1
5.245227983E2,8.328219414E0,-7.135396957E0,-4.366901219E-1
5.250227983E2,4.947160721E0,-6.648457527E0,-2.442473650E0
5.255227983E2,4.360919476E0,-7.305885792E0,-3.708875179E-2
5.260227983E2,4.051646709E0,-4.827519894E0,-3.405584812E0
5.265227983E2,3.497110367E0,-7.046264648E0,2.218744755E0
5.270227983E2,4.511667252E0,-4.847858906E0,-3.779463291E0
5.275227983E2,2.989233732E0,-7.203592777E0,-3.780659735E-1
5.280227983E2,2.373680115E0,-5.859424591E0,-2.340180635E0
5.285227983E2,3.406183004E0,-8.733802795E0,-1.400399446E0
5.290227983E2,2.678166628E0,-8.909076691E0,-5.467599630E-1
5.295227983E2,4.514060020E0,-9.494720459E0,-1.150349498E0
5.300227983E2,8.140382767E0,-1.235534000E1,2.523231506E0
5.305227983E2,5.170291424E0,-1.256710434E1,1.366899967E0
5.310227983E2,1.156810093E1,-1.118704414E1,-2.428714931E-1
5.315227983E2,3.902095556E0,-1.180798149E1,3.714857101E-1
5.320227983E2,1.124327564E1,-8.224729538E0,-3.795016766E0
5.325227983E2,5.696114540E0,-1.093699455E1,-3.607180119E-1
5.330227983E2,8.295317650E0,-8.096115112E0,-2.132603168E0
5.335227983E2,6.430710793E0,-8.464610100E0,-2.991028363E-3
5.340227983E2,6.239284992E0,-8.176873207E0,-1.645065546E-1
5.345227983E2,4.715655327E0,-5.763113499E0,-3.842873096E0
5.350227983E2,4.368097782E0,-8.098507881E0,1.936989903E0
5.355227983E2,5.542973518E0,-5.380859852E0,-3.293720484E0
5.360227983E2,4.161716938E0,-9.110074043E0,1.287338614E0
5.365227983E2,3.564109325E0,-7.112665176E0,-1.829312921E0
5.370227983E2,3.241676569E0,-9.189635277E0,-6.616154313E-1
5.375227983E2,5.088337421E0,-9.844072342E0,1.059422255E0
5.380227983E2,4.195216179E0,-9.120243073E0,-6.807580590E-1
5.385227983E2,4.276572227E0,-1.179841042E1,6.496513486E-1
5.390227983E2,3.760320902E0,-1.097707367E1,5.150550604E-1
5.395227983E2,8.630312920E0,-9.774082184E0,1.253839016E0
5.400227983E2,3.568894863E0,-1.274058437E1,1.333400369E0
5.405227983E2,8.842676163E0,-1.112004471E1,4.630111754E-1
5.410227983E2,4.822135925E0,-1.287996578E1,2.810968399E0
5.415227983E2,9.943374634E0,-1.036869907E1,-1.759921074E0
5.420227983E2,4.383651257E0,-9.757930756E0,-6.813562512E-1
5.425227983E2,7.025327206E0,-8.565108299E0,-3.711866140E0
5.430227983E2,8.748159409E0,-7.945367813E0,-2.835494876E-1
5.435227983E2,5.283352375E0,-8.138587952E0,7.657032460E-2
5.440227983E2,5.373083115E0,-5.683551788E0,-4.048655987E0
5.445227983E2,3.217748165E0,-7.208378315E0,8.135597110E-1
5.450227983E2,5.149354458E0,-4.409373760E0,-4.492524624E0
5.455227983E2,1.831705689E0,-6.541976929E0,5.521438122E-1
5.460227983E2,3.854238987E0,-4.664209366E0,-2.786442041E0
5.465227983E2,3.655036688E0,-5.933003902E0,4.199403822E-1
5.470227983E2,3.888935089E0,-6.870391846E0,-1.920240164E0
5.475227983E2,4.147958279E0,-8.362317085E0,-2.883351147E-1
5.480227983E2,2.112264156E0,-1.043629551E1,-6.687939167E-1
5.485227983E2,5.921638012E0,-1.042134094E1,-5.856433511E-1
5.490227983E2,7.698308468E0,-1.257069397E1,2.746960402E0
5.495227983E2,4.503292084E0,-1.193240833E1,8.291130662E-1
5.500227983E2,9.871589661E0,-1.089332485E1,1.062413216E0
5.505227983E2,3.699303865E0,-1.091246796E1,-6.340979785E-2
5.510227983E2,1.144606686E1,-9.073583603E0,-9.236295223E-1
5.515227983E2,4.348356724E0,-1.082812023E1,-6.622136831E-1
5.520227983E2,1.091725349E1,-6.648457527E0,-8.985049129E-1
5.525227983E2,5.796612740E0,-8.907281876E0,1.256231815E-1
5.530227983E2,6.251847267E0,-7.907082558E0,-1.519442350E-1
5.535227983E2,4.566701889E0,-5.144568920E0,-4.571487427E0
5.540227983E2,4.533202648E0,-6.538986206E0,6.987041831E-1
5.545227983E2,4.607379913E0,-4.328018188E0,-4.037290096E0
5.550227983E2,3.760320902E0,-7.457231998E0,-4.289134443E-1
5.555227983E2,3.681955814E0,-7.752745152E0,-1.458425403E0
5.560227983E2,3.297309637E0,-8.736793518E0,-2.509472847E0
5.565227983E2,2.940180779E0,-9.437292099E0,-1.196411327E-1
5.570227983E2,3.896711588E0,-9.498309135E0,-1.371685624E0
5.575227983E2,5.221138954E0,-1.129531956E1,5.024927258E-1
5.580227983E2,4.566701889E0,-1.087956619E1,-4.187439755E-2
5.585227983E2,1.006899738E1,-1.208674526E1,2.043470621E0
5.590227983E2,2.861815929E0,-1.156391335E1,7.483552694E-1
5.595227983E2,8.796015739E0,-1.166740322E1,5.563312769E-2
5.600227983E2,4.682155609E0,-1.135035419E1,-8.015955985E-2
5.605227983E2,9.893723488E0,-6.717849731E0,5.617151260E-1
5.610227983E2,4.942375183E0,-7.566105366E0,6.221338734E-2
5.615227983E2,5.937789440E0,-9.067601204E0,1.519442350E-1
5.620227983E2,6.154339790E0,-6.398407936E0,-3.909872293E0
5.625227983E2,4.538586140E0,-8.955737114E0,2.121835470E0
5.630227983E2,4.450650215E0,-4.868795872E0,-2.653042078E0
5.635227983E2,3.238087177E0,-9.002995491E0,-3.780659735E-1
5.640227983E2,3.726222992E0,-9.318847656E0,-7.704889178E-1
5.645227983E2,1.908276081E0,-8.588438988E0,1.668993831E0
5.650227983E2,8.419744492E0,-7.583453178E0,6.478567123E-1
5.655227983E2,8.916853905E0,-1.281894875E1,2.290529490E0
5.660227983E2,8.519644737E0,-1.261795235E1,1.666600943E0
5.665227983E2,5.514857769E0,-1.370010567E1,2.362912297E-1
5.670227983E2,8.344968796E0,-1.138863945E1,1.850848317E0
5.675227983E2,1.025683403E1,-9.410373688E0,-3.822534084E0
5.680227983E2,6.612565517E0,-1.114098263E1,-3.236292601E-1
5.685227983E2,5.669195175E0,-2.204387903E0,-6.144768715E0
5.690227983E2,4.763511658E0,-7.374679565E0,-5.539384484E-1
5.695227983E2,4.157529354E0,-8.423932076E0,4.486542568E-2
5.700227983E2,3.571287870E0,-9.472586632E0,-1.703689694E0
5.705227983E2,6.851249218E0,-1.329930782E1,1.711466432E0
5.710227983E2,4.088137627E0,-1.101476097E1,2.206182480E0
5.715227983E2,9.357730865E0,-1.292782211E1,5.395814776E-1
5.720227983E2,3.263810158E0,-1.135813046E1,3.415754437E-1
5.725227983E2,8.258229256E0,-1.040997505E1,-2.890529871E0
5.730227983E2,5.310869694E0,-7.337590694E0,-3.238087177E0
5.735227983E2,7.115057945E0,-7.253243446E0,5.425725579E-1
5.740227983E2,5.093721390E0,-4.994419098E0,-3.486940861E0
5.745227983E2,3.375674486E0,-7.390232563E0,1.109073281E0
5.750227983E2,4.066602230E0,-5.097908497E0,-3.722035646E0
5.755227983E2,3.568296671E0,-7.837092400E0,9.092725813E-2
5.760227983E2,6.349354744E0,-6.894918442E0,-8.805587292E-1
5.765227983E2,3.310470104E0,-8.563314438E0,-2.051247120E0
5.770227983E2,5.771488190E0,-1.041356373E1,3.044866920E-1
5.775227983E2,3.271586657E0,-1.007557774E1,-8.530412912E-1
5.780227983E2,6.961319447E0,-1.277767277E1,1.261615753E0
5.785227983E2,2.827120066E0,-1.277767277E1,-2.667997181E-1
5.790227983E2,9.616155624E0,-1.120798111E1,1.253839016E0
5.795227983E2,1.262213945E0,-1.050090218E1,1.080359459E0
5.800227983E2,9.879366875E0,-7.822735310E0,-1.667199135E0
5.805227983E2,5.085346222E0,-1.151306629E1,-4.127619043E-2
5.810227983E2,6.548557281E0,-9.497711182E0,2.165504545E-1
5.815227983E2,5.809773445E0,-6.162714481E0,-3.683152199E0
5.820227983E2,4.289732933E0,-8.711071014E0,3.413959742E0
5.825227983E2,6.375676155E0,-6.138786316E0,-2.819941521E0
5.830227983E2,4.144368649E0,-1.046800041E1,4.546363056E-1
5.835227983E2,4.826921463E0,-9.110074043E0,-1.371685624E0
5.840227983E2,3.319443226E0,-1.006780148E1,-8.057830334E-1
5.845227983E2,5.559125423E0,-1.443350601E1,1.895115495E0
5.850227983E2,3.686143398E0,-1.208495045E1,-4.103690982E-1
5.855227983E2,1.132642555E1,-1.096211910E1,1.955534339E0
5.860227983E2,2.333002090E-1,-1.208375454E1,7.256234884E-1
5.865227983E2,1.062293625E1,-9.107083321E0,-2.679961324E-1
5.870227983E2,4.805984497E0,-1.236012554E1,-5.856433511E-1
5.875227983E2,7.875975609E0,-1.030947590E1,1.403390527E0
5.880227983E2,6.994818687E0,-7.593622684E0,-3.042474031E0
5.885227983E2,5.072783947E0,-1.025743294E1,2.147558212E0
5.890227983E2,6.028118610E0,-5.042873859E0,-4.246662140E0
5.895227983E2,2.764906645E0,-8.185248375E0,2.356930375E-1
5.900227983E2,4.410570145E0,-5.364708424E0,-2.831905603E0
5.905227983E2,2.456830740E0,-8.790034294E0,-3.637090325E-1
5.910227983E2,3.550948858E0,-7.633104324E0,-2.470589399E0
5.915227983E2,1.880758643E0,-8.454441071E0,-8.261220455E-1
5.920227983E2,4.045066833E0,-1.075155067E1,-7.405785918E-1
5.925227983E2,3.566502094E0,-1.068514919E1,-9.702895880E-1
5.930227983E2,7.154539585E0,-1.186241817E1,1.560120344E0
5.935227983E2,3.969094515E0,-9.672985077E0,-1.342971683E0
5.940227983E2,9.593423843E0,-1.097647572E1,1.087537885E0
5.945227983E2,3.559323788E0,-1.264008522E1,7.836493850E-2
5.950227983E2,9.850652695E0,-1.030708313E1,-7.609176040E-1
5.955227983E2,1.136590764E-1,-1.215912819E1,4.486542344E-1
5.960227983E2,1.121575832E1,-8.897710800E0,-1.344766378E0
5.965227983E2,2.976671457E0,-1.170449162E1,8.985049129E-1
5.970227983E2,1.105484104E1,-6.850052834E0,-2.657229662E0
5.975227983E2,3.984647989E0,-1.111825085E1,-6.352944374E-1
5.980227983E2,9.506086349E0,-7.493124008E0,-1.754537225E0
5.985227983E2,7.252047062E0,-1.010130119E1,-7.645068169E-1
5.990227983E2,9.282357216E0,-7.993224144E0,-1.379462242E0
5.995227983E2,5.165505886E0,-7.916653633E0,-1.384247899E0
6.000227983E2,6.221338749E0,-8.907880783E0,2.153540403E-1
6.005227983E2,5.859424591E0,-4.804787636E0,-5.062016487E0
6.010227983E2,3.769293785E0,-7.808976650E0,1.338784218E0
6.015227983E2,5.544768333E0,-5.141577721E0,-4.247858524E0
6.020227983E2,3.898506403E0,-8.223533630E0,1.829911113E0
6.025227983E2,5.605785370E0,-4.782055855E0,-2.576471806E0
6.030227983E2,1.899901152E0,-9.116654396E0,2.991028316E-2
6.035227983E2,4.351946354E0,-7.454240799E0,-2.443670034E0
6.040227983E2,6.155536175E-1,-8.591429710E0,-3.122633696E-1
6.045227983E2,3.206382275E0,-8.634500504E0,-8.171489239E-1
6.050227983E2,3.225524902E0,-8.877371788E0,-5.659025311E-1
6.055227983E2,5.808577061E0,-1.338186073E1,1.441675663E0
6.060227983E2,3.406183004E0,-1.122532940E1,-2.011167526E0
6.065227983E2,5.694917679E0,-1.264546967E1,2.267199457E-1
6.070227983E2,4.411168575E0,-1.300379467E1,-8.632107973E-1
6.075227983E2,7.727620602E0,-1.244447231E1,-6.759724021E-1
6.080227983E2,1.631905079E0,-1.248933792E1,1.232303679E-1
6.085227983E2,7.532605648E0,-9.492925644E0,2.739782035E-1
6.090227983E2,1.963310957E0,-1.146281719E1,-1.357926846E0
6.095227983E2,8.815158844E0,-8.535796165E0,9.170492887E-1
6.100227983E2,3.321237803E0,-1.061336517E1,-1.328016520E-1
6.105227983E2,1.069232845E1,-7.669594765E0,9.870393574E-2
6.110227983E2,6.477969170E0,-8.547162056E0,5.246263742E-1
6.115227983E2,8.106883049E0,-8.507082939E0,-4.755735099E-1
6.120227983E2,4.337589264E0,-8.856434822E0,-5.102694035E-1
6.125227983E2,9.342776299E0,-8.105088234E0,4.881358147E-1
6.130227983E2,6.851249218E0,-2.495115757E0,2.998805046E0
6.135227983E2,1.673181176E0,3.410370588E0,7.800601959E0
6.140227983E2,4.040879250E0,1.999203324E0,6.464210510E0
6.145227983E2,3.332603693E0,1.068993568E0,1.145683479E1
6.150227983E2,4.561916351E0,2.188236237E0,1.152981567E1
6.155227983E2,1.977667928E0,6.035895348E0,9.260223389E0
