"Time (s)","Gyroscope x (rad/s)","Gyroscope y (rad/s)","Gyroscope z (rad/s)"
2.739877110E-1,-5.112938285E-1,-1.046105981E0,2.330449075E-1
7.781165660E-1,-8.797979951E-1,-1.618486285E0,1.829081893E0
1.282245889E0,2.510654330E-1,-4.204276800E-1,-5.225948095E-1
1.786375628E0,-3.411679864E-1,4.010327160E-1,6.805033684E-1
2.290505784E0,5.299251899E-2,-2.289215773E-1,-6.020072699E-1
2.794636305E0,-3.089448512E-1,2.727511227E-1,8.840740323E-1
3.298767034E0,-3.121519089E-1,-3.173442483E-1,-7.814487815E-1
3.802898128E0,9.880737960E-2,2.275471389E-2,1.120478749E0
4.307029482E0,-6.899717450E-1,-3.466657549E-2,-1.204167247E0
4.811161149E0,1.724165827E-1,7.589995116E-2,1.320536971E0
5.315292972E0,-3.587303460E-1,-2.200640440E-1,-1.406821609E0
5.819425107E0,8.933897316E-2,-6.765327603E-2,1.562439442E0
6.323557555E0,-4.291325212E-1,-6.352993846E-2,-1.767537236E0
6.827690211E0,9.544762224E-2,-1.687513888E-1,1.373987556E0
7.331823232E0,-1.724165827E-1,-5.543597788E-2,-1.212261200E0
7.835956253E0,-7.544180006E-2,-2.890917659E-1,9.786053896E-1
8.340089430E0,1.182023361E-1,-5.925388262E-2,-7.822123766E-1
8.844222659E0,-5.780308247E-1,-5.543597788E-2,4.842630625E-1
9.348355784E0,4.550942779E-2,6.579013467E-1,-2.637408674E-1
9.852488597E0,-1.516471803E-1,-7.209731340E-1,-3.631591201E-1
1.035662104E1,-1.023198478E-2,3.556760252E-1,2.893971801E-1
1.086075297E1,-3.627009690E-1,-4.699077308E-1,-5.503891706E-1
1.136488464E1,-1.331685185E-1,5.306887627E-1,6.282744408E-1
1.186901589E1,-1.194240674E-1,-6.597339511E-1,-7.469348907E-1
1.237314683E1,-7.070759684E-2,2.049451321E-1,8.116865754E-1
1.287727735E1,-2.212857604E-1,-3.894263133E-2,-7.403681278E-1
1.338140750E1,4.990765154E-1,-2.083048970E-1,2.234237939E-1
1.388553714E1,-6.976075768E-1,5.677987933E-1,3.633118272E-1
1.438966630E1,3.002400398E-1,-2.457203567E-1,3.291034102E-1
1.489379495E1,-3.376555145E-1,-1.591302752E-1,-3.440696001E-1
1.539792313E1,2.273944169E-1,-2.958112657E-1,1.676823795E-1
1.590205084E1,-1.191186346E-2,2.089157552E-1,-4.520399272E-1
1.640617792E1,-8.994983882E-2,-1.890626550E-1,1.217148080E-1
1.691030448E1,9.178243577E-2,1.753181964E-1,2.993237413E-2
1.741443058E1,-1.548542231E-1,-1.553123742E-1,-1.317940801E-1
1.791855615E1,-3.222311661E-2,3.886627257E-1,2.851211429E-1
1.842268125E1,-1.435532272E-1,-1.017089859E-1,-2.128863782E-1
1.892680584E1,-3.312414289E-1,1.291978955E-1,4.402807951E-1
1.943092990E1,-1.102610901E-1,-7.605266571E-1,-4.886918366E-1
1.993505339E1,-3.069595434E-2,5.112938285E-1,5.983420610E-1
2.043917636E1,7.192932814E-2,-6.438514590E-1,-7.570141554E-1
2.094329870E1,4.123337194E-2,4.618137777E-1,6.830995679E-1
2.144742052E1,-1.296560466E-1,-4.969384968E-1,-8.442151546E-1
2.195154188E1,-2.964221239E-1,3.985892832E-1,1.079398036E0
2.245566318E1,-9.850194305E-2,-4.028653204E-1,-1.149952888E0
2.295978453E1,1.572976820E-2,2.205221802E-1,1.102152824E0
2.346390573E1,-9.376774728E-2,-4.352411628E-1,-1.368337154E0
2.396802657E1,-1.626427472E-1,2.006690800E-1,1.377194643E0
2.447214709E1,-2.997818887E-1,-1.756236330E-2,-1.252272844E0
2.497626735E1,-2.180787325E-1,1.307250559E-1,1.333975911E0
2.548038750E1,-4.314232469E-1,-4.156934917E-1,-1.174540281E0
2.598450756E1,2.645044625E-1,-3.512472380E-3,1.153770804E0
2.648862745E1,-3.901898861E-1,-1.832594350E-2,-1.069929719E0
2.699274724E1,4.123337101E-3,-3.817904973E-3,9.132428169E-1
2.749686693E1,3.191768378E-2,-8.842267841E-2,-8.646790981E-1
2.800098630E1,-5.085449293E-2,-4.360047281E-1,4.489856064E-1
2.850510542E1,-7.880155742E-2,2.768744528E-1,-5.285507441E-1
2.900922412E1,-1.331685185E-1,-2.629773021E-1,3.451386094E-1
2.951334250E1,2.599229515E-1,3.442223072E-1,6.352993846E-2
3.001746042E1,-4.337139800E-2,-6.078104377E-1,-1.785252392E-1
3.052157792E1,-1.177441850E-1,3.937023580E-1,2.863428593E-1
3.102569500E1,-2.342666388E-1,-2.006690800E-1,-4.269944727E-1
3.152981172E1,-2.733619809E-1,6.641627550E-1,8.475748450E-2
3.203392792E1,-2.147189677E-1,-5.109884143E-1,-2.134972364E-1
3.253804370E1,-1.414151937E-1,4.523453712E-1,2.666424811E-1
3.304215907E1,-9.605848789E-2,-6.548470259E-1,-8.750637621E-2
3.354627401E1,-1.789833754E-1,5.325213671E-1,1.186604798E-1
3.405038834E1,-3.718639314E-1,-3.109301627E-1,-3.210094273E-1
3.455450203E1,7.208204269E-2,2.290742993E-1,6.947059631E-1
3.505861500E1,-4.242455959E-1,-2.918406427E-1,-6.704241037E-1
3.556272735E1,4.063777924E-1,-1.893680729E-2,1.090851784E0
3.606683912E1,-6.466003656E-1,-1.740964651E-1,-9.382883310E-1
3.657095032E1,4.471530318E-1,-5.001455545E-1,5.681042671E-1
3.707506099E1,-9.300415963E-2,1.828012913E-1,-2.385426909E-1
3.757917110E1,-3.422369957E-1,-2.614501119E-1,8.093958721E-3
3.808328063E1,2.159406990E-1,4.114174247E-1,1.786779463E-1
3.858738953E1,-5.149590373E-1,-5.685623884E-1,-3.410152495E-1
3.909149787E1,3.817904890E-1,6.024653912E-1,3.358229101E-1
3.959560568E1,-4.914407134E-1,-6.050615907E-1,-6.236929297E-1
4.009971339E1,1.345429718E-1,5.900954008E-1,4.842630625E-1
4.060382146E1,-2.336557806E-1,-4.451677203E-1,-6.110175252E-1
4.110792990E1,-1.116355360E-1,7.463240623E-1,7.382301092E-1
4.161203865E1,-1.311832070E-1,-4.254673123E-1,-7.405208349E-1
4.211614771E1,-3.020726442E-1,6.504182816E-1,9.111047983E-1
4.262025677E1,-2.886336111E-2,-5.644390583E-1,-1.266628146E0
4.312436573E1,-3.956876695E-1,5.522217751E-1,1.499367595E0
4.362847453E1,1.455385387E-1,-2.278525680E-1,-1.700953007E0
4.413258318E1,2.351829410E-2,-3.995055556E-1,1.603520036E0
4.463669167E1,-1.011439323E0,-4.966330528E-1,-1.479361773E0
4.514079980E1,-3.315468729E-1,2.289215773E-1,1.799607635E0
4.564490756E1,-2.612974048E-1,-1.221729536E-2,-1.623678565E0
4.614901474E1,-4.963276163E-2,-4.841103405E-2,1.272278666E0
4.665312136E1,-3.144426346E-1,-3.405570984E-2,-1.154076338E0
4.715722730E1,-1.203403622E-1,-2.032652497E-1,8.596394658E-1
4.766133256E1,3.481929377E-2,-9.926552884E-3,-8.072578311E-1
4.816543730E1,-3.501782417E-1,-2.076940238E-1,4.903717041E-1
4.866954151E1,1.493564397E-1,3.100138903E-1,-1.985310465E-1
4.917364521E1,-5.022835732E-1,-4.187478125E-1,-2.466366589E-1
4.967774839E1,-4.337139800E-2,6.809614897E-1,2.141081095E-1
5.018185115E1,-2.199113220E-1,-5.995637774E-1,-5.447386503E-1
5.068595360E1,-1.739437431E-1,4.925097227E-1,6.615665555E-1
5.119005568E1,-3.790415823E-1,-4.253146052E-1,-9.187406301E-1
5.169415750E1,-8.277218044E-2,4.138608873E-1,1.209054112E0
5.219825912E1,-4.164570570E-1,-2.223547846E-1,-1.231808782E0
5.270236029E1,2.901607752E-2,2.977965772E-2,1.321300507E0
5.320646123E1,-3.524689674E-1,-1.258381456E-1,-1.170875072E0
5.371056175E1,4.378373325E-1,-1.481347065E-2,1.006399751E0
5.421466196E1,-4.126391709E-1,-1.174387559E-1,-8.315396905E-1
5.471876180E1,2.287688553E-1,-1.531743407E-1,8.156571984E-1
5.522286128E1,-1.983783394E-1,3.023780696E-2,-8.003855944E-1
5.572696050E1,-6.719512399E-3,-4.218021333E-1,6.186532974E-1
5.623105941E1,-9.758564830E-2,1.559232324E-1,-3.063486814E-1
5.673515790E1,-4.271472096E-1,-1.678351015E-1,-6.185005978E-2
5.723925602E1,2.620609999E-1,5.864302069E-2,-1.811214089E-1
5.774335357E1,-5.381718874E-1,-3.990474045E-1,-2.611446939E-2
5.824745055E1,4.179842174E-1,6.287325621E-1,2.561050653E-1
5.875154696E1,-6.203331947E-1,-7.406735420E-1,-4.196641147E-1
5.925564279E1,5.406153202E-2,5.219839811E-1,2.440404743E-1
5.975973810E1,-2.313650399E-1,-5.613847375E-1,-9.379828572E-1
6.026383295E1,-5.274817348E-1,7.394518256E-1,7.483093739E-1
6.076792743E1,2.782489061E-1,-7.699950337E-1,-1.003345370E0
6.127202175E1,-3.228420317E-1,4.709767401E-1,8.200859427E-1
6.177611623E1,1.414151937E-1,-3.652971387E-1,-4.499019086E-1
6.228021118E1,-7.339540124E-1,2.936732471E-1,1.007621408E0
6.278430685E1,1.542433500E-1,-2.770271897E-1,-8.387173414E-1
6.328840326E1,-3.562868834E-1,3.100138716E-2,1.127809048E0
6.379250024E1,4.062250853E-1,-2.455676347E-1,-1.277623653E0
6.429659774E1,-5.421425030E-2,3.075704277E-1,7.400626540E-1
6.480069550E1,-4.404335022E-1,-4.828886092E-1,-3.597993553E-1
6.530479362E1,1.534797698E-1,2.947422490E-2,6.272054315E-1
6.580889196E1,-1.539379209E-1,-1.873827726E-1,-8.373429179E-1
6.631299034E1,1.078176349E-1,-4.382954910E-2,7.881683111E-1
6.681708878E1,2.493855506E-1,-3.840812445E-1,-8.071050644E-1
6.732118722E1,-7.910698652E-2,8.093958348E-2,4.172206521E-1
6.782528540E1,-2.324340492E-1,-6.108647957E-2,-5.390881896E-1
6.832938321E1,-2.814559340E-1,1.857028902E-1,3.451386094E-1
6.883348060E1,-1.305723488E-1,-7.971785218E-2,-2.333503515E-1
6.933757743E1,1.635590494E-1,1.010981202E-1,-1.621845961E-1
6.984167362E1,-5.192350596E-3,4.091266990E-1,4.329504073E-1
7.034576956E1,-3.488037884E-1,-4.167625010E-1,-1.957821548E-1
7.084986388E1,2.379318327E-1,3.515526950E-1,-4.031707719E-2
7.135395805E1,-4.074468017E-1,-1.015562713E-1,-2.119700760E-1
7.185805170E1,2.159406990E-1,-2.666424811E-1,7.034108043E-1
7.236214456E1,-3.927860558E-1,-2.011272311E-1,-1.100625634E0
7.286623670E1,-5.128209591E-1,9.957095981E-2,6.017017961E-1
7.337032831E1,6.435460448E-1,-1.320078731E0,-1.960875988E-1
7.387441946E1,-2.043342739E-1,1.264337420E0,3.078758419E-1
7.437851029E1,1.504254490E-1,-6.273581386E-1,-3.802633286E-1
7.488260066E1,-7.310523987E-1,7.029526234E-1,1.548542231E-1
7.538669045E1,6.065887213E-1,-2.915352285E-1,-3.619373739E-1
7.589077951E1,-6.902772188E-1,4.818195999E-1,8.613193631E-1
7.639486795E1,-8.032871783E-2,-6.249146461E-1,-9.776890874E-1
7.689895566E1,-5.166388750E-1,3.181078434E-1,7.933606505E-1
7.740304284E1,6.566796452E-2,-1.828012913E-1,-1.330158114E0
7.790712946E1,-3.529271185E-1,-1.863137633E-1,1.459966779E0
7.841121540E1,6.856957078E-2,-3.666715920E-1,-1.080008984E0
7.891530076E1,1.004872546E-1,-8.155044913E-2,9.396627545E-1
7.941938550E1,-3.840812445E-1,1.488982886E-1,-7.791580558E-1
7.992346967E1,-3.588830680E-2,-1.843284518E-1,4.207331240E-1
8.042755321E1,8.704823442E-3,2.741255760E-1,-5.253437161E-1
8.093163618E1,-9.911280870E-2,-2.284634262E-1,1.679878123E-2
8.143571857E1,-2.641990222E-2,2.700022459E-1,-5.039634556E-2
8.193980034E1,-4.260781780E-2,-5.099193454E-1,4.520399496E-2
8.244388159E1,-4.841103405E-2,1.032361463E-1,2.744309902E-1
8.294796222E1,-2.437350452E-1,-4.700604379E-1,-3.356702030E-1
8.345204222E1,2.513708472E-1,3.772090077E-1,3.197877109E-1
8.395612170E1,-2.154825479E-1,-3.294088244E-1,-2.820668221E-1
8.446020060E1,1.001818255E-1,4.198168218E-1,-9.071341902E-2
8.496427899E1,-2.078467458E-1,-5.616901517E-1,-1.249218509E-1
8.546835696E1,1.557705179E-2,3.407098353E-1,-5.268708616E-2
8.597243441E1,-4.367683083E-2,-3.002400398E-1,-7.910698652E-2
8.647651128E1,-8.964440972E-2,3.500255048E-1,-1.485928595E-1
8.698058758E1,-9.957095981E-2,-5.803215317E-3,-6.821832657E-1
8.748466342E1,-3.975202441E-1,2.829830945E-1,3.877464235E-1
8.798873873E1,1.481347065E-2,-9.633337855E-1,3.014617562E-1
8.849281347E1,-6.795870513E-2,1.466075517E-2,1.870773435E-1
8.899688774E1,-2.829830945E-1,-1.805105358E-1,-5.748237371E-1
8.950096154E1,-1.450803876E-1,3.051269650E-1,7.130318880E-1
9.000503493E1,-1.288924664E-1,-3.605629504E-1,-9.758564830E-1
9.050910779E1,-2.183841616E-1,2.457203567E-1,1.032361507E0
9.101318008E1,-1.614210159E-1,-2.840521336E-1,-1.158352375E0
9.151725191E1,-2.625191510E-1,1.267544478E-1,1.022434950E0
9.202132316E1,-3.069595434E-2,-2.351829410E-1,-1.065500855E0
9.252539383E1,2.330449075E-1,-1.606574357E-1,1.227227330E0
9.302946409E1,-2.333503515E-1,-1.281288862E-1,-1.072678566E0
9.353353394E1,2.122755051E-1,-4.612028971E-2,8.263473511E-1
9.403760342E1,1.890626550E-1,-3.966039717E-1,-7.672461867E-1
9.454167258E1,-3.147480786E-1,3.775144219E-1,2.776380479E-1
9.504574144E1,1.663079411E-1,2.199113220E-1,-1.959348768E-1
9.554981014E1,-3.935496211E-1,-7.742711157E-2,-2.622137070E-1
9.605387857E1,4.612028971E-2,3.277289569E-1,2.295324355E-1
9.655795196E1,-2.641990185E-1,-3.084867001E-1,-6.522508860E-1
9.706201488E1,6.505709887E-2,1.803578287E-1,7.528908253E-1
9.756608264E1,-3.649916872E-2,-4.216494262E-1,-8.863648176E-1
9.807015014E1,-5.910116807E-2,2.341139317E-1,1.121547699E0
9.857421732E1,-2.440404743E-1,-1.490510106E-1,-1.234863162E0
9.907828415E1,-3.856084049E-1,2.328922004E-1,1.322674990E0
9.958235066E1,-4.398226365E-2,2.086103261E-1,-1.565646410E0
1.000864168E2,-5.080868006E-1,-1.840230078E-1,1.749058604E0
1.005904825E2,3.484983444E-1,-2.709185183E-1,-1.163697362E0
1.010945480E2,3.237583339E-1,-5.569559336E-1,3.787361681E-1
1.015986131E2,-4.975493550E-1,2.788597643E-1,-4.981602132E-1
1.021026778E2,2.214384824E-1,-4.757109582E-1,4.978547990E-1
1.026067422E2,-1.563813835E-1,2.858847082E-1,-1.890626550E-1
1.031108063E2,1.091920808E-1,-5.131264031E-2,2.426660359E-1
1.036148702E2,-9.453132749E-2,1.481347065E-2,-3.162752390E-1
1.041189339E2,-5.390881747E-2,-3.121519089E-1,-1.383608729E-1
1.046229974E2,-4.228711426E-1,7.287616730E-1,2.612974048E-1
1.051270607E2,8.491020650E-2,-1.115744472E0,-5.714640021E-1
1.056311235E2,-3.457494676E-1,5.606211424E-1,3.376555145E-1
1.061351861E2,-1.157588735E-1,-4.036289155E-1,-6.513345838E-1
1.066392485E2,-1.539379209E-1,4.401280880E-1,6.452259421E-1
1.071433105E2,-2.015853822E-1,-4.466948807E-1,-5.766563416E-1
1.076473722E2,-3.561341763E-1,1.029307172E-1,3.469711840E-1
1.081514336E2,-3.126100600E-1,-3.042106628E-1,-4.827359021E-1
1.086554947E2,2.138026655E-1,9.407317638E-2,8.576541543E-1
1.091595553E2,-2.576322258E-1,2.107483521E-2,-7.451022863E-1
1.096636154E2,1.499672979E-1,-1.960875988E-1,8.582650423E-1
1.101676751E2,-4.456258714E-1,1.939495653E-2,-7.980948091E-1
1.106717344E2,2.312123179E-1,-5.981893539E-1,6.452259421E-1
1.111757934E2,2.148716897E-1,2.551887631E-1,-2.849684060E-1
1.116798522E2,2.596175298E-3,-3.017672002E-1,5.845975876E-1
1.121839109E2,-2.996291816E-1,2.996291816E-1,-3.825540543E-1
1.126879703E2,3.051269650E-1,-7.247910500E-1,-4.657844082E-2
1.131920284E2,-2.852738500E-1,6.620246768E-1,5.404626131E-1
1.136960863E2,-1.527161949E-4,-5.963567495E-1,-6.548470259E-1
1.142001439E2,-6.357575059E-1,4.714348912E-1,-4.011854529E-1
1.147042011E2,4.027126133E-1,-5.193877816E-1,-3.356702030E-1
1.152082580E2,-5.201513767E-1,4.082103968E-1,2.594648004E-1
1.157123146E2,4.066832364E-1,-5.963567495E-1,-2.730565667E-1
1.162163708E2,-5.693259835E-1,4.761691093E-1,6.830995679E-1
1.167204267E2,2.961167097E-1,-1.060766697E0,-8.228348494E-1
1.172244822E2,-2.472475171E-1,7.425061464E-1,7.883210182E-1
1.177285374E2,1.298087686E-1,-8.481857181E-1,-4.990765154E-1
1.182325922E2,-2.141081095E-1,8.278744817E-1,4.224129915E-1
1.187366468E2,-3.698786199E-1,-3.648389876E-1,-3.182605505E-1
1.192407012E2,2.406807244E-1,7.681624591E-2,6.731730103E-1
1.197447553E2,-4.210385382E-1,1.771507785E-2,-5.164861679E-1
1.202488092E2,3.155116439E-1,-6.032289565E-2,5.558869243E-1
1.207528629E2,-5.484038591E-1,-9.361502528E-2,-3.446804583E-1
1.212569164E2,2.829830945E-1,-2.464839369E-1,6.577486396E-1
1.217609695E2,-3.481929302E-1,7.330377400E-2,-6.885973215E-1
1.222650223E2,-1.191186309E-1,-1.217148080E-1,3.410152495E-1
1.227690748E2,1.258381456E-1,-2.193004489E-1,-1.566868126E-1
1.232731270E2,1.255327165E-1,-2.194531709E-1,-2.594648004E-1
1.237771790E2,-2.938259542E-1,6.258309484E-1,2.031125426E-1
1.242812306E2,-4.367683083E-2,-5.958985686E-1,-2.008218020E-1
1.247852817E2,-1.116355360E-1,4.444041252E-1,2.513708472E-1
1.252893325E2,-1.136208475E-1,-7.218894362E-1,-4.393644929E-1
1.257933827E2,-1.033888608E-1,1.757763475E-1,4.613556266E-1
1.262974325E2,-2.719875574E-1,-2.819140851E-1,-3.808741868E-1
1.268014821E2,5.864302069E-2,3.417788446E-1,1.031597853E0
1.273055446E2,-5.852084756E-1,-3.216203153E-1,-9.624174833E-1
1.278095805E2,1.982256174E-1,1.899789423E-1,5.418370366E-1
1.283136293E2,-2.402225733E-1,-2.107483521E-2,-5.174024701E-1
1.288176780E2,4.138608873E-1,-2.704603672E-1,6.916516423E-1
1.293217264E2,-3.527744114E-1,-2.214384824E-2,-3.773617148E-1
1.298257747E2,8.399390429E-2,-1.172860414E-1,3.663661480E-1
1.303298229E2,3.268126398E-2,2.784016132E-1,-3.787361681E-1
1.308338711E2,-2.803869247E-1,-1.528689116E-1,1.724165827E-1
1.313379191E2,2.319758981E-1,3.775144219E-1,-1.479819864E-1
1.318419670E2,-1.548542231E-1,-3.888154328E-1,-3.013090491E-1
1.323460147E2,-4.094321132E-1,3.851502538E-1,5.253437161E-1
1.328500623E2,2.235765159E-1,-4.948004782E-1,-7.509055138E-1
1.333541097E2,-5.212203860E-1,6.356047988E-1,6.078104377E-1
1.338581570E2,2.858847082E-1,-7.660244107E-1,-8.400917649E-1
1.343622042E2,-4.596757591E-1,3.440696001E-1,1.171791315E0
1.348662512E2,-1.684459597E-1,-4.123337269E-1,-1.231656075E0
1.353702979E2,-2.055560052E-1,1.298087649E-2,1.388801098E0
1.358743443E2,-6.459894776E-2,-3.268126398E-2,-1.257617831E0
1.363783905E2,-3.023780584E-1,1.769980639E-1,1.053283572E0
1.368824363E2,-1.003345400E-1,-2.397644334E-2,-9.419534802E-1
1.373864819E2,3.796524704E-1,-3.648389876E-1,5.748237371E-1
1.378905271E2,-3.567450345E-1,9.117157012E-2,-2.435823381E-1
1.383945720E2,3.970621154E-2,-1.760817766E-1,1.203403622E-1
1.388986167E2,-2.922987938E-1,3.222311661E-2,-6.914989352E-1
1.394026611E2,2.779434621E-1,-4.825831577E-2,1.994473487E-1
1.399067053E2,1.528689116E-1,4.242455959E-1,2.550360560E-1
1.404107493E2,-7.605266571E-2,-4.828886092E-1,-2.336557768E-2
1.409147928E2,-2.854265571E-1,6.482802629E-1,1.817322671E-1
1.414188359E2,-1.061377525E-1,-4.283689260E-1,-3.636172712E-1
1.419228788E2,-1.533270627E-1,4.173733592E-1,5.511527658E-1
1.424269211E2,-2.368628234E-1,-5.951350331E-1,-6.130027771E-1
1.429309631E2,-6.352993846E-2,3.634645343E-1,7.762564421E-1
1.434350049E2,-3.674351573E-1,-1.803578287E-1,-7.932079434E-1
1.439390467E2,-2.336557768E-2,6.032289565E-2,9.476040006E-1
1.444430884E2,-1.508836001E-1,-3.286452591E-1,-6.734784245E-1
1.449471299E2,3.165806830E-1,2.536616027E-1,4.243983030E-1
1.454511712E2,-4.366155863E-1,8.445205539E-2,-2.645044625E-1
1.459552123E2,3.130682111E-1,-8.368847519E-2,5.331322551E-1
1.464592533E2,-2.776380479E-1,1.134681329E-1,-5.592467189E-1
1.469632942E2,1.786779426E-2,-3.509418070E-1,-2.907716334E-1
1.474673349E2,2.415970266E-1,1.169806048E-1,1.438586563E-1
1.479713756E2,-2.727511227E-1,-2.252563834E-1,-4.123337101E-3
1.484754161E2,-1.345429718E-1,4.384481907E-1,1.252272818E-2
1.489794562E2,-6.597339362E-2,-5.128209591E-1,-1.382081509E-1
1.494834960E2,-1.721111536E-1,7.142536640E-1,1.777616441E-1
1.499875354E2,-1.220202371E-1,-5.283980370E-1,-1.611155868E-1
1.504915744E2,-1.186604798E-1,6.647735834E-1,6.979130208E-2
1.509956131E2,-1.105665267E-1,-6.067414284E-1,-2.985601723E-1
1.514996516E2,-6.032289863E-1,7.565560341E-1,3.006981909E-1
1.520036896E2,3.297142684E-1,-5.429060459E-1,-5.751292109E-1
1.525077274E2,-5.413789153E-1,5.986474752E-1,7.237220407E-1
1.530117647E2,4.071413875E-1,-1.921169758E-1,-9.660826325E-1
1.535158017E2,-6.212494969E-1,1.944077164E-1,1.193324327E0
1.540198382E2,-2.612974048E-1,-8.170316219E-1,-1.286023021E0
1.545238744E2,4.428769648E-2,-2.054032832E-1,1.335350394E0
1.550279103E2,-9.728021920E-2,-4.917461425E-2,-1.801440239E0
1.555319461E2,-1.919642538E-1,-4.943423271E-1,1.575114846E0
1.560359819E2,2.941313982E-1,3.740019500E-1,-8.825469017E-1
1.565400178E2,-3.109301627E-1,-4.511236250E-1,-2.018908113E-1
1.570440536E2,-3.321577311E-1,4.434878230E-1,3.599520624E-1
1.575480893E2,1.459966749E-1,-3.336848915E-1,-8.281798959E-1
1.580521251E2,-8.051197529E-1,3.979783952E-1,1.064279199E0
1.585561607E2,3.165806830E-1,-1.434005052E-1,-1.253494501E0
1.590601962E2,-5.308414698E-1,2.761108875E-1,1.314275622E0
1.595642311E2,1.415679157E-1,-2.646571696E-1,-1.189964533E0
1.600682654E2,-3.326158822E-1,-8.857539296E-2,7.531962991E-1
1.605722993E2,1.598938555E-1,2.871064544E-1,-5.923861265E-1
1.610763328E2,-3.454440236E-1,-5.459604263E-1,-3.672824502E-1
1.615803659E2,-1.881463528E-1,-9.117157012E-2,-4.560105503E-1
1.620843988E2,2.189950198E-1,-1.843284518E-1,8.170316368E-2
1.625884310E2,-1.374445739E-3,5.717694163E-1,8.414662480E-1
1.630924626E2,3.065013885E-1,-4.812087417E-1,-7.423534393E-1
1.635964934E2,-1.344971538E0,5.459604263E-1,9.031635523E-1
1.641005239E2,4.176788032E-1,-2.620609999E-1,-1.022434950E0
1.646045545E2,-2.703076601E-2,6.688969582E-2,8.645263910E-1
1.651085852E2,3.711003438E-2,-1.695149764E-2,-3.769035637E-1
1.656126160E2,-2.038761228E-1,-4.761691093E-1,1.809686869E-1
1.661166469E2,-3.364337683E-1,1.495091617E-1,1.977674663E-1
1.666206777E2,5.600103140E-1,-4.445568323E-1,2.249509543E-1
1.671247082E2,-2.739728391E-1,5.528326035E-1,-6.979130208E-2
1.676287384E2,2.131918073E-1,-6.922625303E-1,-5.106829405E-1
1.681327683E2,-2.692386508E-1,6.762273312E-1,4.075995386E-1
1.686367980E2,-3.390299380E-1,-6.582068205E-1,-6.743947268E-1
1.691408272E2,-8.048143238E-2,2.796233594E-1,6.814196706E-1
1.696448559E2,-3.869828284E-1,-8.643736690E-2,-8.590285778E-1
1.701488841E2,2.655734718E-1,9.162971377E-2,6.776017547E-1
1.706529117E2,-3.764454126E-1,-1.960875988E-1,-9.124792814E-1
1.711569389E2,5.054906011E-1,-3.430005610E-1,1.461799383E0
1.716609662E2,-2.906189263E-1,1.398880333E-1,-1.451109290E0
1.721649938E2,-1.255327165E-1,-2.325867712E-1,9.419534802E-1
1.726690205E2,6.994401664E-2,2.176205814E-1,-7.136427760E-1
1.731730481E2,-1.963930279E-1,-4.335612655E-1,4.625773430E-1
1.736770755E2,1.655443609E-1,1.834121495E-1,-2.084576041E-1
1.741811025E2,-3.014617562E-1,-3.802633286E-1,8.643736690E-2
1.746851290E2,-6.185005978E-2,4.505127668E-1,-1.832594397E-3
1.751891554E2,-1.178968996E-1,-5.566505194E-1,-2.435823381E-1
1.756931815E2,-3.242164850E-1,4.908298552E-1,2.109010667E-1
1.761972074E2,-6.078104675E-2,-3.973675370E-1,-4.303542376E-1
1.767012332E2,-3.973675370E-1,2.848156989E-1,5.595521331E-1
1.772052589E2,1.985310577E-3,-3.106247485E-1,-6.302597523E-1
1.777092848E2,-9.239330143E-2,9.575305134E-2,8.828523159E-1
1.782133108E2,-3.211621642E-1,-3.694204688E-1,-9.001092315E-1
1.787173365E2,1.182023361E-1,6.047561392E-2,1.286023021E0
1.792213618E2,7.272345424E-1,-3.196350038E-1,-7.469348907E-1
1.797253869E2,-4.153880477E-1,-5.925388262E-2,2.350302190E-1
1.802294120E2,-2.310595959E-1,4.993819594E-1,-7.539598346E-1
1.807334375E2,5.739074349E-1,-1.387273908E0,9.422589093E-2
1.812374632E2,-7.806851864E-1,6.808087826E-1,-1.918115467E-1
1.817414890E2,-3.718639314E-1,-5.114465356E-1,5.039634556E-2
1.822455149E2,8.506292105E-2,3.292561173E-1,2.399171442E-1
1.827495410E2,-4.495964646E-1,-2.535088956E-1,-2.968802750E-1
1.832535670E2,-7.240274549E-1,8.287907839E-1,4.361574650E-1
1.837575928E2,4.718930274E-2,-6.473639607E-1,-2.031125426E-1
1.842616183E2,7.498364896E-2,5.696314201E-2,8.797979951E-1
1.847656432E2,-5.247328281E-1,-1.959348768E-1,-9.250019789E-1
1.852696675E2,4.851793647E-1,-9.834922850E-2,8.263473511E-1
1.857736912E2,-4.935787320E-1,3.636172712E-1,-7.000510097E-1
1.862777146E2,2.608392537E-1,-3.434587121E-1,3.277289569E-1
1.867817374E2,-3.402516842E-1,2.777907550E-1,-2.307541668E-1
1.872857599E2,8.261945844E-2,-8.077159524E-1,2.435823381E-1
1.877897818E2,-3.802633286E-2,1.275180280E-1,5.955931731E-3
1.882938032E2,3.291034102E-1,-4.146244824E-1,8.491020650E-2
1.887978244E2,-3.382663727E-1,4.758636653E-1,1.343902498E-1
1.893018527E2,-4.657844082E-2,-5.230529904E-1,-6.414080262E-1
1.898058660E2,-1.682932526E-1,6.272054315E-1,3.770562708E-1
1.903098862E2,-8.765909821E-2,-4.969384968E-1,-5.027416945E-1
1.908139061E2,-2.787070572E-1,6.594285369E-1,6.337721944E-1
1.913179256E2,-2.105956376E-1,-2.962694168E-1,-8.932369947E-1
1.918219450E2,-3.107774556E-1,3.182605505E-1,1.304196358E0
1.923259644E2,-3.342957497E-1,-3.306305707E-1,-1.307861447E0
1.928299838E2,1.783725172E-1,-1.806632578E-1,1.474016666E0
1.933340032E2,-4.471530318E-1,-2.715294063E-1,-1.655596256E0
1.938380224E2,3.391826749E-1,-2.611446939E-2,1.403309107E0
1.943420415E2,-3.419315517E-1,4.967857897E-1,-9.666935205E-1
1.948460603E2,-1.469129771E-1,-4.816668928E-1,4.660898149E-1
1.953500787E2,7.834340632E-2,4.386008978E-1,-5.432115197E-1
1.958540969E2,-5.555815101E-1,-4.340194166E-1,1.372918636E-1
1.963581147E2,6.918043643E-2,5.972730517E-1,4.062250629E-2
1.968621321E2,-3.298669755E-1,-6.235402226E-1,-2.550360560E-1
1.973661492E2,1.035415828E-1,4.367683232E-1,2.838993967E-1
1.978701660E2,-3.616319597E-1,-1.516471803E-1,-4.243983030E-1
1.983741824E2,-7.635809598E-4,2.906189263E-1,3.523162603E-1
1.988781985E2,-2.533561587E-1,-4.083631039E-1,-4.288270772E-1
1.993822141E2,-2.223547846E-1,3.591884971E-1,5.131264329E-1
1.998862294E2,6.597339362E-2,-6.343830824E-1,-9.152281284E-1
2.003902443E2,-6.647735834E-1,2.576322258E-1,8.542944193E-1
2.008942589E2,1.899789423E-1,-4.390590489E-1,-8.188642263E-1
2.013982735E2,2.956585586E-1,1.476765573E-1,9.424116611E-1
2.019022882E2,-4.114174247E-1,-1.423314959E-1,-6.409498453E-1
2.024063027E2,2.831358314E-1,-2.264781147E-1,8.365793228E-1
2.029103171E2,2.981020212E-1,1.524107605E-1,-6.113229394E-1
2.034143313E2,-4.175260663E-1,-8.979712427E-2,5.238165259E-1
2.039183452E2,2.927569449E-1,-1.105665267E-1,-3.480401933E-1
2.044223590E2,-4.783071280E-1,-7.422006875E-2,7.269290835E-2
2.049263726E2,3.205513060E-1,3.214675784E-1,1.985310577E-3
2.054303859E2,-3.791943192E-1,-4.645626545E-1,-3.400989771E-1
2.059343989E2,3.787361458E-2,6.548470259E-1,8.155044913E-2
2.064384119E2,-9.926552884E-3,-6.166679859E-1,-3.194822669E-1
2.069424246E2,-4.129445851E-1,7.209731340E-1,2.119700760E-1
2.074464373E2,2.976438701E-1,-5.778780580E-1,2.153298259E-2
2.079504498E2,-5.445859432E-1,4.801397026E-1,1.476765573E-1
2.084544624E2,-1.093447953E-1,-3.203985691E-1,-6.009382010E-1
2.089584750E2,-1.232419685E-1,7.101303339E-2,6.655371785E-1
2.094624876E2,-8.338304609E-2,-4.117228687E-1,-1.029001713E0
2.099664999E2,-1.424842030E-1,4.989238083E-1,1.215315461E0
2.104705119E2,-6.612611413E-1,1.130099874E-2,-9.853248596E-1
2.109745235E2,2.852738500E-1,-5.946768522E-1,1.053130865E0
2.114785348E2,-3.575085998E-1,2.309068888E-1,-8.316923976E-1
2.119825458E2,2.973384261E-1,-4.621191919E-1,1.996000707E-1
2.124865565E2,-2.626718581E-2,2.394589931E-1,-3.868301213E-1
2.129905673E2,-1.174387559E-1,-3.830122054E-1,1.253799945E-1
2.134945780E2,2.188423127E-1,3.237583488E-2,6.582067907E-2
2.139985888E2,-1.672242284E-1,-1.432477981E-1,2.443459118E-3
2.145025999E2,-3.219257295E-1,2.390008420E-1,1.220202371E-1
2.150066110E2,-1.806632578E-1,-5.751292109E-1,-3.987419903E-1
2.155106221E2,-1.620318890E-1,6.021599770E-1,7.188351154E-1
2.160146330E2,-1.985310577E-3,-7.600684762E-1,-6.571378112E-1
2.165186439E2,-2.703076601E-1,4.237874448E-1,7.115047574E-1
2.170226548E2,-1.828012913E-1,-1.844811589E-1,-9.622647166E-1
2.175266659E2,-6.612611562E-2,5.345066637E-2,1.082147002E0
2.180306774E2,-2.689332068E-1,-1.136208475E-1,-1.158963203E0
2.185346897E2,2.246455252E-1,-5.925388262E-2,1.328783631E0
2.190387025E2,-3.153589368E-1,9.544762224E-2,-1.148883939E0
2.195427158E2,-1.172860414E-1,-2.290742937E-3,9.346231222E-1
2.200467296E2,-3.434587121E-1,1.383608729E-1,-1.022893071E0
2.205507437E2,1.287397593E-1,-2.557996213E-1,4.272999167E-1
2.210547579E2,5.177079141E-2,8.399390429E-2,-5.815432668E-1
2.215587720E2,1.094975099E-1,-2.930623889E-1,8.457422853E-1
2.220627860E2,-2.748891525E-2,2.176205814E-1,-5.561923981E-1
2.225668000E2,-3.949240744E-1,-5.650499370E-3,1.313359290E-2
2.230708140E2,-3.857611120E-1,2.556469142E-1,1.936441362E-1
2.235748276E2,1.531743407E-1,-6.288852692E-1,-2.912297845E-1
2.240788408E2,-1.777616441E-1,6.398808360E-1,1.803578287E-1
2.245828538E2,1.521053314E-1,-4.723511934E-1,-6.255255342E-1
2.250868668E2,-5.236638188E-1,5.459604263E-1,8.333722949E-1
2.255908795E2,4.103484154E-1,-5.658134818E-1,-1.017853379E0
2.260948918E2,-9.447023869E-1,1.832594275E-1,1.113453746E0
2.265989037E2,2.700022459E-1,-4.853320718E-1,-1.357646942E0
2.271029152E2,-2.959639728E-1,1.627954692E-1,1.496466041E0
2.276069264E2,-8.231402934E-2,-6.841685623E-2,-1.516471863E0
2.281109375E2,-1.866191924E-1,-3.863719851E-2,1.342833519E0
2.286149488E2,-2.286161482E-1,1.262962967E-1,-1.447444081E0
2.291189603E2,1.711948514E-1,-2.919933498E-1,1.138346553E0
2.296229719E2,1.342375278E-1,-1.629481763E-1,-1.155603409E0
2.301269832E2,-9.162971983E-4,-4.880809486E-1,8.170316219E-1
2.306309944E2,-5.094612241E-1,1.285870373E-1,-5.129737258E-1
2.311350054E2,2.409861535E-1,-6.652317643E-1,3.497200906E-1
2.316390166E2,2.672533318E-2,-2.344193608E-1,-9.659299254E-1
2.321430282E2,2.533561587E-1,-7.186824083E-1,4.234820008E-1
2.326470409E2,3.581194878E-1,-1.035415828E-1,-1.620318890E-1
2.331510527E2,-3.176496923E-1,-2.603811026E-1,1.282816008E-2
2.336550648E2,-5.589412898E-2,4.948004782E-1,-1.189659163E-1
2.341590775E2,7.910698652E-2,-8.052725196E-1,-2.640463114E-1
2.346630911E2,4.367683083E-2,3.297142684E-1,6.125446558E-1
2.351671054E2,3.981311321E-1,-4.674642682E-1,-1.870773435E-1
2.356711203E2,2.626718581E-1,-2.852738500E-1,-1.788306683E-1
2.361751358E2,-4.237874448E-1,-1.861610413E-1,2.122755162E-2
2.366791515E2,2.412915789E-2,8.567378670E-2,3.199404180E-1
2.371831672E2,-7.147117704E-2,3.231474757E-1,-9.575305134E-2
2.376871826E2,-9.819651395E-2,-2.831358314E-1,2.235765159E-1
2.381911976E2,2.183841541E-2,2.347247899E-1,-3.894262910E-1
2.386952127E2,-1.206457894E-2,-4.396699369E-1,2.083048970E-1
2.391992291E2,-1.340848207E-1,4.083631039E-1,-1.482874304E-1
2.397032473E2,2.629773021E-1,-8.923207521E-1,-2.692386508E-1
2.402072672E2,1.817322709E-2,1.945604384E-1,2.336557768E-2
2.407112885E2,7.605266571E-2,1.449276656E-1,-1.398880333E-1
2.412153110E2,-7.867938280E-1,6.140718460E-1,3.709476292E-1
2.417193345E2,3.843866587E-1,-7.012727857E-1,-1.304196268E-1
2.422233587E2,8.506292105E-2,1.394298822E-1,1.191186346E-2
2.427273831E2,1.021671370E-1,-5.526798964E-1,6.719512492E-2
2.432314076E2,-2.666424811E-1,7.748819590E-1,-1.728747338E-1
2.437354317E2,-1.325576603E-1,-2.512181401E-1,9.850194305E-2
2.442394557E2,-4.404335022E-1,4.190532267E-1,3.460549116E-1
2.447434795E2,-1.985310577E-2,-1.371391416E-1,-5.239692926E-1
2.452475033E2,1.495091617E-1,-7.009673119E-2,9.477567077E-1
2.457515267E2,-3.717112243E-1,6.368265301E-2,-9.414953589E-1
2.462555498E2,2.197586000E-1,2.977965772E-2,9.387464523E-1
2.467595723E2,-3.327685893E-1,2.947422490E-2,-8.811724186E-1
2.472635943E2,-8.872810751E-2,-1.524107605E-1,8.116865754E-1
2.477676161E2,3.512472659E-2,2.906189263E-1,-8.301652074E-1
2.482716377E2,-2.646571696E-1,-2.116646469E-1,5.383245945E-1
2.487756589E2,2.536616027E-1,1.004872546E-1,-6.446150541E-1
2.492796797E2,-5.635227561E-1,-1.029307172E-1,1.510363221E-1
2.497836999E2,8.506292105E-2,8.124501258E-2,-1.548542231E-1
2.502877196E2,-2.730565667E-1,-2.118173689E-1,-3.466657549E-2
2.507917392E2,-1.915061027E-1,2.196058929E-1,8.399390616E-3
2.512957586E2,-1.255327165E-1,-2.218966335E-1,3.045161068E-1
2.517997779E2,-2.510654330E-1,1.679878100E-3,-6.670643687E-1
2.523037970E2,7.513637096E-2,-9.972367436E-2,6.588176489E-1
2.528078160E2,4.642572254E-2,-3.958403766E-1,-6.513345838E-1
2.533118348E2,-1.786779463E-1,5.758927464E-1,4.726566374E-1
2.538158533E2,-1.256854236E-1,4.245510325E-2,-5.751292109E-1
2.543198715E2,-7.583886385E-1,1.092073560E0,6.808087826E-1
2.548238893E2,1.901316643E-1,-3.558287323E-1,-8.704823256E-1
2.553279070E2,-4.144717455E-1,4.494437575E-1,8.845322132E-1
2.558319248E2,1.157588735E-1,-6.325504780E-1,-8.520036340E-1
2.563359424E2,-1.649334840E-2,1.601992846E-1,8.831577301E-1
2.568399596E2,-3.712530732E-1,1.099556610E-1,-7.599157691E-1
2.573439766E2,1.020144150E-1,2.506072819E-1,7.533490062E-1
2.578479935E2,-2.249509543E-1,2.015853822E-1,-6.765327454E-1
2.583520099E2,-1.910479665E-1,1.524107605E-1,5.484038591E-1
2.588560261E2,8.704823442E-3,2.605338395E-1,-2.237292230E-1
2.593600419E2,1.545487940E-1,-6.626355648E-1,-1.941022873E-1
2.598640577E2,-2.567159235E-1,5.128209591E-1,8.735366166E-2
2.603680733E2,-3.481929377E-2,-7.849612087E-2,-5.595521331E-1
2.608720886E2,-4.505127668E-1,-3.268126398E-2,9.726494551E-1
2.613761033E2,-3.263545036E-1,-1.194240674E-1,-1.248149514E0
2.618801177E2,2.241873741E-1,-1.886045039E-1,1.102152824E0
2.623841319E2,3.072649837E-1,3.594939113E-1,-8.226821423E-1
2.628881460E2,-2.967275679E-1,2.199113183E-2,-3.035998046E-1
2.633921596E2,-6.310232878E-1,2.816086709E-1,7.070759535E-1
2.638961728E2,-5.681042373E-2,-2.961167097E-1,-9.483675957E-1
2.644001856E2,7.664825916E-1,-4.663952589E-1,8.636100888E-1
2.649041980E2,-5.789470673E-1,-7.040216774E-2,-5.968148708E-1
2.654082100E2,4.505127668E-2,-4.343248606E-1,3.220784664E-1
2.659122218E2,-1.163697392E-1,7.480039001E-1,-7.315105945E-2
2.664162336E2,-2.964221239E-1,-3.474293351E-1,-2.950477004E-1
2.669202452E2,-1.857028902E-1,4.427242577E-1,4.867065251E-1
2.674242568E2,-4.537198246E-1,-4.986183643E-1,-6.630937457E-1
2.679282683E2,1.278234571E-1,2.706131041E-1,1.226769209E0
2.684322796E2,-3.246746361E-1,3.848448023E-2,-1.268613458E0
2.689362905E2,3.222311661E-2,-4.105011225E-1,4.201222658E-1
2.694403012E2,3.743073940E-1,9.544762224E-2,-6.522508860E-1
2.699443115E2,-4.405862093E-1,-2.539670467E-1,7.334958911E-1
2.704483216E2,-2.611446939E-2,9.312633276E-1,4.413498193E-2
2.709523313E2,-1.217148080E-1,-1.035721183E0,-1.165224537E-1
2.714563406E2,-6.314814687E-1,1.018311620E0,3.517054021E-1
2.719603498E2,2.732092738E-1,-8.170316219E-1,-1.058934093E0
2.724643588E2,-7.535017133E-1,-2.437350452E-1,9.237802625E-1
2.729683678E2,2.425133139E-1,-1.200654745E0,-1.293200731E0
2.734723767E2,-4.952586293E-1,1.157283306E0,8.848376274E-1
2.739763853E2,-1.394298822E-1,-6.023126841E-1,-6.656898856E-1
2.744803937E2,-1.893680729E-2,3.645335436E-1,6.805033684E-1
2.749844021E2,-8.124501258E-2,-3.732383847E-1,-9.480621219E-1
2.754884105E2,-1.849393100E-1,5.148062706E-1,1.054810762E0
2.759924188E2,9.514218569E-2,-4.440986812E-1,-1.763719320E0
2.764964268E2,-8.219185472E-1,4.645626545E-1,1.960723281E0
2.770004345E2,4.587594569E-1,-4.179842174E-1,-1.867871761E0
2.775044420E2,-1.082910538E0,4.384481907E-1,1.641240954E0
2.780084493E2,5.435169339E-1,-6.334667802E-1,-1.895971537E0
2.785124564E2,-6.139190793E-1,6.591231227E-1,1.577863693E0
2.790164635E2,1.056796089E-1,-6.530144215E-1,-1.401629210E0
2.795204706E2,-2.434296161E-1,4.567741454E-1,1.557857871E0
2.800244777E2,-2.486219704E-1,-4.199695289E-1,-1.607185245E0
2.805284849E2,-5.071704984E-1,1.200349256E-1,1.584735990E0
2.810324924E2,9.132428467E-2,-6.733257174E-1,-1.695607901E0
2.815365000E2,6.649262905E-1,5.406153202E-2,1.758221507E0
2.820405076E2,-9.298889041E-1,9.132428467E-2,-1.286175847E0
2.825445150E2,2.306014597E-1,1.679878123E-2,1.201570988E0
2.830485224E2,-4.864010811E-1,4.520399496E-2,-8.382592201E-1
2.835525301E2,1.519526094E-1,-4.752528071E-1,6.142245531E-1
2.840565383E2,-1.463021189E-1,2.089157552E-1,-4.984656572E-1
2.845605467E2,-1.843284518E-1,-5.279398561E-1,-9.376774728E-2
2.850645554E2,-2.840521336E-1,4.886918366E-1,2.554942071E-1
2.855685640E2,-5.726857483E-2,-3.411679864E-1,-5.164861679E-1
2.860725725E2,-3.387245238E-1,1.156061590E-1,9.766200781E-1
2.865765807E2,2.388481349E-1,-5.705476999E-1,-1.128267288E0
2.870805888E2,3.787361458E-2,-4.037816226E-1,5.636754632E-1
2.875846089E2,2.637408674E-1,2.750418782E-1,-5.375609919E-2
2.880886044E2,-2.336557806E-1,-6.123919487E-1,-1.560759544E-1
2.885926120E2,4.734201822E-3,3.298669681E-2,5.229002237E-1
2.890966193E2,5.283980444E-2,-5.363392830E-1,-5.920807123E-1
2.896006265E2,8.460476995E-2,-2.550360374E-2,6.757691503E-1
2.901046333E2,1.690568328E-1,-1.736383140E-1,-4.783071280E-1
2.906086400E2,8.048143238E-2,-4.453204274E-1,3.413206935E-1
2.911126465E2,1.690568328E-1,2.938259542E-1,-1.748600453E-1
2.916166530E2,2.110537887E-1,-6.495019794E-1,-1.892153621E-1
2.921206595E2,-4.167625010E-1,4.822777510E-1,-6.185005978E-2
2.926246654E2,1.623373181E-1,-4.144717455E-1,-9.651663154E-2
2.931286718E2,-8.048143238E-2,4.314232469E-1,-7.974839807E-1
2.936326780E2,-1.589775532E-1,-5.309942365E-1,9.860884547E-1
2.941366842E2,1.148425788E-1,-3.833176568E-2,-6.887500733E-2
2.946406903E2,-4.387536347E-1,1.789833754E-1,1.001818255E-1
2.951446962E2,3.517054021E-1,-1.435532235E-2,1.600465775E-1
2.956487021E2,1.675296724E-1,-1.915061027E-1,-1.000291109E-1
2.961527080E2,-2.996291816E-1,3.909534588E-2,-9.957095981E-2
2.966567140E2,3.932442069E-1,-1.456912458E-1,-9.468404204E-2
2.971607200E2,-1.470656991E-1,-3.373500705E-1,-1.505781710E-1
2.976647259E2,-2.741255760E-1,4.955640435E-1,4.410443604E-1
2.981687315E2,1.918115467E-1,-6.543889046E-1,-1.052520037E0
2.986727369E2,-7.719803452E-1,-1.829539984E-1,1.444237113E0
2.991767419E2,1.330158114E-1,-2.987128794E-1,-9.363030195E-1
2.996807466E2,-5.138899684E-1,8.355103135E-1,8.071050644E-1
3.001847511E2,7.061597109E-1,-2.211330533E-1,-4.816668928E-1
3.006887555E2,-2.825249732E-1,1.043051630E-1,4.634936452E-1
3.011927598E2,1.996000707E-1,-4.576904476E-1,-4.792234302E-1
3.016967639E2,-1.009454057E-1,-4.780016840E-2,1.285870373E-1
3.022007678E2,-6.856957078E-2,1.356119812E-1,1.560759544E-1
3.027047712E2,-2.130390853E-1,-1.983783394E-1,-7.544180155E-1
3.032087743E2,-8.964440972E-2,3.982838392E-1,5.320632458E-1
3.037127771E2,-9.712749720E-2,8.491020650E-2,-6.438514590E-1
3.042167799E2,9.621120244E-2,-1.905898154E-1,1.177594543E0
3.047207828E2,-1.844811589E-1,-3.054323839E-3,-1.300378442E0
3.052247858E2,1.437059343E-1,-2.959639728E-1,1.035568476E0
3.057287890E2,2.762635946E-1,1.366809905E-1,-7.176133990E-1
3.062327922E2,-5.010618567E-1,-2.724456787E-1,9.422589093E-2
3.067367956E2,2.927569449E-1,2.319758981E-1,2.744309902E-1
3.072407991E2,-3.318522871E-1,-3.023780696E-2,-5.038107038E-1
3.077448029E2,-5.740602016E-1,3.966039717E-1,7.625119686E-1
3.082488073E2,1.398880333E-1,-8.659008145E-1,-1.056796074E0
3.087528123E2,-7.924443483E-1,7.015781999E-1,1.373987556E0
3.092568178E2,-1.756236330E-2,-2.386954129E-1,-1.506545305E0
3.097608235E2,-1.884517819E-1,9.819651395E-2,1.923918605E0
3.102648294E2,-3.981311321E-1,-4.434878230E-1,-2.047007799E0
3.107688353E2,3.355174661E-1,2.076940238E-2,2.021351576E0
3.112728412E2,-3.901898861E-1,2.524398565E-1,-1.222340465E0
3.117768473E2,-3.278816640E-1,-1.788306683E-1,7.246383429E-1
3.122808540E2,2.678641975E-1,3.808741868E-1,-3.306305707E-1
3.127848615E2,-5.630646348E-1,-4.970912039E-1,2.548833191E-1
3.132888697E2,4.531089365E-1,4.413498193E-2,-7.881683111E-1
3.137928792E2,-6.908880472E-1,-3.802633286E-2,1.220202371E-1
3.142968874E2,3.344484791E-2,3.327685893E-1,2.324340492E-1
3.148008965E2,-2.519817278E-2,-7.363975048E-1,-8.575014472E-1
3.153049053E2,-3.280344009E-1,5.345066786E-1,8.492547870E-1
3.158089140E2,2.412915789E-2,-3.194822669E-1,-9.338595271E-1
3.163129225E2,-2.585485280E-1,2.360992432E-1,1.065195441E0
3.168169313E2,-4.795288667E-2,-3.543015718E-1,-9.077450633E-1
3.173209404E2,-1.478292793E-1,1.404989064E-1,8.862120509E-1
3.178249494E2,1.070540547E-1,-3.512472380E-3,-8.988875151E-1
3.183289583E2,-3.843866587E-1,4.851793647E-1,7.463240623E-1
3.188329670E2,3.555232882E-1,-2.128863782E-1,-1.875354946E-1
3.193369756E2,-6.230820715E-2,-1.956294477E-1,9.239330143E-2
3.198409838E2,-3.756818548E-2,4.579958618E-1,4.856374860E-2
3.203449918E2,1.282816082E-1,-5.254964232E-1,-5.833758786E-2
3.208489992E2,-5.881100893E-1,6.239983439E-1,6.307178736E-2
3.213530063E2,2.090684772E-1,-7.341067195E-1,-4.140135944E-1
3.218570132E2,-2.064722925E-1,6.351466775E-1,4.335612655E-1
3.223610197E2,-7.620538026E-2,-2.525925934E-1,-6.508764029E-1
3.228650258E2,-5.626064539E-1,5.047270060E-1,2.223547846E-1
3.233690315E2,3.239110410E-1,-2.368628234E-1,-6.598866582E-1
3.238730367E2,-7.202095985E-1,4.098902643E-1,1.113301039E0
3.243770413E2,2.638935745E-1,-4.622719288E-1,-7.637336850E-1
3.248810455E2,-2.654207349E-1,2.719875574E-1,4.999928176E-1
3.253850495E2,1.267544460E-2,-6.902772188E-2,-6.206386089E-1
3.258890536E2,-4.644099474E-1,2.034179717E-1,6.594285369E-1
3.263930582E2,3.498727977E-1,-1.059850380E-1,-4.660898149E-1
3.268970631E2,-4.822777510E-1,6.902772188E-2,2.486219704E-1
3.274010682E2,2.446513474E-1,3.361283541E-1,-2.719875574E-1
3.279050732E2,-3.773617148E-1,-2.878700197E-1,-2.021962404E-1
3.284090782E2,-3.156643808E-1,4.755582213E-1,1.153007299E-1
3.289130829E2,2.283107042E-1,-8.791871071E-1,-8.286380768E-1
3.294170875E2,-1.146898642E-1,1.647807807E-1,7.834340930E-1
3.299210919E2,-3.229947388E-1,-3.614792228E-1,-9.308052063E-1
3.304250961E2,3.665188700E-2,4.799869955E-1,5.642863512E-1
3.309291000E2,-3.868301213E-1,-4.054614902E-1,-4.989238083E-1
3.314331036E2,-1.108719558E-1,5.578722358E-1,5.939132571E-1
3.319371073E2,3.497200832E-2,-6.336194873E-1,-5.502364635E-1
3.324411109E2,-4.153880477E-1,5.571087003E-1,8.785762787E-1
3.329451144E2,-1.623373181E-1,-1.847866029E-1,-8.568905592E-1
3.334491177E2,-6.459894776E-2,2.365573794E-1,9.897536635E-1
3.339531210E2,-5.393936038E-1,-1.884517819E-1,-4.001164436E-1
3.344571242E2,-2.565632015E-2,2.066250145E-1,4.737256467E-1
3.349611272E2,-9.437860548E-2,-7.024944760E-3,-5.737547278E-1
3.354651301E2,5.233584046E-1,-1.918115467E-1,7.452550530E-1
3.359691330E2,-4.833467603E-1,-2.043342739E-1,-1.155145288E0
3.364731358E2,-1.004872546E-1,-2.959639728E-1,7.845031023E-1
3.369771388E2,1.776089370E-1,3.587303460E-1,-1.507308781E-1
3.374811418E2,-1.808159798E-1,-3.233001828E-1,-9.514218569E-2
3.379851449E2,2.907716334E-1,6.514872909E-1,-7.483093534E-3
3.384891481E2,-2.654207349E-1,-6.893609166E-1,-4.625773430E-1
3.389931511E2,-4.221075773E-1,7.629700899E-1,5.123628378E-1
3.394971542E2,-1.230892539E-1,-6.916516423E-1,-5.132791400E-1
3.400011570E2,-5.981893539E-1,4.266890585E-1,7.417425513E-1
3.405051599E2,-1.672242284E-1,-4.544833899E-1,-9.605848789E-1
3.410091627E2,8.445205539E-2,4.917461425E-2,1.117882490E0
3.415131654E2,-4.097375572E-1,-3.071122766E-1,-1.434921384E0
3.420171678E2,9.651663154E-2,-5.910116807E-2,1.341000915E0
3.425211700E2,-1.849393100E-1,3.068068326E-1,-1.272889495E0
3.430251722E2,-1.056796089E-1,-5.407680273E-1,6.821832657E-1
3.435291744E2,-6.200277433E-2,1.692095399E-1,-1.795942485E-1
3.440331766E2,5.615374446E-1,-1.451109290E0,3.527744114E-2
3.445371790E2,-1.488372087E0,7.145590782E-1,5.042688847E-1
3.450411813E2,3.802633286E-1,-2.551887631E-1,-8.849903345E-1
3.455451835E2,-4.405862093E-1,4.251618981E-1,9.847140312E-1
3.460491855E2,-1.989891976E-1,-6.188060045E-1,-7.153226733E-1
3.465531873E2,-5.493201613E-1,2.151771188E-1,1.389259219E0
3.470571890E2,-5.451968312E-1,-1.912006736E-1,-1.772729635E0
3.475611904E2,3.662134409E-1,-5.271763206E-1,1.598022223E0
3.480651915E2,-7.757982612E-2,-1.123991162E-1,-1.137124777E0
3.485691923E2,-4.886918142E-2,-7.864884287E-2,9.178243279E-1
3.490731927E2,-4.581485689E-2,2.168569900E-2,-4.195113778E-1
3.495771928E2,-2.515235841E-1,-1.913533956E-1,3.940077871E-2
3.500811925E2,2.499964088E-1,9.941824526E-2,-1.330158114E-1
3.505851921E2,-2.241873741E-1,-3.921751976E-1,-9.269873053E-2
3.510891915E2,-1.815795600E-1,1.572976857E-1,1.252272725E-1
3.515931907E2,3.526217043E-1,-8.119919896E-1,-1.269071549E-1
3.520971898E2,-1.696676910E-1,7.583886385E-1,7.284562290E-2
3.526011889E2,7.315105945E-2,-1.970038861E-1,-3.164279461E-1
3.531051878E2,-2.467893660E-1,2.357937992E-1,5.494728684E-1
3.536091865E2,-1.420260668E-1,-1.638644785E-1,-6.356047988E-1
3.541131851E2,1.652389169E-1,1.837175786E-1,5.798633695E-1
3.546171835E2,-4.158461988E-1,-1.160643101E-1,-5.329795480E-1
3.551211816E2,1.795942485E-1,-7.773254067E-2,6.496546865E-1
3.556251794E2,4.596757516E-2,-8.399390429E-2,-4.851793647E-1
3.561291771E2,-2.200640440E-1,7.666353136E-2,2.878700197E-1
3.566331744E2,2.779434621E-1,2.495382577E-1,-4.109592736E-1
3.571371716E2,-4.109592736E-1,-3.063486814E-1,7.483093441E-2
3.576411686E2,6.490438432E-2,3.350593448E-1,3.023780696E-2
3.581451653E2,-1.366809905E-1,-2.730565667E-1,-3.393353820E-1
3.586491619E2,-6.597339362E-2,4.124864340E-1,5.299251899E-2
3.591531584E2,1.762344837E-1,-5.800161362E-1,-4.627300799E-1
3.596571545E2,-7.936660647E-1,5.638281703E-1,7.006618977E-1
3.601611506E2,4.094321132E-1,-3.588830531E-1,-9.430224895E-1
3.606651467E2,-4.054614902E-1,2.313650399E-1,6.137663722E-1
3.611691431E2,-4.550942779E-2,-1.598938555E-1,-4.841103256E-1
3.616731397E2,-1.488982886E-1,-5.268708616E-2,9.448550940E-1
3.621771367E2,-3.878991306E-2,-4.014908671E-1,-7.938187718E-1
3.626811338E2,4.382954836E-1,9.392046183E-2,9.744820595E-1
3.631851309E2,-7.670934200E-1,-1.679878086E-1,-1.518304467E0
3.636891278E2,4.382954836E-1,-2.150243968E-1,7.586940527E-1
3.641931246E2,-3.472766280E-1,2.877173126E-1,-3.715584874E-1
3.646971212E2,7.635809481E-2,-2.606865466E-1,-1.435532272E-1
3.652011178E2,-7.208204269E-2,1.044578776E-1,7.644972801E-1
3.657051143E2,3.061959743E-1,-3.897317350E-1,-5.836812854E-1
3.662091108E2,-8.994984031E-1,3.254382014E-1,9.760091901E-1
3.667131071E2,4.315759540E-1,-1.001207352E0,-7.076868415E-1
3.672171034E2,-2.397644334E-2,7.895427197E-2,6.265945435E-1
3.677210997E2,-7.936660647E-1,8.918625861E-2,-1.254258156E0
3.682250960E2,4.062250629E-2,-3.054323792E-1,1.553887248E0
3.687290924E2,-2.530507445E-1,2.225074917E-1,-1.081077933E0
3.692330888E2,-7.681624591E-2,-2.785543501E-1,8.901826739E-1
3.697370851E2,1.282816082E-1,5.375609994E-1,-5.522217751E-1
3.702410813E2,-3.452913165E-1,-3.532325625E-1,-5.604684353E-2
3.707450774E2,1.114828233E-2,7.391464114E-1,-9.468404204E-2
3.712490734E2,-1.385135949E-1,-4.602866173E-1,-2.092211843E-1
3.717530693E2,-1.919642538E-1,5.597048402E-1,1.479819864E-1
3.722570652E2,-1.860083193E-1,-2.267835438E-1,-3.711003661E-1
3.727610611E2,-1.681405306E-1,1.343902480E-2,7.228057384E-1
3.732650572E2,-2.762635946E-1,-7.681624591E-2,-1.131932378E0
3.737690532E2,8.582650125E-2,-1.678351015E-1,1.210734010E0
3.742730492E2,-2.015853822E-1,2.335030586E-1,-9.535599351E-1
3.747770451E2,-1.802051067E-2,-4.056142271E-1,1.779143661E-1
3.752810409E2,2.121227980E-1,2.335030586E-1,-5.036579967E-1
3.757850365E2,-2.901607752E-1,-3.341430426E-1,2.977965772E-2
3.762890322E2,-7.620538026E-2,2.651153207E-1,4.499019086E-1
3.767930279E2,-1.304196268E-1,-4.590648711E-1,-6.325504780E-1
3.772970238E2,-3.107774556E-1,6.714931130E-1,5.954404473E-1
3.778010195E2,-3.978256881E-1,-5.960513353E-1,-8.306233883E-1
3.783050152E2,1.478292793E-1,4.780016840E-2,7.225003242E-1
3.788090109E2,-4.063777924E-1,-5.436696485E-2,-6.586649418E-1
3.793130065E2,4.751000702E-1,-1.469129771E-1,8.900299668E-1
3.798170022E2,-3.501782417E-1,2.222020626E-1,-6.110175252E-1
3.803209976E2,-6.215549260E-2,-5.858193040E-1,3.688096106E-1
3.808249928E2,4.926624298E-1,4.567741454E-1,-3.778198659E-1
3.813289878E2,-4.546361268E-1,-4.862483740E-1,-2.400698513E-1
3.818329829E2,-3.306305707E-1,6.313287616E-1,9.392046183E-2
3.823369785E2,-5.207622424E-2,-5.945241451E-1,-3.300196826E-1
3.828409743E2,-4.550942481E-1,5.163334608E-1,6.136136651E-1
3.833449704E2,-3.756818548E-2,-5.707004070E-1,-8.231402636E-1
3.838489668E2,2.246455252E-1,-2.564104795E-1,1.027932763E0
3.843529634E2,-6.827940941E-1,4.960221946E-1,-1.140026450E0
3.848569602E2,1.389717311E-1,-6.061306000E-1,6.342303753E-1
3.853609572E2,-1.623373181E-1,3.455967605E-1,-5.010618567E-1
3.858649542E2,4.013381600E-1,-3.054323839E-3,8.425352573E-1
3.863689512E2,-7.009673119E-2,-1.763872057E-1,-8.051197529E-1
3.868729480E2,4.176788032E-1,-4.960221946E-1,4.016436040E-1
3.873769448E2,-2.486219704E-1,1.492037177E-1,-5.803215317E-3
3.878809415E2,-1.488982886E-1,-2.602283955E-1,-1.177441850E-1
3.883849380E2,1.731801629E-1,8.659008145E-2,2.590066791E-1
3.888889344E2,-3.572031856E-1,-2.287688553E-1,-4.957167804E-1
3.893929307E2,-3.512472380E-3,4.537198246E-1,6.695078015E-1
3.898969267E2,-3.778198659E-1,-4.689914286E-1,-8.657481074E-1
3.904009224E2,-2.194531709E-1,5.674933791E-1,6.957749724E-1
3.909049179E2,-1.310304999E-1,-5.199986696E-1,-4.657844007E-1
3.914089133E2,-2.154825479E-1,-1.298087649E-2,6.262891293E-1
3.919129084E2,-6.356047988E-1,2.519817352E-1,-7.971785665E-1
3.924169034E2,2.070831656E-1,-6.169734150E-2,1.215620875E0
3.929208982E2,-3.141372204E-1,7.819069177E-2,-1.143080711E0
3.934248929E2,2.631300092E-1,-2.357937992E-1,1.035263062E0
3.939288875E2,-2.186895907E-1,-5.360338464E-2,-8.350521326E-1
3.944328818E2,-7.147117704E-2,-2.596175373E-1,5.140427351E-1
3.949368759E2,-8.399390616E-3,2.587012351E-1,-5.482511520E-1
3.954408698E2,-3.625482321E-1,-4.303542376E-1,-2.458730713E-2
3.959448636E2,-5.238165334E-2,4.584540129E-1,3.156643808E-1
3.964488572E2,-3.494146466E-1,-5.528326035E-1,-9.575305581E-1
3.969528509E2,4.071413875E-1,4.549415410E-1,7.058542371E-1
3.974568443E2,-5.123628378E-1,-2.257145345E-1,-9.699005485E-1
3.979608376E2,-5.224421024E-1,3.144426346E-1,7.744238377E-1
3.984648308E2,2.474002391E-1,-3.347539008E-1,-9.421061873E-1
3.989688238E2,-4.673115611E-1,8.055779338E-1,1.743866205E0
3.994728166E2,4.764745384E-2,-7.706059217E-1,-1.018617034E0
3.999768093E2,-3.040579557E-1,6.517927051E-1,1.375362039E0
4.004808021E2,-5.879573524E-2,-7.324268818E-1,-1.258686900E0
4.009847948E2,5.635227636E-2,4.214967042E-2,2.874118686E-1
4.014887876E2,6.062832847E-2,-3.908007443E-1,-3.894262910E-1
4.019927803E2,-2.009745091E-1,1.067486182E-1,5.196931958E-1
4.024967729E2,-4.221075773E-1,-2.012799382E-1,-6.349939108E-1
4.030007654E2,2.223547846E-1,-1.878409237E-1,8.588758707E-1
4.035047580E2,-1.430950761E-1,-4.367683083E-2,-5.765036345E-1
4.040087506E2,-2.805396616E-1,-1.047633067E-1,2.167042792E-1
4.045127432E2,5.925388262E-2,3.069595397E-1,-1.727220118E-1
4.050167356E2,-2.599229515E-1,-5.739074349E-1,-6.582067907E-2
4.055207280E2,-2.576322258E-1,6.687442064E-1,2.774853408E-1
4.060247205E2,-1.356119812E-1,-6.262891293E-1,-7.264709473E-1
4.065287131E2,-4.366155863E-1,6.357575059E-1,1.087339282E0
4.070327058E2,-5.192350596E-3,-4.772381186E-1,-1.702938318E0
4.075366984E2,-5.833758712E-1,3.439168632E-1,1.599243999E0
4.080406908E2,5.650499091E-2,-4.088212550E-1,-1.549305797E0
4.085446831E2,9.743293375E-2,1.915061027E-1,1.787237644E0
4.090486755E2,-5.102248192E-1,-7.513637096E-2,-1.500589371E0
4.095526681E2,3.475820720E-1,-8.781181276E-2,1.412624836E0
4.100566608E2,-2.493855506E-1,1.238528341E-1,-1.069624186E0
4.105606536E2,-1.177441850E-1,-2.635881603E-1,8.767436743E-1
4.110646467E2,2.160934210E-1,-1.201876476E-1,-7.816014886E-1
4.115686401E2,-6.696605086E-1,6.459894776E-2,4.071413875E-1
4.120726338E2,3.170388341E-1,5.963567495E-1,-2.379318327E-1
4.125766277E2,-1.678351015E-1,-6.763800383E-1,-1.495091617E-1
4.130806216E2,-6.629409790E-1,7.895427346E-1,4.810560048E-1
4.135846155E2,9.132428467E-2,-5.250383019E-1,-6.754637361E-1
4.140886097E2,-4.691441655E-1,5.833758712E-1,8.478803039E-1
4.145926041E2,-1.389717404E-2,-6.739365458E-1,-1.227074623E0
4.150965989E2,-2.953531146E-1,4.502073526E-1,1.580459952E0
4.156005942E2,-1.200349256E-1,-2.139553875E-1,-1.447749496E0
4.161045904E2,-1.707367003E-1,2.858847082E-1,1.314733744E0
4.166085875E2,-1.557705179E-2,-1.618791670E-1,-1.152396441E0
4.171125854E2,-1.061377525E-1,-1.791360974E-1,9.011782408E-1
4.176165840E2,5.406153202E-2,2.220493406E-1,-6.922625303E-1
4.181205835E2,-4.008800089E-1,-2.758054435E-1,4.941896200E-1
4.186245840E2,2.550360560E-1,3.269653618E-1,-4.877755344E-1
4.191285853E2,-7.012727857E-1,-4.386008978E-1,1.808159798E-1
4.196325870E2,-2.510654330E-1,8.019127250E-1,2.035706937E-1
4.201365893E2,5.742128938E-2,-6.858484149E-1,-6.351466775E-1
4.206405919E2,-2.177732885E-1,8.365793228E-1,7.121156454E-1
4.211445946E2,-2.565632015E-2,-6.998983026E-1,-1.088102937E0
4.216485974E2,-2.666424811E-1,1.547015011E-1,9.714277387E-1
4.221526003E2,-1.340848207E-1,-2.677114904E-1,-1.230281711E0
4.226566032E2,-3.393353820E-1,6.298015714E-1,1.322827697E0
4.231606063E2,-1.960875988E-1,-1.464548260E-1,-1.460119486E0
4.236646095E2,2.707658112E-1,-1.559232324E-1,1.697593212E0
4.241686133E2,-6.385064125E-1,7.941242307E-3,-2.041968346E0
4.246726179E2,9.575305134E-2,-1.792888194E-1,1.853669167E0
4.251766230E2,-2.672533393E-1,1.313359290E-1,-1.162628412E0
4.256806285E2,1.038470119E-2,-4.506655037E-1,1.014188290E0
4.261846342E2,-1.598938555E-1,1.238528341E-1,-7.728966475E-1
4.266886400E2,-5.001455545E-1,-1.253799945E-1,3.338375986E-1
4.271926461E2,1.411097646E-1,3.622428179E-1,-4.408916533E-1
4.276966526E2,-2.864955962E-1,-5.080868006E-1,-1.798996776E-1
4.282006593E2,-3.443750143E-1,5.601630211E-1,8.536835015E-2
4.287046666E2,-3.833176568E-2,-6.356047988E-1,-3.686569035E-1
4.292086748E2,-2.156352699E-1,3.880518377E-1,7.599157691E-1
4.297126838E2,2.886336111E-2,-6.366738081E-1,-1.227227330E0
4.302166934E2,-3.494146466E-1,5.473348498E-1,1.128419995E0
4.307207040E2,1.643226296E-1,-3.422369957E-1,-1.405752540E0
4.312247161E2,-5.361865759E-1,3.313941360E-1,1.508072376E0
4.317287304E2,3.358229101E-1,-4.996874034E-1,-1.693164468E0
4.322327478E2,-7.301361561E-1,1.684459597E-1,1.860388637E0
4.327367691E2,4.294379354E-1,-2.186895907E-1,-1.728441834E0
4.332407948E2,-2.044869810E-1,3.292561173E-1,1.414304733E0
4.337448248E2,1.733328849E-1,-7.560978532E-1,-1.145218730E0
4.342488591E2,-4.680751264E-1,7.278453708E-1,8.046616316E-1
4.347528973E2,2.596175373E-1,-5.432115197E-1,-6.372846961E-1
4.352569396E2,-7.024944760E-3,2.390008420E-1,8.214604259E-1
4.357609856E2,3.106247485E-1,-4.017963111E-1,-5.500837564E-1
4.362650351E2,-1.855501831E-1,8.872810751E-2,2.932150960E-1
4.367690879E2,8.521563560E-2,5.619955808E-2,-1.443168074E-1
4.372731435E2,-9.926552884E-3,1.832594350E-2,1.453858167E-1
4.377772019E2,-1.169806048E-1,3.488037884E-1,3.752236962E-1
4.382812626E2,-2.452622056E-1,-1.485928595E-1,-4.676169753E-1
4.387853252E2,-1.569922417E-1,5.499309897E-1,1.603520066E-1
4.392893894E2,-6.597339362E-2,-7.252492309E-1,-2.988655865E-1
4.397934550E2,5.497782957E-3,3.836230934E-1,7.402154207E-1
4.402975216E2,-3.941605091E-1,-1.522580534E-1,-1.280372620E0
4.408015889E2,5.787943676E-2,-3.191768378E-2,1.587332129E0
4.413056567E2,-2.868010104E-1,-1.156061590E-1,-1.266628146E0
4.418097246E2,1.985310577E-2,-1.392771751E-1,1.024725676E0
4.423137927E2,-6.658425927E-2,1.571449637E-1,-8.335250020E-1
4.428178610E2,-1.379027218E-1,-4.253146052E-1,5.229002237E-1
4.433219292E2,1.557705179E-2,4.282162189E-1,-4.247037470E-1
4.438259972E2,-2.895499170E-1,-4.859429300E-1,1.398880333E-1
4.443300646E2,-5.406153202E-2,4.529562294E-1,-1.606574357E-1
4.448341316E2,-3.084867001E-1,-4.340194166E-1,-1.154534444E-1
4.453381981E2,-6.490438432E-2,4.876227975E-1,4.416552484E-1
4.458422638E2,-4.277580678E-1,-2.843575478E-1,-4.404335022E-1
4.463463287E2,-3.144426346E-1,4.990765154E-1,1.178969026E0
4.468503928E2,-1.548542231E-1,-4.573850036E-1,-1.418122530E0
4.473544558E2,1.748600453E-1,-3.200931549E-1,1.062446594E0
4.478585179E2,2.290742844E-2,4.810560122E-2,-6.310232878E-1
4.483625790E2,-2.420551628E-1,-3.234528899E-1,-9.224057943E-2
4.488666391E2,-1.237001196E-1,3.193295598E-1,1.430950761E-1
4.493706983E2,-1.533270627E-1,-5.743656158E-1,-6.510291100E-1
4.498747564E2,-3.335321844E-1,3.451386094E-1,9.411898851E-1
4.503788134E2,-6.675224900E-1,-2.101374865E-1,-1.441182733E0
4.508828695E2,7.973312736E-1,-5.287034512E-1,1.081077933E0
4.513869249E2,-6.243038177E-1,2.154825479E-1,-6.572905183E-1
4.518909796E2,2.782489061E-1,3.665188793E-3,8.326086998E-1
4.523950336E2,-3.558287397E-2,5.513054505E-2,-2.159406990E-1
4.528990867E2,-1.698204130E-1,-6.429351568E-1,-3.953822255E-1
4.534031391E2,-1.921169758E-1,4.201222658E-1,6.830995679E-1
4.539071908E2,-2.684750557E-1,-4.347830117E-1,-1.008690476E0
4.544112418E2,-2.196058929E-1,3.796524704E-1,1.237459302E0
4.549152922E2,-4.376846254E-1,-2.078467458E-1,-9.240856767E-1
4.554193420E2,4.569268525E-1,4.444041103E-2,9.332486391E-1
4.559233916E2,-2.767217457E-1,2.290742937E-3,-6.980656981E-1
4.564274409E2,-2.134972364E-1,-3.200931549E-1,6.314814687E-1
4.569314900E2,1.959348768E-1,5.757400393E-2,-5.577195287E-1
4.574355387E2,-2.793179154E-1,-3.825540543E-1,1.878409237E-1
4.579395869E2,7.696896046E-2,5.980366468E-1,5.253437161E-2
4.584436343E2,-4.444041103E-2,-6.699659228E-1,-4.463894367E-1
4.589476809E2,-2.645044625E-1,3.361283541E-1,4.001164436E-1
4.594517266E2,-2.257145345E-1,-4.911352694E-1,-7.260127664E-1
4.599557716E2,-1.026252806E-1,9.926552325E-2,1.116508126E0
4.604598159E2,-6.320923567E-1,6.551524997E-2,-1.222493172E0
4.609638596E2,6.143772602E-1,-3.613265157E-1,1.117882490E0
4.614679028E2,-3.947713673E-1,9.208786488E-2,-1.037401080E0
4.619719453E2,-1.574503928E-1,-3.384190798E-1,1.122311354E0
4.624759872E2,6.414080039E-3,3.129154742E-1,-7.670934200E-1
4.629800284E2,-4.543306828E-1,-3.494146466E-1,2.794706225E-1
4.634840688E2,-1.528689116E-1,3.309359848E-1,-3.291034102E-1
4.639881084E2,-1.797469556E-1,-5.960513353E-1,-1.463021189E-1
4.644921471E2,-1.504254490E-1,5.981893539E-1,2.264781147E-1
4.649961849E2,-9.101885557E-2,-5.937605500E-1,-2.162461281E-1
4.655002218E2,-2.444986254E-1,6.073523164E-1,2.328922004E-1
4.660042578E2,-1.635590494E-1,-7.026472092E-1,-5.845975876E-1
4.665082930E2,-3.226893246E-1,5.836812854E-1,6.549997330E-1
4.670123272E2,-3.097084463E-1,1.065959036E-1,-5.068650246E-1
4.675163608E2,-2.376264036E-1,2.803869247E-1,1.104901671E0
4.680203938E2,1.238528341E-1,-1.631008983E-1,-1.044120669E0
4.685244264E2,2.761108875E-1,-3.937023580E-1,8.605557680E-1
4.690284586E2,4.816668928E-1,2.037234008E-1,-2.623664141E-1
4.695324905E2,-5.971203446E-1,-3.010036349E-1,1.948658675E-1
4.700365222E2,1.409570426E-1,2.005163580E-1,-2.461785078E-1
4.705405537E2,-5.934551358E-1,-1.502727419E-1,-3.935496211E-1
4.710445849E2,-9.101885557E-2,8.384118974E-2,3.145953715E-1
4.715486158E2,-1.652389169E-1,-2.742782831E-1,-4.280634820E-1
4.720526471E2,-6.861538887E-1,7.125737667E-1,9.375247359E-1
4.725566772E2,2.179260105E-1,-3.233001828E-1,-1.072831273E0
4.730607070E2,-3.332267404E-1,4.105011225E-1,1.194393396E0
4.735647365E2,7.223475724E-2,-6.936369538E-1,-1.620318770E0
4.740687656E2,-2.124282271E-1,6.944005489E-1,1.606574416E0
4.745727944E2,-2.499964088E-1,-8.533781171E-1,-1.800218463E0
4.750768229E2,2.756527364E-1,3.929387629E-1,1.912464857E0
4.755808515E2,-3.552178741E-1,-2.825249732E-1,-1.531132579E0
4.760848810E2,-1.101083755E-1,2.438877672E-1,1.267544389E0
4.765889121E2,-1.606574357E-1,3.121519089E-1,-9.398154616E-1
4.770929454E2,-3.952295184E-1,-5.196931958E-1,1.980729103E-1
4.775969819E2,4.324922562E-1,3.501782417E-1,8.384118974E-2
4.781010216E2,-6.608029604E-1,-7.142536640E-1,-6.325504780E-1
4.786050645E2,-1.159115955E-1,6.716458201E-1,6.516399980E-1
4.791091101E2,-8.109229803E-2,-8.035926223E-1,-8.219185472E-1
4.796131581E2,-4.086685479E-1,6.945532560E-1,7.953459620E-1
4.801172081E2,1.548542231E-1,-5.377137065E-1,-5.896372199E-1
4.806212599E2,-4.728093445E-1,5.071704984E-1,6.305651665E-1
4.811253132E2,1.331685185E-1,-7.696896195E-1,-9.384410381E-1
4.816293677E2,-4.987711012E-1,6.175842881E-1,1.004567146E0
4.821334232E2,-1.640172005E-1,-7.406735420E-1,-9.531017542E-1
4.826374792E2,9.117157012E-2,4.295906425E-1,1.088561058E0
4.831415354E2,-4.589121640E-1,-3.071122766E-1,-9.757037759E-1
4.836455915E2,1.695149764E-2,3.692677617E-1,1.194087982E0
4.841496477E2,-2.845102847E-1,-3.220784664E-1,-1.086575747E0
4.846537037E2,2.110537887E-1,8.918625861E-2,8.749110699E-1
4.851577594E2,-4.332558513E-1,-7.177661173E-3,-7.751874328E-1
4.856618146E2,7.522799969E-1,-3.313941360E-1,8.851430416E-1
4.861658693E2,-4.349357188E-1,1.922696829E-1,-6.075050235E-1
4.866699237E2,-3.597993553E-1,-5.864302069E-2,3.558287323E-1
4.871739779E2,-8.246674389E-2,-4.673115537E-2,-1.970038936E-2
4.876780319E2,-8.552107029E-3,1.085812151E-1,-4.312705398E-1
4.881820856E2,-5.575668216E-1,5.845975876E-1,3.834703565E-1
4.886861391E2,1.350011230E-1,-8.014546037E-1,-7.466294765E-1
4.891901927E2,-3.035998046E-1,3.552178741E-1,6.548470259E-1
4.896942464E2,1.114828233E-2,-6.426297426E-1,-9.567669630E-1
4.901983002E2,-3.935496211E-1,5.549706817E-1,1.035263062E0
4.907023542E2,-5.115992576E-2,-4.566214085E-1,-1.307556033E0
4.912064084E2,-2.050978541E-1,5.253437161E-1,1.671784163E0
4.917104626E2,-3.970620930E-1,-3.291034102E-1,-1.653610945E0
4.922145167E2,-2.208276242E-1,1.175914705E-1,1.341153622E0
4.927185707E2,-1.832594397E-3,3.375028074E-2,-1.206152558E0
4.932226246E2,-2.846629918E-1,-8.185587823E-2,1.406668901E0
4.937266783E2,2.999345958E-1,-8.307760954E-2,-1.187368393E0
4.942307318E2,-2.933678031E-1,-4.259254634E-1,8.527672291E-1
4.947347850E2,2.344193608E-1,3.666715920E-1,-9.234748483E-1
4.952388379E2,-5.338957906E-1,-2.696968019E-1,1.647807807E-1
4.957428907E2,-7.116574794E-2,3.281871080E-1,-1.298087686E-1
4.962469434E2,2.625191510E-1,-1.021824002E0,-3.970620930E-1
4.967509961E2,-2.747364342E-1,2.232710719E-1,6.195695996E-1
4.972550487E2,3.156643808E-1,-3.530798554E-1,-9.582940936E-1
4.977591013E2,-5.719221234E-1,6.136136651E-1,6.936369538E-1
4.982631536E2,4.780016840E-2,-5.850557685E-1,-4.874700904E-1
4.987672056E2,-1.653916389E-1,6.968439817E-1,6.571378112E-1
4.992712572E2,2.652680278E-1,-3.197877109E-1,-3.048215210E-1
4.997753084E2,-2.362519503E-1,3.486510813E-1,6.394227147E-1
5.002793592E2,-2.922987938E-1,-3.434587121E-1,-8.104648590E-1
5.007834099E2,2.513708472E-1,-1.238528341E-1,5.415316224E-1
5.012874604E2,-3.901898861E-1,4.037816226E-1,-4.437932670E-1
5.017915108E2,1.736383140E-1,-2.603811026E-1,8.005383015E-1
5.022955611E2,-5.360338464E-2,-1.313359290E-1,-5.871937871E-1
5.027996112E2,-5.604684353E-2,-3.097084463E-1,3.375027776E-1
5.033036612E2,-1.385135949E-1,2.406807244E-1,-2.193004489E-1
5.038077112E2,-2.977965772E-2,-7.299833745E-2,5.131264031E-2
5.043117610E2,-1.722638607E-1,3.956876695E-1,7.376192510E-2
5.048158107E2,6.017018110E-2,-7.153226733E-1,-1.624900252E-1
5.053198602E2,-5.199986696E-1,4.453204274E-1,5.561923981E-1
5.058239095E2,1.156061590E-1,-5.539016128E-1,-8.206968307E-1
5.063279585E2,-4.085158110E-1,3.000873327E-1,1.047327638E0
5.068320073E2,-8.216131479E-2,-2.144135386E-1,-1.145218730E0
5.073360556E2,9.544762224E-2,1.070540547E-1,1.388342977E0
5.078401037E2,-4.572322965E-1,-6.948586553E-2,-1.141706228E0
5.083441511E2,4.700604379E-1,-3.804160357E-1,9.260709882E-1
5.088481980E2,-2.446513474E-1,-1.618791670E-1,-6.467530727E-1
5.093522445E2,-2.614501119E-1,-1.400407553E-1,4.106538594E-1
5.098562905E2,-9.605848789E-2,4.786125422E-1,-3.023780696E-2
5.103603357E2,-8.124501258E-2,-3.142899275E-1,-2.312123179E-1
5.108643798E2,-1.658497900E-1,5.760455132E-1,3.559814394E-1
5.113684229E2,-1.547015011E-1,-5.681042671E-1,-4.169152081E-1
5.118724649E2,-3.298669681E-2,5.151117444E-1,3.700313270E-1
5.123765057E2,-3.915643096E-1,-2.420551628E-1,-6.004800797E-1
5.128805456E2,1.731801629E-1,4.352411628E-2,1.042440772E0
5.133845845E2,-1.687513888E-1,-2.368628234E-1,-8.675807118E-1
5.138886227E2,1.131627038E-1,-2.125809491E-1,6.939423680E-1
5.143926602E2,-2.916879393E-2,2.791652083E-1,-4.801397026E-1
5.148966972E2,-1.992946416E-1,-4.732674956E-1,4.836521745E-1
5.154007336E2,-6.566796452E-3,4.370737374E-1,-5.911644101E-1
5.159047697E2,-2.029598206E-1,-8.976657987E-1,2.330449075E-1
5.164088051E2,3.816377819E-1,-1.963930279E-1,2.657261789E-1
5.169128401E2,-1.968511790E-1,4.189005196E-1,-3.408625424E-1
5.174168744E2,-5.833758712E-1,5.569559336E-1,-3.358229101E-1
5.179209080E2,-3.420842811E-2,-5.010618567E-1,5.497783050E-2
5.184249410E2,-2.484692484E-1,3.875937164E-1,1.954767294E-2
5.189289733E2,-2.414443046E-1,-2.139553875E-1,3.527744114E-2
5.194330047E2,-2.748891478E-3,6.582067907E-2,6.319395900E-1
5.199370354E2,-6.659952998E-1,6.200277433E-2,-5.914698243E-1
5.204410654E2,4.298960865E-1,-1.079703495E-1,8.000801206E-1
5.209450946E2,9.926552325E-2,3.313941509E-2,-7.092140317E-1
5.214491230E2,-2.015853822E-1,-1.675296724E-1,5.151117444E-1
5.219531508E2,3.862192631E-1,-5.400044918E-1,-2.837466896E-1
5.224571778E2,-2.197586000E-1,6.322450191E-2,4.749473557E-2
5.229612041E2,2.255618125E-1,4.138609022E-2,-1.511890348E-2
5.234652298E2,-2.431241870E-1,-3.955349326E-2,6.322450191E-2
5.239692548E2,7.024944760E-3,4.685332775E-1,-4.254673123E-1
5.244732792E2,-2.119700760E-1,-5.714640021E-1,1.721111536E-1
5.249773030E2,9.682206810E-2,3.950767815E-1,1.905898154E-1
5.254813263E2,-2.460257858E-1,-5.268708467E-1,-4.068359435E-1
5.259853491E2,-3.500255048E-1,7.113520503E-1,4.984656572E-1
5.264893715E2,-1.331685185E-1,-5.732966065E-1,-5.158752799E-1
5.269933936E2,-3.188714087E-1,4.532616735E-1,7.738129497E-1
5.274974154E2,-1.007926930E-2,-2.710712552E-1,-9.010255337E-1
5.280014369E2,5.314523727E-2,8.246674389E-2,8.281798959E-1
5.285054582E2,-2.330449075E-1,2.458730713E-2,-6.583595276E-1
5.290094791E2,3.005454838E-1,-3.837758005E-1,4.495964646E-1
5.295134998E2,-3.711003438E-2,8.399390616E-3,-3.170388341E-1
5.300175201E2,-3.359756200E-3,-2.110537887E-1,1.530216336E-1
5.305215399E2,-7.284562290E-2,1.643226296E-1,-3.048215210E-1
5.310255594E2,-4.948004782E-1,-1.320995092E-1,-4.337139800E-2
5.315295783E2,4.280634820E-1,2.186895907E-1,4.593703151E-1
5.320335957E2,-2.399171442E-1,-5.513054729E-1,-6.097957492E-1
5.325376137E2,-6.632464528E-1,7.313578725E-1,3.784307241E-1
5.330416312E2,3.706422150E-1,-6.933315396E-1,-6.566796303E-1
5.335456482E2,-5.616901517E-1,4.460839927E-1,1.107650518E0
5.340496648E2,-6.719512399E-3,-5.218312144E-1,-1.179579854E0
5.345536810E2,-2.912297845E-1,2.422078848E-1,1.533423305E0
5.350576970E2,-9.254601598E-2,-2.109010667E-1,-1.565493703E0
5.355617128E2,-1.542433538E-2,1.727220118E-1,1.775020361E0
5.360657283E2,-2.776380479E-1,-3.271180987E-1,-1.609017849E0
5.365697438E2,-9.285144508E-2,2.336557768E-2,1.248149514E0
5.370737592E2,3.698786199E-1,-1.663079411E-1,-1.001971006E0
5.375777745E2,-4.164570570E-1,5.161807314E-2,3.631591201E-1
5.380817897E2,2.709185183E-1,1.711948514E-1,1.211039424E-1
5.385858049E2,-3.978256881E-1,-1.496618707E-2,-1.123991162E-1
5.390898200E2,1.986837685E-1,1.802051067E-1,1.543960720E-1
5.395938350E2,-1.154534444E-1,-4.839576185E-1,-4.518872201E-1
5.400978498E2,-3.359756172E-1,7.342594862E-1,5.477929711E-1
5.406018645E2,6.078104675E-2,-9.158390164E-1,-6.351466775E-1
5.411058790E2,-2.962694131E-2,2.243400961E-1,9.147699922E-2
5.416098934E2,-3.729329407E-1,-1.018617004E-1,-2.107483521E-2
5.421139076E2,1.007926911E-1,2.637408674E-1,1.853974611E-1
5.426179216E2,-1.444695145E-1,-1.360701323E-1,-3.807214797E-1
5.431219355E2,-2.503018379E-1,4.179842174E-1,5.665770769E-1
5.436259490E2,-1.218675226E-1,-2.102901936E-1,-4.990765154E-1
5.441299623E2,1.621845961E-1,-3.054323839E-3,7.003564835E-1
5.446339752E2,-2.299905866E-1,-2.154825479E-1,-7.409789562E-1
5.451379878E2,2.131918073E-1,-9.773836285E-2,7.260127664E-1
5.456420000E2,-1.117882580E-1,-2.916879393E-2,-5.143481493E-1
5.461460117E2,-1.330158114E-1,-2.290742937E-3,5.623010397E-1
5.466500231E2,3.339903057E-1,-1.545487940E-1,-9.604321718E-1
5.471540341E2,-3.060432673E-1,-1.588248461E-1,6.351466775E-1
5.476580446E2,2.993237376E-1,1.224783882E-1,-6.333140731E-1
5.481620546E2,-4.447095692E-1,-1.789833754E-1,1.748600453E-1
5.486660643E2,-1.922696829E-1,7.046325207E-1,-1.649334840E-2
5.491700736E2,2.031125315E-2,-8.333722949E-1,-9.651663154E-2
5.496740825E2,-4.784598351E-1,6.331613660E-1,2.443459183E-1
5.501780909E2,3.008509055E-2,-5.262600183E-1,-3.513999581E-1
5.506820990E2,-4.285216331E-1,3.402516842E-1,6.887500286E-1
5.511861068E2,8.750637621E-2,-5.971203446E-1,-8.013018966E-1
5.516901143E2,-2.474002391E-1,3.190241456E-1,9.865466356E-1
5.521941214E2,-4.092793912E-2,-2.306014597E-1,-1.164155602E0
5.526981282E2,3.665188793E-3,2.779434808E-2,1.404836297E0
5.532021347E2,-1.846338809E-1,-1.805105358E-1,-1.440419197E0
5.537061409E2,-5.070177838E-2,-1.568395346E-1,1.071609497E0
5.542101467E2,8.659008145E-2,-1.872300506E-1,-8.193224072E-1
5.547141525E2,-3.704894781E-1,-4.428769648E-2,4.659371078E-1
5.552181587E2,2.380845547E-1,1.450803876E-1,-4.584540129E-1
5.557221655E2,-4.462367296E-1,1.093447953E-1,2.913824916E-1
5.562261727E2,-2.971857190E-1,5.624537468E-1,-1.221729559E-3
5.567301801E2,-9.804379940E-2,-5.548179150E-1,-2.333503515E-1
5.572341877E2,-4.271472096E-1,7.521272302E-1,3.054323897E-4
5.577381954E2,-2.284634262E-1,-1.736383140E-1,-1.612683088E-1
5.582422032E2,-5.795579553E-1,6.646208763E-1,4.260781705E-1
5.587462109E2,-1.693622619E-1,-2.319758981E-1,-5.372555852E-1
5.592502185E2,-5.303833485E-1,7.959567904E-1,8.611665964E-1
5.597542259E2,-3.711003438E-2,-1.595884264E-1,-7.043271065E-1
5.602582330E2,-3.413206935E-1,4.048506320E-1,9.911280870E-1
5.607622400E2,2.845102847E-1,-4.428769462E-3,-1.283885002E0
5.612662469E2,-1.878409274E-2,-2.793179154E-1,8.723149300E-1
5.617702538E2,1.734855920E-1,-2.306014486E-2,-6.557633281E-1
5.622742606E2,-7.035635114E-1,-2.134972364E-1,3.280344009E-1
5.627782675E2,3.878991306E-1,2.716821134E-1,-1.269071549E-1
5.632822746E2,-3.181078434E-1,-7.295252681E-1,-2.829830945E-1
5.637862819E2,-3.741546720E-2,3.597993553E-1,2.116646469E-1
5.642902895E2,-1.847865991E-2,-1.162170291E0,-1.068097115E0
5.647943032E2,4.343248606E-1,4.069886506E-1,1.085353971E0
5.652983055E2,-5.496255755E-1,-1.572976820E-2,-2.719875574E-1
5.658023138E2,-6.276635826E-2,5.126682520E-1,2.144135386E-1
5.663063218E2,-8.445205539E-2,-1.085812151E-1,-2.719875574E-1
5.668103295E2,9.778417945E-1,-9.576832652E-1,4.786125422E-1
5.673143371E2,-4.700604379E-1,-4.017963111E-1,-2.707658112E-1
5.678183444E2,-1.313359290E-1,6.505709887E-2,-1.924224049E-1
5.683223516E2,2.006690800E-1,4.749473557E-2,-1.791360974E-1
5.688263587E2,-5.624537468E-1,2.290742844E-2,2.290742993E-1
5.693303658E2,-6.734784245E-1,6.021599770E-1,5.429060459E-1
5.698343728E2,-2.733619884E-2,-3.656025827E-1,-7.411317229E-1
5.703383797E2,-4.592176080E-1,1.017089859E-1,1.014188290E0
5.708423863E2,-9.972367436E-2,1.282816082E-1,-1.222340465E0
5.713463925E2,1.699731201E-1,-1.114828233E-2,1.575114846E0
5.718503983E2,-4.560105503E-1,-1.786779426E-2,-1.004109025E0
5.723544037E2,-4.657844082E-2,-2.758054435E-1,1.461493969E-1
5.728584088E2,1.285870373E-1,2.620609999E-1,1.099556610E-1
5.733624134E2,2.321286127E-2,-2.845102847E-1,-7.079922557E-1
5.738664178E2,-3.830122054E-1,4.373791814E-1,6.311760545E-1
5.743704218E2,-1.980729103E-1,-3.080285788E-1,-4.167625010E-1
5.748744259E2,-4.247037470E-1,6.417134404E-1,2.680169344E-1
5.753784306E2,1.687513888E-1,-6.890554428E-1,-7.710640430E-1
5.758824359E2,-6.959276795E-1,2.838993967E-1,1.164155602E0
5.763864419E2,1.705839932E-1,-3.866774142E-1,-1.727372885E0
5.768904482E2,-2.602283955E-1,1.296560466E-1,1.952476501E0
5.773944546E2,-2.704603672E-1,-8.063415438E-2,-1.615737319E0
5.778984612E2,2.391535640E-1,-6.459894776E-2,1.707061648E0
5.784024678E2,-1.397353113E-1,-2.168569900E-2,-1.194698811E0
5.789064746E2,1.634063199E-2,-2.057087123E-1,8.982766867E-1
5.794104816E2,1.805105358E-1,-2.124282271E-1,-9.428697824E-1
5.799144885E2,-4.005745649E-1,-1.305723488E-1,3.278816640E-1
5.804184954E2,4.489856213E-2,5.019781590E-1,2.535088956E-1
5.809225019E2,-3.426951468E-1,-3.891208768E-1,-7.974839807E-1
5.814265084E2,-3.344484568E-1,4.080576599E-1,1.074358463E0
5.819305148E2,-1.539379209E-1,-4.631882310E-1,-1.334892273E0
5.824345213E2,-4.224129915E-1,5.345066786E-1,1.664453864E0
5.829385277E2,-3.683514595E-1,-4.303542376E-1,-1.882379770E0
5.834425338E2,6.994401664E-2,2.188423127E-1,2.059225082E0
5.839465397E2,-3.422369957E-1,-2.761108875E-1,-1.722944140E0
5.844505455E2,1.986837685E-1,5.268708616E-2,1.524107575E0
5.849545510E2,-4.185950756E-1,3.568977416E-1,-1.313970089E0
5.854585562E2,-2.727511227E-1,-3.016144931E-1,7.078395486E-1
5.859625610E2,4.048506320E-1,-1.006399691E-1,-1.957821548E-1
5.864665656E2,-6.508764029E-1,-3.956876695E-1,-2.034179717E-1
5.869705700E2,2.915352285E-1,4.836521745E-1,4.528035223E-1
5.874745742E2,-2.712239623E-1,-2.612974048E-1,-1.133154154E0
5.879785781E2,-6.229293346E-1,6.185005903E-1,1.224020243E0
5.884825816E2,1.542433500E-1,-5.195404887E-1,-1.500131130E0
5.889865852E2,-2.739728391E-1,3.767508566E-1,1.490968227E0
5.894905888E2,-3.271180987E-1,-4.758636653E-1,-1.517388105E0
5.899945925E2,2.748891413E-1,1.666133702E-1,1.667813540E0
5.904985960E2,-5.445859432E-1,-7.330377586E-3,-1.441488147E0
5.910025992E2,2.399171442E-1,-6.032289565E-2,1.459814072E0
5.915066019E2,-5.326740742E-1,-1.879936308E-1,-1.286786675E0
5.920106039E2,-7.742711157E-2,1.562286615E-1,1.186146736E0
5.925146053E2,2.840521336E-1,-8.368847519E-2,-1.091615319E0
5.930186062E2,-3.272708058E-1,1.540906429E-1,5.557342172E-1
5.935226065E2,3.877464235E-1,5.360338464E-2,-3.776671588E-1
5.940266065E2,-4.757109582E-1,-7.788525894E-3,-7.620538026E-2
5.945306062E2,2.916879356E-1,2.130390853E-1,2.771798968E-1
5.950346057E2,-4.702131748E-1,-2.658788860E-1,-3.680460155E-1
5.955386051E2,1.689041108E-1,5.560396910E-1,2.351829410E-1
5.960426045E2,-2.435823381E-1,-5.755873322E-1,-5.458076596E-1
5.965466037E2,-2.015853822E-1,6.937896609E-1,4.825831652E-1
5.970506031E2,-1.782197952E-1,-3.775144219E-1,-7.484620810E-1
5.975546026E2,-2.788597643E-1,6.942478418E-1,8.872811198E-1
5.980586026E2,1.062904745E-1,-8.727730513E-1,-9.434806705E-1
5.985626031E2,-4.685332775E-1,5.743656158E-1,5.688678026E-1
5.990666040E2,2.971857190E-1,-6.562215090E-1,-4.946477413E-1
5.995706051E2,-5.070177838E-2,1.853974611E-1,6.632464528E-1
6.000746064E2,-3.124573231E-1,-2.321286127E-2,-6.695078015E-1
6.005786077E2,-7.422006875E-2,-6.811141968E-2,1.061530232E0
6.010826088E2,-3.121519089E-1,1.507308781E-1,-1.290910006E0
6.015866097E2,8.307760954E-2,-1.134681329E-1,1.468824387E0
6.020906103E2,-3.400989771E-1,-2.307541668E-1,-1.484095931E0
6.025946106E2,2.864955962E-1,-8.307760954E-2,1.682168841E0
6.030986106E2,-8.736893535E-1,6.658425927E-2,-1.168889761E0
6.036026102E2,4.152353406E-1,-4.454731345E-1,8.318451047E-1
6.041066097E2,2.855792940E-1,-7.275399566E-1,-8.297070861E-1
6.046106089E2,-2.886336148E-1,5.169443488E-1,5.091558099E-1
6.051146079E2,-1.220202371E-1,5.800161362E-1,-4.867065251E-1
6.056186068E2,-6.427824497E-1,-6.780598760E-1,3.440696001E-1
6.061226055E2,1.119409725E-1,5.117519498E-1,1.634063274E-1
6.066266050E2,-2.104429156E-1,-5.765036345E-1,-4.068359435E-1
6.071306028E2,5.696314201E-2,6.010909677E-1,2.328922004E-1
6.076346014E2,-6.750056148E-2,-3.469711840E-1,-5.868883133E-1
6.081386000E2,-2.767217457E-1,4.923570156E-1,6.162098646E-1
6.086425984E2,-2.110537887E-1,-3.423897028E-1,-6.042979956E-1
6.091465966E2,5.192350596E-3,5.297724605E-1,5.713112950E-1
6.096505947E2,-9.010255337E-3,-5.287034512E-1,-7.295252681E-1
6.101545926E2,-4.372264743E-1,4.639517963E-1,7.538071275E-1
6.106585902E2,4.382954910E-2,-3.086394370E-1,-1.287550211E0
6.111625875E2,-2.568686306E-1,1.359174103E-1,1.373682141E0
6.116665846E2,-6.383536756E-2,-7.721330523E-1,-1.581987023E0
6.121705813E2,5.236638188E-1,-4.172206521E-1,1.290757298E0
6.126745777E2,8.254310489E-1,2.696968019E-1,-2.724762440E0
6.131785738E2,6.307178736E-1,2.025780439E0,-5.299251899E-2
6.136825695E2,-2.703076601E-2,2.901607752E-2,5.326740742E-1
6.141865648E2,1.386663020E-1,2.322813272E-1,3.998109996E-1
6.146905599E2,3.300196826E-1,1.093447953E-1,5.218312144E-1
6.151945547E2,3.807214797E-1,7.895427197E-2,-1.927278340E-1
