"Time (s)","Acceleration x (m/s^2)","Acceleration y (m/s^2)","Acceleration z (m/s^2)"
1.226068500E-2,7.298108935E-2,4.980062008E0,8.349156380E0
3.326729900E-2,1.232303679E-1,4.967499733E0,8.539385796E0
5.332672990E-1,3.218346536E-1,4.733003139E0,8.840283394E0
1.033267299E0,2.322234392E0,6.744768620E0,8.373085022E0
1.533267299E0,9.698708534E0,2.452044964E0,3.540181160E0
2.033267299E0,1.095075321E1,-8.865407705E-1,4.307080805E-1
2.533267299E0,9.299705505E0,-1.770688772E0,2.013560295E0
3.033267299E0,8.478966713E0,-2.981456995E0,4.462614357E-1
3.533267299E0,1.302832127E1,-3.224328458E-1,1.772483349E0
4.033267299E0,9.740582466E0,-1.460818172E0,5.186443329E-1
4.533267299E0,9.921838760E0,-8.650053740E-1,4.055834413E-1
5.033267299E0,9.228518486E0,2.650051117E-1,-5.838487148E-1
5.533267299E0,9.890133858E0,-5.252245665E-1,-7.884350419E-1
6.033267299E0,9.896714211E0,-1.089332461E0,4.534398913E-1
6.533267299E0,1.024307537E1,-1.601396561E0,7.674978375E-1
7.033267299E0,1.004626560E1,-2.739782035E-1,1.249053478E0
7.533267299E0,9.379864693E0,-1.065404296E0,-1.281356573E0
8.033267299E0,9.534799576E0,3.121437073E0,6.855437160E-1
8.533267299E0,9.309874535E0,3.820739508E0,9.361918569E-1
9.033267299E0,9.729216576E0,1.888535261E0,3.272185028E-1
9.533267299E0,1.078983593E1,-1.466202021E0,-1.204187989E0
1.003326730E1,9.582057953E0,-1.324427366E0,-8.117650747E-1
1.053326730E1,9.820143700E0,-6.257231236E-1,-4.941178858E-1
1.103326730E1,9.773484230E0,-1.049252748E0,-8.440681696E-1
1.153326730E1,9.703494072E0,-1.042074203E0,-5.282155871E-1
1.203326730E1,9.674779892E0,-1.070189953E0,-6.161518097E-1
1.253326730E1,9.641879082E0,-1.192822099E0,-6.813562512E-1
1.303326730E1,9.834501266E0,-1.261615753E0,-7.561319470E-1
1.353326730E1,9.579067230E0,-1.494317770E0,-7.686942816E-1
1.403326730E1,9.884152412E0,-1.021137118E0,-4.229314029E-1
1.453326730E1,9.344570160E0,-1.470987678E0,-7.668996453E-1
1.503326730E1,9.673583984E0,-8.889335990E-1,-9.272187948E-1
1.553326730E1,9.477372169E0,-1.556531072E0,-9.439685345E-1
1.603326730E1,9.912267685E0,-5.946164131E-1,-9.200403094E-1
1.653326730E1,9.778269768E0,-1.336989641E0,-8.356932998E-1
1.703326730E1,9.335597992E0,-4.959124923E-1,-7.914260626E-1
1.753326730E1,9.602995872E0,-1.369890928E0,-1.074975610E0
1.803326730E1,1.047936630E1,-1.007976532E0,-1.450050473E0
1.853326730E1,9.865009308E0,-1.301695466E0,-1.175474167E0
1.903326730E1,9.657432556E0,-1.395613790E0,-1.014556766E0
1.953326730E1,9.524630547E0,-1.405783296E0,-9.966106415E-1
2.003326730E1,9.605986595E0,-1.601396561E0,-1.104287624E0
2.053326730E1,9.771091461E0,-1.542174220E0,-1.207179070E0
2.103326730E1,9.687940598E0,-1.580459356E0,-9.888339639E-1
2.153326730E1,9.704092026E0,-1.338186026E0,-1.253839016E0
2.203326730E1,9.866206169E0,-1.212562919E0,-1.360917926E0
2.253326730E1,9.850054741E0,-1.233500123E0,-1.065404296E0
2.303326730E1,9.768698692E0,-7.166503668E-1,-6.999006271E-1
2.353326730E1,9.871589661E0,-5.886343718E-1,-7.740781307E-1
2.403326730E1,9.783055305E0,-6.556333899E-1,-1.123430252E0
2.453326730E1,9.820143700E0,-5.994020700E-1,-9.032905698E-1
2.503326730E1,9.587442398E0,-5.084748268E-1,-1.319043517E0
2.553326730E1,9.291928291E0,-8.021938205E-1,-2.137987137E0
2.603326730E1,9.608379364E0,-8.913264275E-1,-1.678565025E0
2.653326730E1,9.081359863E0,-1.359123230E0,-1.877767563E0
2.703326730E1,9.148957253E0,-1.042074203E0,-1.917249203E0
2.753326730E1,9.466006279E0,-1.430907965E0,-2.145763636E0
2.803326730E1,9.684351921E0,-1.223330617E0,-1.712064624E0
2.853326730E1,9.673583984E0,-1.316052437E0,-1.953739643E0
2.903326730E1,9.510871887E0,-1.092323542E0,-1.911267042E0
2.953326730E1,8.997013092E0,-1.635494232E0,-1.791027784E0
3.003326730E1,9.235098839E0,-1.256830096E0,-1.847259045E0
3.053326730E1,9.342776299E0,-1.592423439E0,-2.027318954E0
3.103326730E1,9.320642471E0,-1.182054400E0,-1.984846354E0
3.153326730E1,9.317651749E0,-1.479960799E0,-2.038684845E0
3.203326730E1,9.486345291E0,-1.265205026E0,-2.131406784E0
3.253326730E1,9.404989243E0,-1.451845169E0,-2.354537487E0
3.303326730E1,9.550353050E0,-1.555334687E0,-2.086541414E0
3.353326730E1,9.357730865E0,-1.957328916E0,-2.286342144E0
3.403326730E1,9.330213547E0,-1.751546144E0,-2.254039049E0
3.453326730E1,9.239286423E0,-1.757528186E0,-2.285743713E0
3.503326730E1,9.440881729E0,-1.764108539E0,-2.233700037E0
3.553326730E1,9.454640388E0,-1.823330879E0,-2.321038008E0
3.603326730E1,9.402596474E0,-1.786840320E0,-2.209771633E0
3.653326730E1,9.457631111E0,-1.792822361E0,-2.252244234E0
3.703326730E1,9.416953087E0,-1.826321840E0,-2.196611166E0
3.753326730E1,9.426525116E0,-1.798206210E0,-2.121835470E0
3.803326730E1,9.157930374E0,-1.944766641E0,-2.188236237E0
3.853326730E1,9.397810936E0,-1.513460279E0,-2.247458696E0
3.903326730E1,9.291928291E0,-1.691127419E0,-2.220539331E0
3.953326730E1,9.314660072E0,-1.701895118E0,-2.265404940E0
4.003326730E1,9.309276581E0,-1.624128342E0,-2.251047850E0
4.053326730E1,9.212367058E0,-1.726421595E0,-2.312663078E0
4.103326730E1,9.254241943E0,-1.558923960E0,-2.328814745E0
4.153326730E1,9.134600639E0,-1.657029629E0,-2.399402857E0
4.203326730E1,9.412167549E0,-1.639681697E0,-2.410768747E0
4.253326730E1,9.220144272E0,-1.733600020E0,-2.422732830E0
4.303326730E1,9.150154114E0,-1.677966833E0,-2.378465652E0
4.353326730E1,9.227920532E0,-1.680957913E0,-2.374876499E0
4.403326730E1,9.268000603E0,-1.759322882E0,-2.404188633E0
4.453326730E1,9.234500885E0,-1.785045743E0,-2.381456852E0
4.503326730E1,9.164510727E0,-1.599601984E0,-2.351546526E0
4.553326730E1,9.427721024E0,-1.647458434E0,-2.383251429E0
4.603326730E1,9.338588715E0,-1.783849239E0,-2.413759947E0
4.653326730E1,9.285946846E0,-1.730608940E0,-2.297109842E0
4.703326730E1,9.337990761E0,-1.869392633E0,-2.410768747E0
4.753326730E1,9.390632629E0,-1.740778446E0,-2.358126640E0
4.803326730E1,9.354740143E0,-1.746760488E0,-2.386840582E0
4.853326730E1,9.582057953E0,-1.692921996E0,-2.373680115E0
4.903326730E1,9.279366493E0,-1.687538147E0,-2.290529490E0
4.953326730E1,9.570094109E0,-1.475175142E0,-2.130808592E0
5.003326730E1,9.573084831E0,-1.627119422E0,-2.354537487E0
5.053326730E1,9.728020668E0,-1.630110383E0,-2.532802820E0
5.103326730E1,1.007497978E1,-1.287338614E0,-2.635694027E0
5.153326730E1,9.588638306E0,-1.796411633E0,-2.770888567E0
5.203326730E1,9.231510162E0,-1.767697692E0,-3.108874798E0
5.253326730E1,9.325428009E0,-1.444068432E0,-2.872583628E0
5.303326730E1,9.667003632E0,-1.872981906E0,-3.037090063E0
5.353326730E1,8.634500504E0,-1.917249203E0,-2.834298372E0
5.403326730E1,8.918647766E0,-1.729412556E0,-2.840878725E0
5.453326730E1,9.258428574E0,-1.645065546E0,-2.863610506E0
5.503326730E1,9.355937004E0,-1.615753531E0,-2.991028309E0
5.553326730E1,9.496515274E0,-1.731207132E0,-2.552543640E0
5.603326730E1,9.811769485E0,-1.744965911E0,-2.332403898E0
5.653326730E1,9.596415520E0,-1.520638824E0,-2.394019127E0
5.703326730E1,9.405587196E0,-1.966900229E0,-2.472383976E0
5.753326730E1,9.196813583E0,-1.477568030E0,-2.319841623E0
5.803326730E1,9.185447693E0,-1.411765337E0,-2.223530531E0
5.853326730E1,9.347561836E0,-1.570888042E0,-2.386840582E0
5.903326730E1,9.333204269E0,-1.409970760E0,-2.386840582E0
5.953326730E1,9.148359299E0,-1.978266120E0,-2.494517565E0
6.003326730E1,9.167501450E0,-1.365105271E0,-2.352742910E0
6.053326730E1,9.673583984E0,-1.765903115E0,-2.568096876E0
6.103326730E1,9.961918831E0,-1.494915962E0,-2.209771633E0
6.153326730E1,9.030512810E0,-1.847259045E0,-1.074975610E0
6.203326730E1,9.285946846E0,-8.243274093E-1,-1.734198213E0
6.253326730E1,9.783653259E0,-8.039883971E-1,-1.673181176E0
6.303326730E1,9.742377281E0,-6.873382926E-1,-7.399803996E-1
6.353326730E1,1.050449181E1,-9.272187948E-2,-8.105686903E-1
6.403326730E1,9.842277527E0,-8.823533654E-1,-9.379864931E-1
6.453326730E1,9.767501831E0,-1.104287624E0,-5.820540786E-1
6.503326730E1,9.891928673E0,-6.305087805E-1,-5.072783828E-1
6.553326730E1,9.727422714E0,-1.296909928E0,-5.090730190E-1
6.603326730E1,9.751350403E0,-1.325623751E0,-4.959124923E-1
6.653326730E1,9.781859398E0,-1.400997639E0,-4.354937077E-1
6.703326730E1,9.820143700E0,-1.357328653E0,-2.404786795E-1
6.753326730E1,9.692726135E0,-1.477568030E0,-1.328016520E-1
6.803326730E1,9.658628464E0,-1.493121386E0,-2.650051117E-1
6.853326730E1,9.694520950E0,-1.218544960E0,-2.901297510E-1
6.903326730E1,9.608379364E0,-1.524826288E0,-2.709871531E-1
6.953326730E1,9.670592308E0,-1.258624673E0,-2.410768867E-1
7.003326730E1,9.609575272E0,-1.416550994E0,-2.554338276E-1
7.053326730E1,9.841081619E0,-1.311266780E0,-1.328016520E-1
7.103326730E1,9.847063065E0,-1.473978758E0,-2.135594189E-1
7.153326730E1,9.885947227E0,-1.208973646E0,-2.410768867E-1
7.203326730E1,9.629914284E0,-8.793623447E-1,-7.477571070E-2
7.253326730E1,9.940981865E0,-5.617151260E-1,-1.788634956E-1
7.303326730E1,9.813564301E0,-8.883354068E-1,-4.606183469E-1
7.353326730E1,9.974481583E0,-6.879364848E-1,-4.097708762E-1
7.403326730E1,9.840482712E0,-6.430711150E-1,-5.533402562E-1
7.453326730E1,9.707083702E0,-6.711867452E-1,-5.581258535E-1
7.503326730E1,1.001755238E1,-8.949156404E-1,-7.286145091E-1
7.553326730E1,9.769296646E0,-6.879364848E-1,-5.294120312E-1
7.603326730E1,9.610772133E0,-7.896314859E-1,-6.669993401E-1
7.653326730E1,9.669994354E0,-7.046862841E-1,-4.749752879E-1
7.703326730E1,9.743574142E0,-4.899304509E-1,-9.266205430E-1
7.753326730E1,9.852447510E0,-7.196413875E-1,-7.740781307E-1
7.803326730E1,9.668199539E0,-8.985049129E-1,-1.166501045E0
7.853326730E1,9.683155060E0,-5.629115105E-1,-6.873382926E-1
7.903326730E1,9.670592308E0,-1.435693540E-2,-2.123630047E-1
7.953326730E1,9.830911636E0,9.870393574E-2,-3.415754437E-1
8.003326730E1,9.952945709E0,3.367897868E-1,-2.045863420E-1
8.053326730E1,9.703494072E0,1.226321608E-1,-3.625126183E-1
8.103326730E1,1.138624668E1,2.087737769E-1,-6.873382926E-1
8.153326730E1,9.787840843E0,-7.334001660E-1,8.973085135E-2
8.203326730E1,9.435498238E0,-5.850451589E-1,-1.141974568E0
8.253326730E1,9.818947792E0,-2.123630047E-1,-5.108676553E-1
8.303326730E1,1.001456070E1,-8.733802289E-2,-1.884347796E-1
8.353326730E1,9.972088814E0,-2.614158690E-1,-2.518445849E-1
8.403326730E1,9.901499748E0,1.262213886E-1,-2.871387303E-1
8.453326730E1,9.788438797E0,-2.470589429E-1,-1.884347796E-1
8.503326730E1,9.962516785E0,1.974078715E-1,-2.087737769E-1
8.553326730E1,9.761520386E0,-2.967100143E-1,-1.405783296E-1
8.603326730E1,9.640084267E0,-1.310070455E-1,-1.447657645E-1
8.653326730E1,9.556933403E0,-1.136590764E-1,-1.399801224E-1
8.703326730E1,9.832706451E0,-4.755735099E-1,-1.040877849E-1
8.753326730E1,9.812367439E0,1.004985496E-1,-1.016949639E-1
8.803326730E1,9.903294563E0,-5.635097623E-1,-6.819544733E-2
8.853326730E1,9.848857880E0,-5.742774159E-2,-1.052841991E-1
8.903326730E1,9.726225853E0,-3.936193287E-1,-1.310070455E-1
8.953326730E1,9.784850121E0,-1.998006850E-1,-8.135596663E-2
9.003326730E1,9.814162254E0,-1.710868180E-1,-1.118644550E-1
9.053326730E1,9.771091461E0,-3.128615618E-1,-9.092725813E-2
9.103326730E1,9.823135376E0,-1.399801224E-1,-1.657029688E-1
9.153326730E1,9.830911636E0,-2.823530734E-1,-1.591227055E-1
9.203326730E1,1.013779163E1,1.513460279E-1,-9.655039310E-1
9.253326730E1,9.754940033E0,1.317248821E0,3.828516304E-1
9.303326730E1,9.744770050E0,1.290927768E0,5.503492355E-1
9.353326730E1,9.908080101E0,1.548754454E0,1.290329576E0
9.403326730E1,9.531210899E0,1.879562140E0,1.030708313E0
9.453326730E1,1.023529911E1,1.097707391E0,1.420140266E0
9.503326730E1,1.000319481E1,3.936193287E-1,-5.234299302E-1
9.553326730E1,9.723235130E0,3.894318938E-1,1.782652885E-1
9.603326730E1,9.862018585E0,2.709871531E-1,1.244267747E-1
9.653326730E1,9.797411919E0,4.055834413E-1,3.523431420E-1
9.703326730E1,9.864411354E0,2.871387303E-1,5.347958803E-1
9.753326730E1,9.784850121E0,3.433700502E-1,4.289134443E-1
9.803326730E1,9.794421196E0,3.493520916E-1,3.984049559E-1
9.853326730E1,9.796216011E0,2.153540403E-1,3.589234054E-1
9.903326730E1,9.791430473E0,4.307080805E-1,7.543373108E-1
9.953326730E1,9.774082184E0,2.267199457E-1,-6.580262631E-2
1.000332673E2,9.805787086E0,5.150550604E-1,-6.520441920E-2
1.005332673E2,9.790233612E0,8.147560954E-1,-4.307080805E-1
1.010332673E2,9.798010826E0,9.397810698E-1,2.039881349E-1
1.015332673E2,9.831509590E0,1.222134113E0,-2.991028316E-2
1.020332673E2,9.667003632E0,1.638485312E0,-4.426721856E-2
1.025332673E2,9.734002113E0,1.450050473E0,2.793620527E-1
1.030332673E2,9.778867722E0,1.389631748E0,2.632105052E-1
1.035332673E2,9.708279610E0,1.314257860E0,4.049852192E-1
1.040332673E2,9.747162819E0,1.338784218E0,2.691925466E-1
1.045332673E2,9.757930756E0,1.331605792E0,1.788634956E-1
1.050332673E2,9.775279045E0,1.348355532E0,7.178468257E-2
1.055332673E2,9.766305923E0,1.281356573E0,-1.399801224E-1
1.060332673E2,9.790233612E0,1.215553880E0,-2.763710022E-1
1.065332673E2,9.778269768E0,1.319641709E0,-3.242274821E-1
1.070332673E2,9.750154495E0,1.262213945E0,-5.682953596E-1
1.075332673E2,9.760921478E0,1.322034478E0,-3.589234054E-1
1.080332673E2,9.771091461E0,1.329213023E0,-3.684946895E-1
1.085332673E2,9.797411919E0,1.320838094E0,-2.709871531E-1
1.090332673E2,9.760921478E0,1.320838094E0,-2.548356056E-1
1.095332673E2,9.748359680E0,1.295713425E0,-2.931207716E-1
1.100332673E2,9.726225853E0,1.301695466E0,-2.997010350E-1
1.105332673E2,9.780064583E0,1.333998680E0,-2.667997181E-1
1.110332673E2,9.760921478E0,1.306481123E0,-3.284149170E-1
1.115332673E2,9.636494637E0,1.208973646E0,-4.037888348E-1
1.120332673E2,9.687940598E0,1.308275819E0,5.282155871E-1
1.125332673E2,9.626923561E0,1.406979680E0,7.860422134E-1
1.130332673E2,9.781859398E0,1.448854089E0,6.508477330E-1
1.135332673E2,9.721440315E0,1.398604870E0,6.113662124E-1
1.140332673E2,9.746564865E0,1.426122308E0,5.754738450E-1
1.145332673E2,9.699306488E0,1.432104349E0,5.898307562E-1
1.150332673E2,9.765707016E0,1.406979680E0,6.089733839E-1
1.155332673E2,9.708279610E0,1.395613790E0,6.460621357E-1
1.160332673E2,9.814162254E0,1.374676585E0,6.346961856E-1
1.165332673E2,9.798010826E0,1.035493970E0,1.208375469E-1
1.170332673E2,9.870991707E0,9.511470199E-1,8.315058798E-2
1.175332673E2,9.804591179E0,8.997012973E-1,1.022931710E-1
1.180332673E2,9.750154495E0,9.607182741E-1,2.584248483E-1
1.185332673E2,9.729216576E0,1.170688510E0,9.571290761E-2
1.190332673E2,9.791430473E0,1.012762189E0,1.962114573E-1
1.195332673E2,9.769296646E0,9.511470199E-1,2.596212626E-1
1.200332673E2,9.774082184E0,9.140582681E-1,2.105683982E-1
1.205332673E2,9.775876999E0,9.206385016E-1,1.788634956E-1
1.210332673E2,9.741779327E0,9.140582681E-1,1.980060786E-1
1.215332673E2,9.764511108E0,9.140582681E-1,2.572284341E-1
1.220332673E2,9.794421196E0,9.445667267E-1,2.506481707E-1
1.225332673E2,9.780064583E0,9.236295223E-1,2.727817893E-1
1.230332673E2,9.734002113E0,9.224331379E-1,1.770688742E-1
1.235332673E2,9.757930756E0,9.008977413E-1,2.488535494E-1
1.240332673E2,9.802198410E0,8.865407705E-1,2.458625287E-1
1.245332673E2,9.783055305E0,9.128618240E-1,2.524427772E-1
1.250332673E2,9.764511108E0,9.122636318E-1,2.548356056E-1
1.255332673E2,9.772287369E0,9.074779749E-1,2.327020019E-1
1.260332673E2,9.788438797E0,9.224331379E-1,3.062812984E-1
1.265332673E2,9.802796364E0,9.140582681E-1,2.955136001E-1
1.270332673E2,9.781859398E0,9.056833982E-1,3.194418252E-1
1.275332673E2,9.754341125E0,9.026923180E-1,3.762713671E-1
1.280332673E2,9.759725571E0,9.314061999E-1,3.684946895E-1
1.285332673E2,9.770493507E0,9.332008362E-1,3.936193287E-1
1.290332673E2,9.771091461E0,9.236295223E-1,3.894318938E-1
1.295332673E2,9.753145218E0,9.014959335E-1,4.115654826E-1
1.300332673E2,9.826724052E0,8.817551732E-1,7.238288522E-1
1.305332673E2,9.781859398E0,9.523434043E-1,6.251249313E-1
1.310332673E2,9.732806206E0,8.745766878E-1,6.729813814E-1
1.315332673E2,9.781859398E0,8.021938205E-1,8.578268886E-1
1.320332673E2,9.811769485E0,8.650053740E-1,3.080759048E-1
1.325332673E2,9.791430473E0,6.089733839E-1,2.991028316E-2
1.330332673E2,9.799804688E0,5.581258535E-1,2.614158690E-1
1.335332673E2,9.804591179E0,5.569294691E-1,1.597209126E-1
1.340332673E2,9.807581902E0,6.000002623E-1,2.644068897E-1
1.345332673E2,9.790233612E0,5.682953596E-1,3.577269912E-1
1.350332673E2,9.756733894E0,5.790630579E-1,3.194418252E-1
1.355332673E2,9.957133293E0,5.754738450E-1,5.312066078E-1
1.360332673E2,9.791430473E0,5.904290080E-1,1.290329576E0
1.365332673E2,9.741779327E0,6.424728632E-1,1.064207911E0
1.370332673E2,9.818947792E0,6.400800347E-1,8.889335990E-1
1.375332673E2,9.756135941E0,6.400800347E-1,1.290329576E0
1.380332673E2,9.762716293E0,6.699903607E-1,1.279561877E0
1.385332673E2,9.796216011E0,7.004988194E-1,1.312463164E0
1.390332673E2,9.757930756E0,6.622136831E-1,1.290927768E0
1.395332673E2,9.737591743E0,6.592226624E-1,1.363908887E0
1.400332673E2,9.735796928E0,6.681957245E-1,1.326820135E0
1.405332673E2,9.807581902E0,7.453642488E-1,1.305284739E0
1.410332673E2,9.753145218E0,6.999006271E-1,1.433898926E0
1.415332673E2,9.766305923E0,7.226324677E-1,1.533201098E0
1.420332673E2,9.742377281E0,7.208378315E-1,1.410568953E0
1.425332673E2,9.707083702E0,7.034898400E-1,1.510469317E0
1.430332673E2,9.730413437E0,7.070791125E-1,1.532602906E0
1.435332673E2,9.763913155E0,7.160521746E-1,1.507478237E0
1.440332673E2,9.753145218E0,7.399803996E-1,1.567897081E0
1.445332673E2,9.729216576E0,7.417750359E-1,1.566102386E0
1.450332673E2,9.694520950E0,6.795616150E-1,1.708475351E0
1.455332673E2,9.706484795E0,6.783652306E-1,1.697109461E0
1.460332673E2,9.668798447E0,7.579265833E-1,1.631905079E0
1.465332673E2,9.586843491E0,6.939185858E-1,1.703689694E0
1.470332673E2,9.674779892E0,7.495517135E-1,1.545763373E0
1.475332673E2,9.719645500E0,7.740781307E-1,1.529611826E0
1.480332673E2,9.589237213E0,7.292127013E-1,1.445264935E0
1.485332673E2,9.710074425E0,7.112665176E-1,1.370489120E0
1.490332673E2,9.750154495E0,8.219345808E-1,1.327418327E0
1.495332673E2,9.622138023E0,7.387840152E-1,1.289133191E0
1.500332673E2,9.778867722E0,8.452646136E-1,1.295713425E0
1.505332673E2,9.732208252E0,7.112665176E-1,1.253839016E0
1.510332673E2,9.837491989E0,8.117650747E-1,1.229910851E0
1.515332673E2,9.757930756E0,6.664010882E-1,1.170688510E0
1.520332673E2,9.852447510E0,8.027920127E-1,1.061216831E0
1.525332673E2,9.634700775E0,8.009973764E-1,1.152144074E0
1.530332673E2,9.780662537E0,1.001994491E0,1.149751306E0
1.535332673E2,9.735796928E0,9.475577474E-1,1.108475089E0
1.540332673E2,9.751350403E0,9.553344250E-1,1.140179992E0
1.545332673E2,9.736993790E0,1.008574724E0,1.124626637E0
1.550332673E2,9.874580383E0,9.822536707E-1,1.175474167E0
1.555332673E2,9.740582466E0,8.518448472E-1,9.493523836E-1
1.560332673E2,9.577870369E0,1.076770186E0,1.004985452E0
1.565332673E2,1.003549862E1,9.493523836E-1,9.607182741E-1
1.570332673E2,9.938589096E0,9.188438654E-1,9.810572863E-1
1.575332673E2,9.848857880E0,9.170492887E-1,1.156929731E0
1.580332673E2,1.002712345E1,9.188438654E-1,9.445667267E-1
1.585332673E2,1.000798035E1,9.044869542E-1,5.581258535E-1
1.590332673E2,9.995418549E0,8.757730722E-1,6.000002623E-1
1.595332673E2,9.960124016E0,9.008977413E-1,7.513462901E-1
1.600332673E2,9.731011391E0,1.012762189E0,1.289133191E0
1.605332673E2,9.535996437E0,9.056833982E-1,1.233500123E0
1.610332673E2,9.955338478E0,1.158126116E0,1.159322619E0
1.615332673E2,9.914062500E0,1.293320656E0,1.353141189E0
1.620332673E2,9.756135941E0,7.052844763E-1,1.328614831E0
1.625332673E2,9.796216011E0,1.164706469E0,1.102493048E0
1.630332673E2,9.491130829E0,9.254241586E-1,1.076770186E0
1.635332673E2,9.732806206E0,1.122832060E0,1.148554921E0
1.640332673E2,9.818947792E0,6.526423693E-1,6.957131624E-1
1.645332673E2,9.577272415E0,1.089332461E0,1.223330617E0
1.650332673E2,9.751350403E0,1.347757339E0,5.132604837E-1
1.655332673E2,1.068455124E1,1.901695848E0,3.936193287E-1
1.660332673E2,9.174081802E0,1.094118118E0,6.939185858E-1
1.665332673E2,9.885348320E0,1.505683661E0,7.166503668E-1
1.670332673E2,9.711869240E0,1.265205026E0,4.606183469E-1
1.675332673E2,9.483952522E0,1.738385677E0,2.883351147E-1
1.680332673E2,9.772287369E0,1.446461320E0,6.975077987E-1
1.685332673E2,9.766305923E0,1.570888042E0,5.569294691E-1
1.690332673E2,9.749555588E0,1.377069473E0,6.783652306E-1
1.695332673E2,9.644271851E0,1.514058471E0,5.665007830E-1
1.700332673E2,9.548559189E0,1.393819213E0,6.107679605E-1
1.705332673E2,9.831509590E0,1.569691658E0,6.574280262E-1
1.710332673E2,9.724431038E0,1.420140266E0,7.190431952E-1
1.715332673E2,9.669994354E0,1.701895118E0,6.496513486E-1
1.720332673E2,9.527023315E0,1.416550994E0,7.322037220E-1
1.725332673E2,9.810572624E0,1.797608018E0,7.148557901E-1
1.730332673E2,9.732806206E0,1.618744493E0,4.929214716E-1
1.735332673E2,9.738788605E0,1.697707653E0,4.480560422E-1
1.740332673E2,9.568299294E0,1.594816327E0,5.587241054E-1
1.745332673E2,9.617950439E0,1.951346874E0,4.660021961E-1
1.750332673E2,9.536594391E0,1.911267042E0,5.485545993E-1
1.755332673E2,9.653842926E0,2.002194405E0,4.175475538E-1
1.760332673E2,9.814162254E0,1.853839397E0,2.907279432E-1
1.765332673E2,9.475577354E0,1.890329838E0,4.737788737E-1
1.770332673E2,9.649655342E0,1.671984792E0,8.362914920E-1
1.775332673E2,9.588638306E0,1.939382792E0,3.553341627E-1
1.780332673E2,9.577870369E0,1.634896040E0,4.995017350E-1
1.785332673E2,9.717850685E0,1.778465390E0,8.057830334E-1
1.790332673E2,9.723235130E0,1.686341763E0,5.850451589E-1
1.795332673E2,9.550951958E0,1.671386600E0,6.987041831E-1
1.800332673E2,9.470791817E0,1.661815286E0,3.272185028E-1
1.805332673E2,9.649057388E0,1.677966833E0,2.650051117E-1
1.810332673E2,9.914062500E0,1.700698733E0,2.679961324E-1
1.815332673E2,9.743574142E0,1.808973908E0,3.846462369E-1
1.820332673E2,9.899705887E0,1.805982947E0,5.712863803E-1
1.825332673E2,9.756733894E0,1.761117458E0,4.701896608E-1
1.830332673E2,9.807581902E0,2.091326952E0,5.294120312E-1
1.835332673E2,1.101834965E1,1.265205026E0,5.682953596E-1
1.840332673E2,9.865009308E0,1.939382792E0,4.103690982E-1
1.845332673E2,9.649057388E0,1.789831281E0,4.959124923E-1
1.850332673E2,9.689137459E0,2.056631088E0,5.994020700E-1
1.855332673E2,9.701699257E0,1.727617979E0,5.778666735E-1
1.860332673E2,9.818349838E0,1.855035782E0,5.120640397E-1
1.865332673E2,9.695717812E0,1.786840320E0,5.371887088E-1
1.870332673E2,9.528220177E0,1.732403636E0,4.815555513E-1
1.875332673E2,9.538987160E0,1.654038668E0,4.229314029E-1
1.880332673E2,9.564710617E0,1.797608018E0,5.012963414E-1
1.885332673E2,9.659226418E0,1.703689694E0,5.198407173E-1
1.890332673E2,9.869196892E0,1.848455548E0,5.054838061E-1
1.895332673E2,9.747162819E0,1.679761529E0,3.954139352E-1
1.900332673E2,9.556933403E0,1.828116536E0,5.198407173E-1
1.905332673E2,9.704092026E0,1.697707653E0,6.191428304E-1
1.910332673E2,9.687940598E0,1.712064624E0,4.295116663E-1
1.915332673E2,9.592227936E0,1.724028707E0,5.132604837E-1
1.920332673E2,9.395418167E0,1.732403636E0,6.448656917E-1
1.925332673E2,9.415159225E0,1.719841242E0,5.742774606E-1
1.930332673E2,9.735198975E0,1.508674622E0,2.871387303E-1
1.935332673E2,9.890133858E0,1.587039590E0,3.876372576E-1
1.940332673E2,1.004985523E1,2.220539331E0,2.620140910E-1
1.945332673E2,9.851848602E0,1.819741607E0,4.307080805E-1
1.950332673E2,9.897911072E0,1.776670814E0,5.778666735E-1
1.955332673E2,9.765707016E0,1.573280931E0,4.707878530E-1
1.960332673E2,9.870991707E0,1.001396298E0,5.712863803E-1
1.965332673E2,9.513862610E0,5.922235847E-1,3.122633696E-1
1.970332673E2,1.007856941E1,1.027119160E0,1.266401410E0
1.975332673E2,1.018205833E1,8.009973764E-1,2.039881349E-1
1.980332673E2,9.906285286E0,1.542772412E0,5.587241054E-1
1.985332673E2,9.729216576E0,1.703689694E0,7.974081635E-1
1.990332673E2,9.601201057E0,1.642672777E0,9.302098155E-1
1.995332673E2,9.566504478E0,1.621137381E0,8.931210637E-1
2.000332673E2,9.601201057E0,1.654636860E0,9.415757060E-1
2.005332673E2,9.393025398E0,1.743769526E0,9.248259664E-1
2.010332673E2,9.397810936E0,1.574477315E0,2.871387303E-1
2.015332673E2,9.357730865E0,1.247258782E0,2.093719840E-1
2.020332673E2,9.669994354E0,1.584048629E0,1.926222295E-1
2.025332673E2,9.700503349E0,1.798206210E0,5.425725579E-1
2.030332673E2,9.783055305E0,1.531406522E0,1.162911773E0
2.035332673E2,9.488140106E0,1.733600020E0,1.051047325E0
2.040332673E2,9.690931320E0,1.673779488E0,1.068993568E0
2.045332673E2,9.517452240E0,1.649851203E0,9.128618240E-1
2.050332673E2,9.459425926E0,1.646261930E0,8.787640929E-1
2.055332673E2,9.637093544E0,1.958525300E0,8.536394835E-1
2.060332673E2,9.622138023E0,1.700100541E0,5.617151260E-1
2.065332673E2,9.411569595E0,1.801197290E0,7.561319470E-1
2.070332673E2,9.628718376E0,1.896311998E0,6.556333899E-1
2.075332673E2,9.906285286E0,1.639681697E0,5.503492355E-1
2.080332673E2,9.961918831E0,1.481755376E0,7.740781307E-1
2.085332673E2,9.971489906E0,1.931606054E0,1.012762189E0
2.090332673E2,9.986445427E0,1.592423439E0,9.457631707E-1
2.095332673E2,9.848857880E0,1.837687731E0,9.397810698E-1
2.100332673E2,9.791430473E0,2.051247120E0,1.144965649E0
2.105332673E2,9.831509590E0,1.762313843E0,1.079761267E0
2.110332673E2,9.745368004E0,1.805982947E0,1.164108157E0
2.115332673E2,9.713663101E0,1.916052699E0,1.115055323E0
2.120332673E2,9.737591743E0,1.889133453E0,1.054038405E0
2.125332673E2,9.531210899E0,1.815554142E0,9.266205430E-1
2.130332673E2,9.506086349E0,2.073979139E0,8.422735929E-1
2.135332673E2,9.571290970E0,2.084746838E0,6.382854581E-1
2.140332673E2,9.608379364E0,2.054836512E0,6.807580590E-1
2.145332673E2,9.675378799E0,1.909472466E0,7.704889178E-1
2.150332673E2,9.745368004E0,2.142174482E0,7.734799385E-1
2.155332673E2,9.943374634E0,2.008774519E0,8.123632669E-1
2.160332673E2,9.778269768E0,2.191825628E0,8.985049129E-1
2.165332673E2,9.756733894E0,1.977667928E0,8.291130662E-1
2.170332673E2,9.665208817E0,2.190030813E0,9.266205430E-1
2.175332673E2,9.584450722E0,2.068595171E0,8.997012973E-1
2.180332673E2,9.803992271E0,2.188236237E0,9.367900491E-1
2.185332673E2,9.716654778E0,2.336591244E0,9.343972206E-1
2.190332673E2,9.690931320E0,2.025524378E0,7.818548083E-1
2.195332673E2,9.517452240E0,2.404188633E0,8.488538265E-1
2.200332673E2,9.486345291E0,2.204986095E0,9.493523836E-1
2.205332673E2,9.567701340E0,2.327019930E0,9.571290612E-1
2.210332673E2,9.516854286E0,2.266601324E0,9.894321561E-1
2.215332673E2,9.475577354E0,2.423331022E0,9.302098155E-1
2.220332673E2,9.397212982E0,2.373680115E0,1.074975610E0
2.225332673E2,9.520442963E0,2.498106956E0,1.058824062E0
2.230332673E2,9.454640388E0,2.381456852E0,1.061216831E0
2.235332673E2,9.424730301E0,2.461616278E0,1.018146038E0
2.240332673E2,9.445069313E0,2.499303341E0,1.003789067E0
2.245332673E2,9.438488960E0,2.364108801E0,9.511470199E-1
2.250332673E2,9.376873970E0,2.386840582E0,9.158528447E-1
2.255332673E2,9.510273933E0,2.428116798E0,1.019342422E0
2.260332673E2,9.437292099E0,2.421536446E0,1.024128079E0
2.265332673E2,9.427721024E0,2.472383976E0,1.022333503E0
2.270332673E2,9.427721024E0,2.496910334E0,1.030110121E0
2.275332673E2,9.478569031E0,2.445464849E0,1.088136077E0
2.280332673E2,9.481559753E0,2.533401012E0,1.062413216E0
2.285332673E2,9.478569031E0,2.490330219E0,1.024128079E0
2.290332673E2,9.474381447E0,2.544766903E0,1.046859860E0
2.295332673E2,9.461220741E0,2.504687071E0,9.702895880E-1
2.300332673E2,9.443872452E0,2.516052961E0,1.009771109E0
2.305332673E2,9.491130829E0,2.461018085E0,1.042074203E0
2.310332673E2,9.456435204E0,2.494517565E0,1.006780148E0
2.315332673E2,9.429515839E0,2.501696110E0,1.016351461E0
2.320332673E2,9.435498238E0,2.526820660E0,1.124626637E0
2.325332673E2,9.443274498E0,2.532802820E0,1.074975610E0
2.330332673E2,9.448060036E0,2.480758905E0,1.091127157E0
2.335332673E2,9.480362892E0,2.515454769E0,1.083350420E0
2.340332673E2,9.506086349E0,2.408375978E0,1.105484009E0
2.345332673E2,9.492925644E0,2.417947292E0,8.057830334E-1
2.350332673E2,9.536594391E0,2.434697151E0,5.371887088E-1
2.355332673E2,9.527023315E0,2.528615236E0,5.916253924E-1
2.360332673E2,9.497711182E0,2.517249346E0,6.000002623E-1
2.365332673E2,9.513862610E0,2.505883455E0,6.364908218E-1
2.370332673E2,9.507282257E0,2.516052961E0,6.442674994E-1
2.375332673E2,9.553942680E0,2.531606436E0,6.520441771E-1
2.380332673E2,9.528220177E0,2.517249346E0,6.209374666E-1
2.385332673E2,9.521639824E0,2.507678032E0,6.041877270E-1
2.390332673E2,9.512067795E0,2.510669231E0,5.371887088E-1
2.395332673E2,9.503094673E0,2.514258385E0,5.234299302E-1
2.400332673E2,9.536594391E0,2.516052961E0,4.660021961E-1
2.405332673E2,9.515059471E0,2.508874655E0,5.012963414E-1
2.410332673E2,9.488140106E0,2.512463808E0,7.465606928E-1
2.415332673E2,9.425926208E0,2.489732027E0,9.684949517E-1
2.420332673E2,9.399007797E0,2.550748825E0,1.462612867E0
2.425332673E2,9.467203140E0,2.536391973E0,1.496112347E0
2.430332673E2,9.293723106E0,2.495115757E0,1.704886079E0
2.435332673E2,9.314062119E0,2.530410051E0,1.654636860E0
2.440332673E2,9.393025398E0,2.544766903E0,1.662413478E0
2.445332673E2,9.282357216E0,2.542972326E0,1.581057549E0
2.450332673E2,9.408578873E0,2.587239504E0,1.607976794E0
2.455332673E2,9.336793900E0,2.544766903E0,1.646261930E0
2.460332673E2,9.359525681E0,2.579462767E0,1.724028707E0
2.465332673E2,9.332008362E0,2.577668190E0,1.761117458E0
2.470332673E2,9.332008362E0,2.545963287E0,1.805384636E0
2.475332673E2,9.343374252E0,2.585444927E0,1.815554142E0
2.480332673E2,9.400203705E0,2.535195589E0,1.692921996E0
2.485332673E2,9.381061554E0,2.541177750E0,1.679761529E0
2.490332673E2,9.336793900E0,2.518445730E0,1.721037745E0
2.495332673E2,9.338588715E0,2.562114954E0,1.740778446E0
2.500332673E2,9.345169067E0,2.582453728E0,1.721037745E0
2.505332673E2,9.358927727E0,2.580659151E0,1.738385677E0
2.510332673E2,9.315856934E0,2.542374134E0,1.729412556E0
2.515332673E2,9.373882294E0,2.592623234E0,1.740778446E0
2.520332673E2,9.348159790E0,2.539382935E0,1.737189293E0
2.525332673E2,9.363713264E0,2.548954248E0,1.743171334E0
2.530332673E2,9.340383530E0,2.583052158E0,1.758126378E0
2.535332673E2,9.335597992E0,2.541177750E0,1.754537225E0
2.540332673E2,9.335597992E0,2.532802820E0,1.762313843E0
2.545332673E2,9.354142189E0,2.577668190E0,1.724028707E0
2.550332673E2,9.411569595E0,2.557329178E0,1.767099500E0
2.555332673E2,9.329017639E0,2.547757864E0,1.741974831E0
2.560332673E2,9.329017639E0,2.565105915E0,1.776670814E0
2.565332673E2,9.328418732E0,2.566302299E0,1.740778446E0
2.570332673E2,9.357132912E0,2.568695068E0,1.775474429E0
2.575332673E2,9.338588715E0,2.590230465E0,1.771885157E0
2.580332673E2,9.344570160E0,2.562114954E0,1.774278045E0
2.585332673E2,9.333204269E0,2.550748825E0,1.762313843E0
2.590332673E2,9.345169067E0,2.557329178E0,1.770688772E0
2.595332673E2,9.346364975E0,2.575873613E0,1.780260086E0
2.600332673E2,9.351150513E0,2.563909531E0,1.811964989E0
2.605332673E2,9.316454887E0,2.581257343E0,1.794616938E0
2.610332673E2,9.354142189E0,2.576471806E0,1.771885157E0
2.615332673E2,9.354142189E0,2.576471806E0,1.695314884E0
2.620332673E2,9.349356651E0,2.571087837E0,1.721635938E0
2.625332673E2,9.347561836E0,2.582453728E0,1.721635938E0
2.630332673E2,9.397810936E0,2.563909531E0,1.780260086E0
2.635332673E2,9.308079720E0,2.568695068E0,1.950748682E0
2.640332673E2,9.320642471E0,2.573480844E0,1.926820397E0
2.645332673E2,9.314062119E0,2.565105915E0,1.893320918E0
2.650332673E2,9.346364975E0,2.572882652E0,1.952543259E0
2.655332673E2,9.314660072E0,2.568096876E0,1.912463546E0
2.660332673E2,9.311071396E0,2.575873613E0,1.919043779E0
2.665332673E2,9.332008362E0,2.566900492E0,1.933400750E0
2.670332673E2,9.316454887E0,2.575873613E0,1.903490424E0
2.675332673E2,9.321240425E0,2.565105915E0,1.863410592E0
2.680332673E2,9.322437286E0,2.560320139E0,1.895115495E0
2.685332673E2,9.322437286E0,2.577668190E0,1.917249203E0
2.690332673E2,9.340383530E0,2.595614433E0,1.821536183E0
2.695332673E2,9.448060036E0,2.531606436E0,1.232901812E0
2.700332673E2,9.409774780E0,2.560320139E0,1.528415442E0
2.705332673E2,9.352347374E0,2.560320139E0,1.745564103E0
2.710332673E2,9.326025963E0,2.558525562E0,1.837687731E0
2.715332673E2,9.327222824E0,2.547159672E0,1.850848317E0
2.720332673E2,9.328418732E0,2.574677229E0,1.874178290E0
2.725332673E2,9.330213547E0,2.572882652E0,1.905883193E0
2.730332673E2,9.306285858E0,2.554338217E0,1.898106575E0
2.735332673E2,9.311071396E0,2.563311338E0,1.908276081E0
2.740332673E2,9.325428009E0,2.562114954E0,1.917249203E0
2.745332673E2,9.311669350E0,2.571686029E0,1.958525300E0
2.750332673E2,9.290732384E0,2.553740025E0,1.960319996E0
2.755332673E2,9.292527199E0,2.561516523E0,1.956132531E0
2.760332673E2,9.204590797E0,2.590828657E0,2.001596212E0
2.765332673E2,9.228518486E0,2.580659151E0,2.284547329E0
2.770332673E2,9.058030128E0,2.559123755E0,2.947957516E0
2.775332673E2,9.087940216E0,2.622533560E0,3.075375319E0
2.780332673E2,9.013164520E0,2.572882652E0,3.030509949E0
2.785332673E2,9.012566566E0,2.584248543E0,3.078964472E0
2.790332673E2,9.040083885E0,2.566302299E0,3.017947674E0
2.795332673E2,9.068798065E0,2.577668190E0,3.061616659E0
2.800332673E2,9.041280746E0,2.574677229E0,3.137588739E0
2.805332673E2,9.020941734E0,2.578266382E0,3.246462107E0
2.810332673E2,9.007781029E0,2.593819857E0,3.315255880E0
2.815332673E2,9.025727272E0,2.611765862E0,3.214159012E0
2.820332673E2,9.024530411E0,2.596810818E0,3.162115097E0
2.825332673E2,9.019146919E0,2.571087837E0,3.179463148E0
2.830332673E2,9.008378983E0,2.571686029E0,3.226721287E0
2.835332673E2,9.031708717E0,2.599801779E0,3.205185890E0
2.840332673E2,9.010173798E0,2.585444927E0,3.231507063E0
2.845332673E2,8.995218277E0,2.568096876E0,3.230310678E0
2.850332673E2,9.002995491E0,2.586043119E0,3.230310678E0
2.855332673E2,9.083154678E0,2.615953445E0,3.287738323E0
2.860332673E2,9.065806389E0,2.472982168E0,2.751745939E0
2.865332673E2,9.333204269E0,2.285743713E0,2.402393818E0
2.870332673E2,9.456435204E0,2.177468538E0,1.984846354E0
2.875332673E2,9.812367439E0,-1.914258115E-2,-2.907279432E-1
2.880332673E2,9.123234749E0,-5.359922647E-1,3.253042459E0
2.885332673E2,9.242277145E0,-3.990031779E-1,2.895315409E0
2.890332673E2,9.942776680E0,-1.138983607E0,-2.380858511E-1
2.895332673E2,9.774082184E0,3.445664644E-1,5.676971674E-1
2.900332673E2,9.868000984E0,1.451845169E0,5.629115105E-1
2.905332673E2,9.521639824E0,1.125823021E0,7.980063558E-1
2.910332673E2,9.754341125E0,1.448854089E0,7.357929349E-1
2.915332673E2,1.032144070E1,1.550549030E0,7.788637877E-1
2.920332673E2,9.761520386E0,1.304686546E0,1.073779106E0
2.925332673E2,9.318847656E0,1.612762451E0,5.730810165E-1
2.930332673E2,9.539586067E0,1.548754454E0,1.059422255E0
2.935332673E2,9.674779892E0,1.848455548E0,1.447059512E0
2.940332673E2,9.516854286E0,1.613958836E0,8.249256015E-1
2.945332673E2,9.564710617E0,1.871187329E0,1.062413216E0
2.950332673E2,9.488738060E0,1.749751568E0,7.914260626E-1
2.955332673E2,9.638289452E0,1.916052699E0,3.146561682E-1
2.960332673E2,9.665208817E0,1.979462504E0,4.001995921E-1
2.965332673E2,9.473783493E0,1.898106575E0,4.719842672E-1
2.970332673E2,9.430712700E0,1.781456470E0,4.959124923E-1
2.975332673E2,9.439086914E0,1.783251047E0,6.394818425E-1
2.980332673E2,9.588638306E0,2.353341103E0,4.869394004E-1
2.985332673E2,9.650852203E0,2.505883455E0,4.498506486E-1
2.990332673E2,9.525228500E0,2.450250387E0,6.281159520E-1
2.995332673E2,9.459425926E0,2.218744755E0,7.322037220E-1
3.000332673E2,9.692128181E0,2.171486616E0,8.793623447E-1
3.005332673E2,9.582057953E0,2.196611166E0,9.726824164E-1
3.010332673E2,9.620942116E0,2.262413740E0,9.302098155E-1
3.015332673E2,9.494720459E0,2.288734913E0,9.092725813E-2
3.020332673E2,9.531210899E0,2.635694027E0,1.902294010E-1
3.025332673E2,9.537791252E0,2.104487419E0,2.231307179E-1
3.030332673E2,9.495916367E0,2.451446772E0,8.733802289E-2
3.035332673E2,9.439086914E0,2.159522533E0,3.361915946E-1
3.040332673E2,9.362516403E0,2.258824587E0,1.896311939E-1
3.045332673E2,9.558728218E0,2.179263115E0,1.740778536E-1
3.050332673E2,9.602995872E0,2.116451740E0,2.650051117E-1
3.055332673E2,9.716055870E0,2.193620205E0,1.423729509E-1
3.060332673E2,9.542576790E0,1.861616015E0,2.488535494E-1
3.065332673E2,9.657432556E0,1.708475351E0,3.828516230E-2
3.070332673E2,9.781859398E0,1.390828133E0,-1.615155339E-1
3.075332673E2,9.847063065E0,1.551745534E0,-1.040877849E-1
3.080332673E2,9.893723488E0,1.614557028E0,7.477571070E-2
3.085332673E2,9.904491425E0,1.700100541E0,-3.708875179E-2
3.090332673E2,9.801001549E0,1.530210137E0,5.551348329E-1
3.095332673E2,9.839286804E0,1.457827210E0,7.956135273E-1
3.100332673E2,9.996016502E0,1.794616938E0,1.045065284E0
3.105332673E2,9.731011391E0,1.635494232E0,9.008977413E-1
3.110332673E2,9.751350403E0,1.909472466E0,9.780662656E-1
3.115332673E2,9.914062500E0,1.919043779E0,9.702895880E-1
3.120332673E2,9.775279045E0,1.951346874E0,9.541380405E-1
3.125332673E2,9.598209381E0,2.102692842E0,9.397810698E-1
3.130332673E2,9.604789734E0,2.120040894E0,7.453642488E-1
3.135332673E2,9.341579437E0,2.094916344E0,8.309076428E-1
3.140332673E2,9.410373688E0,2.410768747E0,7.256234884E-1
3.145332673E2,9.413364410E0,1.776670814E0,6.107679605E-1
3.150332673E2,9.646066666E0,2.161317110E0,4.815555513E-1
3.155332673E2,9.701699257E0,2.155334949E0,5.916253924E-1
3.160332673E2,9.637093544E0,2.082952023E0,6.951149702E-1
3.165332673E2,9.515059471E0,2.321038008E0,7.166503668E-1
3.170332673E2,9.651450157E0,2.124826431E0,7.178468108E-1
3.175332673E2,9.660423279E0,2.313261271E0,7.304090858E-1
3.180332673E2,9.654440880E0,2.132603168E0,7.453642488E-1
3.185332673E2,9.594022751E0,2.269592285E0,7.064808607E-1
3.190332673E2,9.534201622E0,2.194816589E0,6.909275651E-1
3.195332673E2,9.394221306E0,2.172683001E0,6.951149702E-1
3.200332673E2,9.544371605E0,2.152343988E0,6.807580590E-1
3.205332673E2,9.633503914E0,2.251047850E0,8.051848412E-1
3.210332673E2,9.600004196E0,2.223530531E0,7.310073376E-1
3.215332673E2,9.525228500E0,2.291127682E0,8.075776696E-1
3.220332673E2,9.622735977E0,2.295913219E0,7.483552694E-1
3.225332673E2,9.515059471E0,2.291127682E0,7.334001660E-1
3.230332673E2,9.478569031E0,2.288734913E0,8.201399446E-1
3.235332673E2,9.440881729E0,2.281556368E0,7.926225066E-1
3.240332673E2,9.577870369E0,2.316252232E0,8.057830334E-1
3.245332673E2,9.481559753E0,2.246262312E0,8.003991842E-1
3.250332673E2,9.391230583E0,2.410170555E0,8.422735929E-1
3.255332673E2,9.488140106E0,2.143969059E0,7.627122402E-1
3.260332673E2,9.549157143E0,2.377269268E0,7.435696125E-1
3.265332673E2,9.649057388E0,2.261815548E0,7.908278704E-1
3.270332673E2,9.602995872E0,2.160120726E0,8.123632669E-1
3.275332673E2,9.546165466E0,1.966900229E0,8.171489239E-1
3.280332673E2,9.690931320E0,2.078764677E0,7.836494446E-1
3.285332673E2,9.747162819E0,1.847259045E0,8.261220455E-1
3.290332673E2,9.870991707E0,1.922633052E0,8.488538265E-1
3.295332673E2,9.692726135E0,1.875972986E0,7.686942816E-1
3.300332673E2,9.739984512E0,1.691127419E0,8.769695163E-1
3.305332673E2,9.774082184E0,1.880758643E0,8.841479421E-1
3.310332673E2,9.582057953E0,1.936989903E0,8.404789567E-1
3.315332673E2,9.756733894E0,1.810768485E0,7.974081635E-1
3.320332673E2,9.720842361E0,1.912463546E0,7.992027402E-1
3.325332673E2,9.739984512E0,2.065604210E0,8.057830334E-1
3.330332673E2,9.680164337E0,1.912463546E0,7.483552694E-1
3.335332673E2,9.730413437E0,1.813759565E0,7.962117195E-1
3.340332673E2,9.675378799E0,2.035095692E0,6.376872063E-1
3.345332673E2,9.859625816E0,2.102692842E0,5.868397355E-1
3.350332673E2,9.874580383E0,2.292324066E0,5.922235847E-1
3.355332673E2,9.809376717E0,2.217548370E0,6.305087805E-1
3.360332673E2,9.638289452E0,2.417947292E0,6.873382926E-1
3.365332673E2,9.585647583E0,2.432902336E0,5.874379873E-1
3.370332673E2,9.689137459E0,2.376671076E0,4.959124923E-1
3.375332673E2,9.564710617E0,2.293520451E0,4.079762697E-1
3.380332673E2,9.617950439E0,2.391027927E0,4.486542344E-1
3.385332673E2,9.529416084E0,2.377269268E0,3.810569942E-1
3.390332673E2,9.560523033E0,2.453839540E0,4.103690982E-1
3.395332673E2,9.481559753E0,2.453241348E0,4.007977843E-1
3.400332673E2,9.435498238E0,2.374876499E0,3.254238665E-1
3.405332673E2,9.524630547E0,2.571686029E0,5.042873621E-1
3.410332673E2,9.425926208E0,2.482553482E0,5.276173949E-1
3.415332673E2,9.450452805E0,2.456830740E0,4.851447940E-1
3.420332673E2,9.449854851E0,2.025524378E0,-3.385843933E-1
3.425332673E2,9.606584549E0,2.094916344E0,-5.862415582E-2
3.430332673E2,9.572486877E0,1.812563181E0,3.188436031E-1
3.435332673E2,9.634700775E0,1.987837434E0,6.257231236E-1
3.440332673E2,9.566504478E0,1.987837434E0,6.975077987E-1
3.445332673E2,9.445667267E0,2.076970100E0,9.750752449E-1
3.450332673E2,9.510273933E0,1.960319996E0,1.055832982E0
3.455332673E2,9.518648148E0,2.084746838E0,9.846464992E-1
3.460332673E2,9.574879646E0,2.080559254E0,1.113858938E0
3.465332673E2,9.640084267E0,2.038684845E0,7.944171429E-1
3.470332673E2,9.611370087E0,2.022533417E0,7.046862841E-1
3.475332673E2,9.743574142E0,2.085345030E0,6.526423693E-1
3.480332673E2,9.602995872E0,1.995614052E0,8.105686903E-1
3.485332673E2,9.571290970E0,2.106880426E0,9.266205430E-1
3.490332673E2,9.509077072E0,2.187039852E0,7.513462901E-1
3.495332673E2,9.588638306E0,2.158325911E0,3.762713671E-1
3.500332673E2,9.573084831E0,2.203191519E0,1.109073281E0
3.505332673E2,9.516854286E0,2.166700840E0,1.228714466E0
3.510332673E2,9.537791252E0,2.239681959E0,1.215553880E0
3.515332673E2,9.526425362E0,2.140978098E0,1.129412293E0
3.520332673E2,9.583852768E0,2.174477577E0,9.296116233E-1
3.525332673E2,9.606584549E0,2.099701881E0,7.974081635E-1
3.530332673E2,9.558728218E0,2.139183521E0,8.458628058E-1
3.535332673E2,9.607781410E0,2.142772675E0,9.272187948E-1
3.540332673E2,9.603593826E0,2.129612207E0,8.757730722E-1
3.545332673E2,9.597013474E0,2.143969059E0,9.649057388E-1
3.550332673E2,9.573084831E0,2.135594130E0,9.798609018E-1
3.555332673E2,9.568299294E0,2.151745796E0,1.044467092E0
3.560332673E2,9.524630547E0,2.159522533E0,1.054038405E0
3.565332673E2,9.598209381E0,2.088335991E0,4.342973232E-1
3.570332673E2,9.619147301E0,2.109273195E0,5.682953596E-1
3.575332673E2,9.558728218E0,2.260619164E0,5.138586760E-1
3.580332673E2,9.677771568E0,2.078764677E0,7.956135273E-2
3.585332673E2,9.700503349E0,2.128415823E0,3.948157281E-2
3.590332673E2,9.602995872E0,2.161317110E0,4.133601189E-1
3.595332673E2,9.628718376E0,2.281556368E0,3.529413342E-1
3.600332673E2,9.580862045E0,2.292324066E0,3.780659735E-1
3.605332673E2,9.590433121E0,2.287538528E0,4.528416991E-1
3.610332673E2,9.543772697E0,2.309672117E0,7.513462901E-1
3.615332673E2,9.443274498E0,2.251047850E0,7.908278704E-1
3.620332673E2,9.521639824E0,2.284547329E0,1.487139225E0
3.625332673E2,9.348159790E0,2.313261271E0,1.256830096E0
3.630332673E2,9.633503914E0,2.110469580E0,5.156532526E-1
3.635332673E2,9.566504478E0,2.016551256E0,4.701896608E-1
3.640332673E2,9.655637741E0,1.987837434E0,5.419743061E-1
3.645332673E2,9.671789169E0,2.051845312E0,5.898307562E-1
3.650332673E2,9.673583984E0,1.990828395E0,6.257231236E-1
3.655332673E2,9.596415520E0,1.927418590E0,6.203392744E-1
3.660332673E2,9.582057953E0,1.927418590E0,6.329016089E-1
3.665332673E2,9.622138023E0,1.930409670E0,6.143572330E-1
3.670332673E2,9.613164902E0,2.011765718E0,6.305087805E-1
3.675332673E2,9.608379364E0,1.971685886E0,6.095715761E-1
3.680332673E2,9.609575272E0,2.021337032E0,6.317051649E-1
3.685332673E2,9.573084831E0,1.984846354E0,6.047859192E-1
3.690332673E2,9.612566948E0,2.036890268E0,6.233302951E-1
3.695332673E2,9.553942680E0,2.054836512E0,6.346961856E-1
3.700332673E2,9.571290970E0,2.056631088E0,6.185446382E-1
3.705332673E2,9.607781410E0,2.075773716E0,6.394818425E-1
3.710332673E2,9.584450722E0,2.044667006E0,6.329016089E-1
3.715332673E2,9.597013474E0,2.075773716E0,6.634100676E-1
3.720332673E2,9.553942680E0,2.050050735E0,6.586244106E-1
3.725332673E2,9.592227936E0,2.085345030E0,6.376872063E-1
3.730332673E2,9.594022751E0,2.067398787E0,6.544370055E-1
3.735332673E2,9.602995872E0,2.078166485E0,6.526423693E-1
3.740332673E2,9.579665184E0,2.032104731E0,6.544370055E-1
3.745332673E2,9.548559189E0,2.132603168E0,6.729813814E-1
3.750332673E2,9.617950439E0,2.044667006E0,6.448656917E-1
3.755332673E2,9.550951958E0,2.083550215E0,7.387840152E-1
3.760332673E2,9.590433121E0,2.083550215E0,7.034898400E-1
3.765332673E2,9.592227936E0,2.042274237E0,6.011967063E-1
3.770332673E2,9.541379929E0,2.043470621E0,6.496513486E-1
3.775332673E2,9.607781410E0,2.018345833E0,5.581258535E-1
3.780332673E2,9.602995872E0,2.018345833E0,5.838487148E-1
3.785332673E2,9.601799011E0,2.012962103E0,5.982056856E-1
3.790332673E2,9.631709099E0,1.998605132E0,4.211367965E-1
3.795332673E2,9.611370087E0,2.005185366E0,5.084748268E-1
3.800332673E2,9.612566948E0,1.925624013E0,4.911268353E-1
3.805332673E2,9.598209381E0,1.917249203E0,5.964110494E-1
3.810332673E2,9.631709099E0,1.888535261E0,4.881358147E-1
3.815332673E2,9.669994354E0,1.914258122E0,5.694918036E-1
3.820332673E2,9.480362892E0,2.386840582E0,-1.914258115E-2
3.825332673E2,9.550353050E0,2.230110645E0,3.942175210E-1
3.830332673E2,9.570094109E0,2.219342947E0,3.475574851E-1
3.835332673E2,9.512067795E0,2.207977057E0,3.960121572E-1
3.840332673E2,9.590433121E0,2.257628202E0,3.768695593E-1
3.845332673E2,9.563513756E0,2.239681959E0,3.523431420E-1
3.850332673E2,9.553942680E0,2.255235434E0,3.619144261E-1
3.855332673E2,9.570094109E0,2.260020971E0,3.523431420E-1
3.860332673E2,9.583852768E0,2.251047850E0,3.762713671E-1
3.865332673E2,9.589237213E0,2.285743713E0,3.571287692E-1
3.870332673E2,9.564710617E0,2.250449657E0,3.750749528E-1
3.875332673E2,9.560523033E0,2.241476536E0,3.702892959E-1
3.880332673E2,9.572486877E0,2.246262312E0,3.625126183E-1
3.885332673E2,9.562915802E0,2.242672920E0,3.672982752E-1
3.890332673E2,9.553942680E0,2.260020971E0,3.972085714E-1
3.895332673E2,9.562915802E0,2.243271112E0,3.912265003E-1
3.900332673E2,9.573084831E0,2.258824587E0,4.007977843E-1
3.905332673E2,9.463015556E0,2.266601324E0,5.228317380E-1
3.910332673E2,9.583852768E0,2.233101845E0,8.883354068E-1
3.915332673E2,9.480362892E0,2.357528448E0,1.274178028E0
3.920332673E2,9.479166985E0,2.408375978E0,1.396211982E0
3.925332673E2,9.529416084E0,2.421536446E0,1.396211982E0
3.930332673E2,9.504291534E0,2.410170555E0,1.451845169E0
3.935332673E2,9.486345291E0,2.405385017E0,1.406979680E0
3.940332673E2,9.483354568E0,2.413759947E0,1.410568953E0
3.945332673E2,9.452845573E0,2.417947292E0,1.457827210E0
3.950332673E2,9.428917885E0,2.415554523E0,1.501496196E0
3.955332673E2,9.504291534E0,2.429911375E0,1.454836130E0
3.960332673E2,9.485149384E0,2.384447813E0,1.438684583E0
3.965332673E2,9.493523598E0,2.384447813E0,1.480558991E0
3.970332673E2,9.497711182E0,2.417947292E0,1.472782373E0
3.975332673E2,9.482157707E0,2.405385017E0,1.544566989E0
3.980332673E2,9.426525116E0,2.377269268E0,1.520040631E0
3.985332673E2,9.428917885E0,2.437688112E0,1.457827210E0
3.990332673E2,9.477372169E0,2.371885538E0,1.502692580E0
3.995332673E2,9.378069878E0,2.378465652E0,1.368694544E0
4.000332673E2,9.425926208E0,2.462812662E0,1.447059512E0
4.005332673E2,9.430712700E0,2.413759947E0,1.484746456E0
4.010332673E2,9.387641907E0,2.423331022E0,1.487139225E0
4.015332673E2,9.421140671E0,2.384447813E0,1.403390527E0
4.020332673E2,9.337990761E0,2.470589399E0,1.368694544E0
4.025332673E2,9.468997002E0,2.379662037E0,1.360917926E0
4.030332673E2,9.399007797E0,2.428116798E0,1.355534077E0
4.035332673E2,9.467801094E0,2.424527645E0,1.271187067E0
4.040332673E2,9.440881729E0,2.176272154E0,9.780662656E-1
4.045332673E2,9.506086349E0,2.295315027E0,6.113662124E-1
4.050332673E2,9.609575272E0,1.905883193E0,1.375873089E-1
4.055332673E2,9.729216576E0,1.614557028E0,-2.662015259E-1
4.060332673E2,9.750154495E0,1.625923038E0,4.486542344E-1
4.065332673E2,9.590433121E0,1.725823283E0,1.046859860E0
4.070332673E2,9.672985077E0,1.609173179E0,1.173679471E0
4.075332673E2,9.605986595E0,1.646261930E0,1.941775560E0
4.080332673E2,9.559925079E0,1.673181176E0,1.567897081E0
4.085332673E2,9.757930756E0,1.735394597E0,1.467996716E0
4.090332673E2,9.546165466E0,1.785045743E0,1.708475351E0
4.095332673E2,9.619147301E0,1.824527264E0,1.911267042E0
4.100332673E2,9.692128181E0,1.979462504E0,1.557129383E0
4.105332673E2,9.547362328E0,1.829911113E0,1.875972986E0
4.110332673E2,9.477372169E0,1.947757602E0,2.008176327E0
4.115332673E2,9.357730865E0,1.896910191E0,2.255833626E0
4.120332673E2,9.369096756E0,1.858026743E0,2.228316069E0
4.125332673E2,9.347561836E0,1.927418590E0,1.970489502E0
4.130332673E2,9.419346809E0,2.023131609E0,1.673779488E0
4.135332673E2,9.427721024E0,2.032104731E0,2.091326952E0
4.140332673E2,9.376275063E0,2.097907305E0,2.183450699E0
4.145332673E2,9.295517921E0,2.120040894E0,2.228914261E0
4.150332673E2,9.371489525E0,2.140978098E0,2.239681959E0
4.155332673E2,9.555737495E0,2.140978098E0,2.271985054E0
4.160332673E2,9.388239861E0,2.277967215E0,2.254039049E0
4.165332673E2,9.333204269E0,2.206182480E0,2.169692039E0
4.170332673E2,9.270991325E0,2.242672920E0,2.207378864E0
4.175332673E2,9.381659508E0,2.351546526E0,2.207378864E0
4.180332673E2,9.451649666E0,2.261815548E0,2.338385820E0
4.185332673E2,9.405587196E0,2.434697151E0,2.351546526E0
4.190332673E2,9.397212982E0,2.204387903E0,2.353341103E0
4.195332673E2,9.322437286E0,2.434098721E0,2.338385820E0
4.200332673E2,9.337990761E0,2.361117840E0,2.280958176E0
4.205332673E2,9.574879646E0,2.491526604E0,2.367697954E0
4.210332673E2,9.281160355E0,2.447259426E0,2.246262312E0
4.215332673E2,9.443872452E0,2.492124796E0,2.392822742E0
4.220332673E2,9.263215065E0,2.343171597E0,2.301895380E0
4.225332673E2,9.414560318E0,2.407179594E0,2.453839540E0
4.230332673E2,9.341579437E0,2.405385017E0,2.331805706E0
4.235332673E2,9.408578873E0,2.224128723E0,2.555534601E0
4.240332673E2,9.437292099E0,2.332403898E0,2.509472847E0
4.245332673E2,9.418149948E0,2.257628202E0,2.526820660E0
4.250332673E2,9.303294182E0,2.179263115E0,2.590230465E0
4.255332673E2,9.386445045E0,2.142772675E0,2.654836655E0
4.260332673E2,9.262018204E0,2.104487419E0,2.566900492E0
4.265332673E2,9.372088432E0,2.233101845E0,2.642872572E0
4.270332673E2,9.306285858E0,2.059023857E0,2.638087034E0
4.275332673E2,9.336793900E0,2.178664923E0,2.721237659E0
4.280332673E2,9.312865257E0,2.291127682E0,2.801397085E0
4.285332673E2,9.180662155E0,2.222334146E0,2.731407166E0
4.290332673E2,9.201599121E0,2.193620205E0,2.727817774E0
4.295332673E2,9.183652878E0,2.327019930E0,2.760120869E0
4.300332673E2,9.145368576E0,2.293520451E0,2.740380049E0
4.305332673E2,9.266205788E0,2.401197433E0,2.541177750E0
4.310332673E2,9.330811501E0,2.105684042E0,1.962114573E0
4.315332673E2,9.261420250E0,2.239681959E0,2.408375978E0
4.320332673E2,9.277571678E0,2.131406784E0,2.587837696E0
4.325332673E2,9.263813019E0,2.416750908E0,2.573480844E0
4.330332673E2,9.284152031E0,2.221735716E0,2.619542599E0
4.335332673E2,9.187242508E0,2.273181438E0,2.595016241E0
4.340332673E2,9.296713829E0,2.386242390E0,2.642872572E0
4.345332673E2,9.239286423E0,2.157129526E0,2.652443886E0
4.350332673E2,9.115457535E0,2.417947292E0,3.224328518E0
4.355332673E2,9.046664238E0,2.212164640E0,3.274577856E0
4.360332673E2,9.005388260E0,2.333600283E0,3.273381472E0
4.365332673E2,9.062217712E0,2.283949137E0,3.282952785E0
4.370332673E2,9.086145401E0,2.310270309E0,3.257229805E0
4.375332673E2,9.086145401E0,2.356332064E0,3.209373474E0
4.380332673E2,9.116654396E0,2.210968018E0,3.262015581E0
4.385332673E2,9.060422897E0,2.297109842E0,3.195016384E0
4.390332673E2,9.048459053E0,2.317448616E0,3.278167009E0
4.395332673E2,8.979664803E0,2.276172638E0,3.238087177E0
4.400332673E2,9.001798630E0,2.295315027E0,3.138186932E0
4.405332673E2,9.014361382E0,2.270190477E0,3.208176851E0
4.410332673E2,9.047860146E0,2.297109842E0,3.190230846E0
4.415332673E2,9.114859581E0,2.308475733E0,3.169891834E0
4.420332673E2,9.017950058E0,2.347957134E0,3.152543783E0
4.425332673E2,9.052646637E0,2.294118643E0,3.077169895E0
4.430332673E2,9.147162437E0,2.351546526E0,2.941377163E0
4.435332673E2,9.180662155E0,2.358126640E0,2.611167669E0
4.440332673E2,9.233304024E0,2.304886341E0,2.670390129E0
4.445332673E2,9.167501450E0,2.331805706E0,2.597409010E0
4.450332673E2,9.206384659E0,2.347957134E0,2.682952404E0
4.455332673E2,9.190233231E0,2.350948334E0,2.847458839E0
4.460332673E2,9.254241943E0,2.386840582E0,2.665604353E0
4.465332673E2,9.093922615E0,2.301895380E0,2.684746981E0
4.470332673E2,9.175876617E0,2.356332064E0,2.662015200E0
4.475332673E2,9.220742226E0,2.329412937E0,2.734398127E0
4.480332673E2,9.204590797E0,2.361117840E0,2.729014158E0
4.485332673E2,9.141778946E0,2.341377020E0,2.656033039E0
4.490332673E2,9.263813019E0,2.332403898E0,2.781656265E0
4.495332673E2,9.236295700E0,2.371885538E0,2.748156786E0
4.500332673E2,9.301499367E0,2.254039049E0,2.764906645E0
4.505332673E2,9.303294182E0,2.346760750E0,2.800798893E0
4.510332673E2,9.261420250E0,2.455035925E0,2.803191662E0
4.515332673E2,9.248857498E0,2.285743713E0,2.809173822E0
4.520332673E2,9.304491043E0,2.336591244E0,2.901297569E0
4.525332673E2,9.215956688E0,2.343171597E0,2.847458839E0
4.530332673E2,9.184849739E0,2.424527645E0,2.897109985E0
4.535332673E2,9.223732948E0,2.357528448E0,2.781656265E0
4.540332673E2,9.174081802E0,2.545963287E0,2.726023197E0
4.545332673E2,9.172286987E0,2.550748825E0,2.759522676E0
4.550332673E2,9.108279228E0,2.753540754E0,2.791825771E0
4.555332673E2,9.148957253E0,2.537588358E0,2.857030153E0
4.560332673E2,9.075378418E0,2.520240545E0,2.876172781E0
4.565332673E2,9.006584167E0,2.586043119E0,2.819941521E0
4.570332673E2,8.984451294E0,2.442473650E0,2.769692183E0
4.575332673E2,8.751749039E0,2.035693884E0,2.499901533E0
4.580332673E2,9.156734467E0,2.274976015E0,1.842473388E0
4.585332673E2,9.241081238E0,2.257628202E0,1.938186288E0
4.590332673E2,9.287740707E0,2.231905222E0,1.941775560E0
4.595332673E2,9.458230019E0,2.241476536E0,1.923829436E0
4.600332673E2,9.525228500E0,2.405385017E0,1.761117458E0
4.605332673E2,9.290133476E0,2.233700037E0,1.908276081E0
4.610332673E2,9.284152031E0,2.271386862E0,2.221735716E0
4.615332673E2,8.993423462E0,2.252244234E0,2.105684042E0
4.620332673E2,9.192028046E0,2.230110645E0,2.251047850E0
4.625332673E2,9.449854851E0,2.362912416E0,2.324627161E0
4.630332673E2,9.122636795E0,2.228914261E0,1.759921074E0
4.635332673E2,9.328418732E0,2.461616278E0,1.627119422E0
4.640332673E2,9.324232101E0,2.089532375E0,1.515254974E0
4.645332673E2,9.410373688E0,2.281556368E0,1.467398524E0
4.650332673E2,9.163313866E0,2.094317913E0,1.182054400E0
4.655332673E2,9.537791252E0,2.298306227E0,1.386640668E0
4.660332673E2,9.397212982E0,2.347957134E0,1.312463164E0
4.665332673E2,9.541379929E0,2.224128723E0,1.534995675E0
4.670332673E2,9.397810936E0,2.279163599E0,1.467996716E0
4.675332673E2,9.391230583E0,2.257628202E0,1.469193101E0
4.680332673E2,9.449854851E0,2.269592285E0,1.475175142E0
4.685332673E2,9.478569031E0,2.355733871E0,1.758126378E0
4.690332673E2,9.445667267E0,2.293520451E0,1.670190215E0
4.695332673E2,9.470791817E0,2.375474691E0,1.677966833E0
4.700332673E2,9.412167549E0,2.325823545E0,1.671386600E0
4.705332673E2,9.384650230E0,2.427518606E0,1.688136339E0
4.710332673E2,9.419944763E0,2.373680115E0,1.689332843E0
4.715332673E2,9.415159225E0,2.389233351E0,1.654038668E0
4.720332673E2,9.403793335E0,2.427518606E0,1.676172256E0
4.725332673E2,9.439086914E0,2.410170555E0,1.554138303E0
4.730332673E2,9.443872452E0,2.466402054E0,1.618744493E0
4.735332673E2,9.424132347E0,2.519043922E0,1.415354609E0
4.740332673E2,9.464810371E0,2.568096876E0,1.344766378E0
4.745332673E2,9.500701904E0,2.529811859E0,1.283749342E0
4.750332673E2,9.506086349E0,2.515454769E0,1.001396298E0
4.755332673E2,9.494720459E0,2.558525562E0,1.236491084E0
4.760332673E2,9.462417603E0,2.518445730E0,1.247856975E0
4.765332673E2,9.445667267E0,2.466402054E0,1.306481123E0
4.770332673E2,9.485149384E0,2.389831543E0,1.350748420E0
4.775332673E2,9.468997002E0,2.477767944E0,9.840483069E-1
4.780332673E2,9.591629982E0,2.438884497E0,6.041877270E-1
4.785332673E2,9.577870369E0,2.321038008E0,7.142575383E-1
4.790332673E2,9.540781975E0,2.396411896E0,8.123632669E-1
4.795332673E2,9.463015556E0,2.405385017E0,1.170688510E0
4.800332673E2,9.617352486E0,2.145165443E0,1.246062398E0
4.805332673E2,9.513862610E0,2.331805706E0,1.183250785E0
4.810332673E2,9.460023880E0,2.413161755E0,1.336989641E0
4.815332673E2,9.442078590E0,2.404188633E0,1.298704505E0
4.820332673E2,9.435498238E0,2.421536446E0,1.659422517E0
4.825332673E2,9.268000603E0,2.488535643E0,2.049452543E0
4.830332673E2,9.324232101E0,2.420340061E0,2.243271112E0
4.835332673E2,9.231510162E0,2.483749866E0,2.310270309E0
4.840332673E2,9.298508644E0,2.545963287E0,2.231307030E0
4.845332673E2,9.330213547E0,2.455035925E0,2.286342144E0
4.850332673E2,9.362516403E0,2.520240545E0,2.271386862E0
4.855332673E2,9.282357216E0,2.484946251E0,2.317448616E0
4.860332673E2,9.285347939E0,2.432902336E0,2.333600283E0
4.865332673E2,9.225527763E0,2.444268227E0,2.291127682E0
4.870332673E2,9.272786140E0,2.439482689E0,2.298306227E0
4.875332673E2,9.220144272E0,2.491526604E0,2.271985054E0
4.880332673E2,9.266205788E0,2.494517565E0,2.196611166E0
4.885332673E2,9.322437286E0,2.468196630E0,2.045265198E0
4.890332673E2,9.320642471E0,2.458625317E0,2.099103689E0
4.895332673E2,9.301499367E0,2.470589399E0,2.084746838E0
4.900332673E2,9.296713829E0,2.453241348E0,2.088335991E0
4.905332673E2,9.314062119E0,2.426322222E0,2.092523336E0
4.910332673E2,9.332008362E0,2.489732027E0,2.045265198E0
4.915332673E2,9.419944763E0,2.318047047E0,1.706680775E0
4.920332673E2,9.358927727E0,2.292324066E0,1.999203324E0
4.925332673E2,9.366703987E0,2.327618122E0,2.009970903E0
4.930332673E2,9.343374252E0,2.306680918E0,2.026122570E0
4.935332673E2,9.355937004E0,2.305484533E0,2.026122570E0
4.940332673E2,9.405587196E0,2.362314224E0,2.006381750E0
4.945332673E2,9.349954605E0,2.367099762E0,1.970489502E0
4.950332673E2,9.354142189E0,2.370090723E0,1.980060697E0
4.955332673E2,9.327222824E0,2.288734913E0,2.050050735E0
4.960332673E2,9.324232101E0,2.303091764E0,2.037488461E0
4.965332673E2,8.655437469E0,1.753340840E0,1.409970760E0
4.970332673E2,9.573084831E0,1.852044702E0,1.552343726E0
4.975332673E2,9.512666702E0,1.922034740E0,1.443470240E0
4.980332673E2,9.808777809E0,1.625923038E0,1.410568953E0
4.985332673E2,9.544371605E0,1.625923038E0,1.077966571E0
4.990332673E2,9.652647018E0,1.258624673E0,2.853440940E-1
4.995332673E2,9.636494637E0,1.712064624E0,8.913264275E-1
5.000332673E2,9.601201057E0,1.885544300E0,8.721838593E-1
5.005332673E2,9.620343208E0,1.823330879E0,7.674978375E-1
5.010332673E2,9.596415520E0,1.858026743E0,9.122636318E-1
5.015332673E2,9.597013474E0,1.839482427E0,8.913264275E-1
5.020332673E2,9.586843491E0,1.792822361E0,1.001396298E0
5.025332673E2,9.548559189E0,1.520638824E0,5.856433511E-1
5.030332673E2,9.234500885E0,9.798609018E-1,1.657029688E-1
5.035332673E2,9.488140106E0,5.228317380E-1,-9.493523836E-1
5.040332673E2,1.033519936E1,-4.624129832E-1,-2.249253243E-1
5.045332673E2,9.577272415E0,-2.452643216E-1,2.093121529E0
5.050332673E2,9.663414001E0,3.158525825E-1,1.823330879E0
5.055332673E2,9.675378799E0,4.546363056E-1,1.789831281E0
5.060332673E2,9.697511673E0,4.163511395E-1,1.896311998E0
5.065332673E2,9.400203705E0,1.654038668E0,1.261615753E0
5.070332673E2,9.644271851E0,2.097309113E0,1.036690354E0
5.075332673E2,9.378069878E0,2.813959360E0,1.453639716E-1
5.080332673E2,9.412167549E0,2.791825771E0,4.660021961E-1
5.085332673E2,9.445069313E0,2.196611166E0,1.454836130E0
5.090332673E2,9.689735413E0,1.845464468E0,1.271785259E0
5.095332673E2,9.569496155E0,1.671984792E0,1.370489120E0
5.100332673E2,9.604789734E0,1.549352646E0,1.540977836E0
5.105332673E2,9.570094109E0,1.503889084E0,1.638485312E0
5.110332673E2,9.568299294E0,1.496710539E0,1.642672777E0
5.115332673E2,9.613164902E0,1.494317770E0,1.609173179E0
5.120332673E2,9.644869804E0,1.478764415E0,1.213759303E0
5.125332673E2,9.660423279E0,1.494915962E0,1.080359459E0
5.130332673E2,9.684949875E0,1.476969719E0,8.069794178E-1
5.135332673E2,9.687342644E0,1.479960799E0,8.123632669E-1
5.140332673E2,9.684949875E0,1.475773335E0,7.483552694E-1
5.145332673E2,9.613164902E0,1.436890006E0,8.410771489E-1
5.150332673E2,9.652647018E0,1.505683661E0,1.197607756E0
5.155332673E2,9.558130264E0,1.515853167E0,1.789831281E0
5.160332673E2,9.523433685E0,1.521835208E0,2.269592285E0
5.165332673E2,9.518648148E0,1.515254974E0,2.193022013E0
5.170332673E2,9.540781975E0,1.534397483E0,2.247458696E0
5.175332673E2,9.481559753E0,1.523629785E0,2.370090723E0
5.180332673E2,9.482157707E0,1.523031592E0,2.444268227E0
5.185332673E2,9.457631111E0,1.520638824E0,2.502892494E0
5.190332673E2,9.460023880E0,1.510469317E0,2.477767944E0
5.195332673E2,9.515657425E0,1.518844128E0,2.483749866E0
5.200332673E2,9.476774216E0,1.518245935E0,2.482553482E0
5.205332673E2,9.469595909E0,1.509272933E0,2.485544443E0
5.210332673E2,9.455238342E0,1.505683661E0,2.477169752E0
5.215332673E2,9.492925644E0,1.513460279E0,2.525026083E0
5.220332673E2,9.446864128E0,1.497906923E0,2.515454769E0
5.225332673E2,9.458230019E0,1.523629785E0,2.538186550E0
5.230332673E2,9.438488960E0,1.509272933E0,2.552543640E0
5.235332673E2,9.453444481E0,1.511067510E0,2.696112871E0
5.240332673E2,9.387641907E0,1.509272933E0,2.624328136E0
5.245332673E2,9.407382011E0,1.514058471E0,2.604587555E0
5.250332673E2,9.426525116E0,1.501496196E0,2.569891453E0
5.255332673E2,9.383454323E0,1.518245935E0,2.536391973E0
5.260332673E2,9.318847656E0,1.481755376E0,2.504687071E0
5.265332673E2,9.370293617E0,1.486541033E0,2.417947292E0
5.270332673E2,9.440283775E0,1.448854089E0,2.386242390E0
5.275332673E2,9.445667267E0,1.526620865E0,2.332403898E0
5.280332673E2,9.365508080E0,1.493121386E0,2.309672117E0
5.285332673E2,9.332008362E0,1.444068432E0,2.228914261E0
5.290332673E2,9.360722542E0,1.527817249E0,2.188834429E0
5.295332673E2,9.354740143E0,1.505683661E0,2.076970100E0
5.300332673E2,9.485149384E0,1.485344648E0,2.091326952E0
5.305332673E2,9.499505997E0,1.524826288E0,2.067398787E0
5.310332673E2,9.525228500E0,1.417747378E0,2.070987940E0
5.315332673E2,9.530014038E0,1.526620865E0,2.070389748E0
5.320332673E2,9.524630547E0,1.147358418E0,2.067398787E0
5.325332673E2,9.550951958E0,1.327418327E0,1.525424480E0
5.330332673E2,9.735796928E0,1.204187989E0,1.144965649E0
5.335332673E2,9.768698692E0,1.183250785E0,1.123430252E0
5.340332673E2,9.719645500E0,1.205982566E0,1.159322619E0
5.345332673E2,9.768698692E0,1.106680512E0,1.151545882E0
5.350332673E2,9.741779327E0,1.242473125E0,1.097707391E0
5.355332673E2,9.767501831E0,1.265205026E0,1.032503009E0
5.360332673E2,9.762716293E0,1.207777262E0,8.536394835E-1
5.365332673E2,9.907482147E0,1.245464206E0,8.374879360E-1
5.370332673E2,9.789635658E0,1.329213023E0,7.004988194E-1
5.375332673E2,9.768698692E0,1.362712502E0,9.110672474E-1
5.380332673E2,9.759725571E0,1.319043517E0,8.440681696E-1
5.385332673E2,9.858428955E0,1.507478237E0,8.183453679E-1
5.390332673E2,9.783055305E0,1.520040631E0,4.869394004E-1
5.395332673E2,9.796216011E0,1.427916884E0,1.169492126E0
5.400332673E2,9.739984512E0,1.472782373E0,1.130608678E0
5.405332673E2,9.711869240E0,1.494317770E0,1.112064362E0
5.410332673E2,9.665208817E0,1.477568030E0,1.142572761E0
5.415332673E2,9.595218658E0,1.450050473E0,1.133001566E0
5.420332673E2,9.725627899E0,1.514058471E0,1.162911773E0
5.425332673E2,9.668199539E0,1.520638824E0,1.118644595E0
5.430332673E2,9.692128181E0,1.430907965E0,1.134197950E0
5.435332673E2,9.684351921E0,1.432702541E0,1.098903775E0
5.440332673E2,9.730413437E0,1.551745534E0,1.127617717E0
5.445332673E2,9.630513191E0,1.398604870E0,1.131206870E0
5.450332673E2,9.702297211E0,1.488335729E0,1.174277663E0
5.455332673E2,9.692726135E0,1.419542074E0,1.161715388E0
5.460332673E2,9.649655342E0,1.466202021E0,1.124626637E0
5.465332673E2,9.646664619E0,1.462612867E0,1.132403374E0
5.470332673E2,9.682557106E0,1.373480201E0,1.105484009E0
5.475332673E2,9.593423843E0,1.584048629E0,1.043270707E0
5.480332673E2,9.617950439E0,1.392622828E0,1.111466169E0
5.485332673E2,9.697511673E0,1.484746456E0,1.121635556E0
5.490332673E2,9.735796928E0,1.191625714E0,1.135394335E0
5.495332673E2,9.844072342E0,1.278963685E0,1.178465128E0
5.500332673E2,9.767501831E0,1.116251707E0,1.222134113E0
5.505332673E2,9.780662537E0,1.077966571E0,1.265205026E0
5.510332673E2,9.818349838E0,1.042074203E0,1.247258782E0
5.515332673E2,9.791430473E0,1.192822099E0,1.351346612E0
5.520332673E2,9.720842361E0,9.858429432E-1,1.330409408E0
5.525332673E2,9.857233047E0,9.475577474E-1,1.424327731E0
5.530332673E2,9.903294563E0,9.822536707E-1,8.039883971E-1
5.535332673E2,9.769296646E0,1.126421213E0,1.037288666E0
5.540332673E2,9.795019150E0,1.012762189E0,1.097109199E0
5.545332673E2,9.808777809E0,1.147358418E0,1.088136077E0
5.550332673E2,9.768698692E0,1.087537885E0,9.876375198E-1
5.555332673E2,9.737591743E0,1.083350420E0,1.092323542E0
5.560332673E2,9.727422714E0,1.044467092E0,1.012762189E0
5.565332673E2,9.790233612E0,1.188634634E0,9.750752449E-1
5.570332673E2,9.684351921E0,1.223928809E0,8.027920127E-1
5.575332673E2,9.689137459E0,1.400997639E0,8.584251404E-1
5.580332673E2,9.678369522E0,1.473978758E0,7.465606928E-1
5.585332673E2,9.655637741E0,1.446461320E0,6.251249313E-1
5.590332673E2,9.633503914E0,1.510469317E0,6.400800347E-1
5.595332673E2,9.628718376E0,1.381256819E0,7.716853023E-1
5.600332673E2,9.584450722E0,1.426122308E0,8.027920127E-1
5.605332673E2,9.583852768E0,1.380060434E0,7.591229677E-1
5.610332673E2,9.541379929E0,1.396211982E0,1.095912814E0
5.615332673E2,9.634700775E0,1.430907965E0,1.101894855E0
5.620332673E2,9.571290970E0,1.453639746E0,1.038485050E0
5.625332673E2,9.584450722E0,1.436890006E0,9.762716293E-1
5.630332673E2,9.614361763E0,1.472782373E0,9.571290612E-1
5.635332673E2,9.622138023E0,1.422533035E0,9.505487680E-1
5.640332673E2,9.657432556E0,1.445264935E0,9.152546525E-1
5.645332673E2,9.770493507E0,1.470389485E0,9.224331379E-1
5.650332673E2,9.674779892E0,1.440479279E0,9.320043921E-1
5.655332673E2,9.668199539E0,1.451246977E0,9.056833982E-1
5.660332673E2,9.741779327E0,1.432104349E0,9.302098155E-1
5.665332673E2,9.716055870E0,1.413560033E0,9.894321561E-1
5.670332673E2,9.764511108E0,1.444068432E0,7.639086246E-1
5.675332673E2,9.718449593E0,1.426122308E0,7.148557901E-1
5.680332673E2,9.700503349E0,1.405185103E0,7.645068169E-1
5.685332673E2,9.734002113E0,1.462612867E0,7.657032609E-1
5.690332673E2,9.732806206E0,1.432702541E0,7.668996453E-1
5.695332673E2,9.720842361E0,1.472184181E0,5.970092416E-1
5.700332673E2,9.763913155E0,1.448854089E0,6.137589812E-1
5.705332673E2,9.757930756E0,1.420140266E0,5.180460811E-1
5.710332673E2,9.686145782E0,1.426122308E0,5.371887088E-1
5.715332673E2,9.719645500E0,1.429113269E0,5.359922647E-1
5.720332673E2,9.772287369E0,1.424925923E0,4.097708762E-1
5.725332673E2,9.746564865E0,1.406979680E0,2.392822653E-1
5.730332673E2,9.799206734E0,1.413560033E0,1.686939895E-1
5.735332673E2,9.746564865E0,1.405185103E0,3.080759048E-1
5.740332673E2,9.741779327E0,1.402194023E0,3.954139352E-1
5.745332673E2,9.745368004E0,1.424327731E0,2.093719840E-1
5.750332673E2,9.769296646E0,1.394417405E0,6.999006122E-2
5.755332673E2,9.767501831E0,1.418345571E0,2.488535494E-1
5.760332673E2,9.763913155E0,1.400399446E0,2.237289101E-1
5.765332673E2,9.764511108E0,1.419542074E0,2.249253243E-1
5.770332673E2,9.772287369E0,1.417747378E0,1.519442350E-1
5.775332673E2,9.777072906E0,1.424327731E0,1.118644550E-1
5.780332673E2,9.759127617E0,1.451845169E0,5.563312769E-1
5.785332673E2,9.741779327E0,1.446461320E0,6.669993401E-1
5.790332673E2,9.731011391E0,1.450050473E0,8.153542876E-1
5.795332673E2,9.663414001E0,1.500898004E0,1.392622828E0
5.800332673E2,9.603593826E0,1.485344648E0,1.662413478E0
5.805332673E2,9.598209381E0,1.486541033E0,1.902892232E0
5.810332673E2,9.520442963E0,1.502692580E0,1.856830359E0
5.815332673E2,9.579067230E0,1.475175142E0,1.853839397E0
5.820332673E2,9.553344727E0,1.475773335E0,1.725823283E0
5.825332673E2,9.596415520E0,1.395613790E0,1.762912035E0
5.830332673E2,9.549157143E0,1.483550072E0,1.869990945E0
5.835332673E2,9.536594391E0,1.473978758E0,1.878963947E0
5.840332673E2,9.543772697E0,1.506281853E0,1.931606054E0
5.845332673E2,9.545567513E0,1.445264935E0,1.891526341E0
5.850332673E2,9.489934921E0,1.429711580E0,1.947757602E0
5.855332673E2,9.518648148E0,1.483550072E0,1.968694806E0
5.860332673E2,9.549157143E0,1.459621787E0,1.939980984E0
5.865332673E2,9.561718941E0,1.451246977E0,1.965105653E0
5.870332673E2,9.518648148E0,1.470987678E0,1.939980984E0
5.875332673E2,9.529416084E0,1.472782373E0,1.963310957E0
5.880332673E2,9.534201622E0,1.475175142E0,1.973480463E0
5.885332673E2,9.506086349E0,1.479960799E0,1.968694806E0
5.890332673E2,9.540781975E0,1.473978758E0,1.960918188E0
5.895332673E2,9.531808853E0,1.466202021E0,1.972882271E0
5.900332673E2,9.531210899E0,1.457827210E0,1.938186288E0
5.905332673E2,9.530014038E0,1.463211060E0,1.952543259E0
5.910332673E2,9.535996437E0,1.479960799E0,1.935195327E0
5.915332673E2,9.534201622E0,1.463211060E0,1.958525300E0
5.920332673E2,9.564710617E0,1.475773335E0,1.955534339E0
5.925332673E2,9.527023315E0,1.467996716E0,1.958525300E0
5.930332673E2,9.546165466E0,1.473978758E0,1.957328916E0
5.935332673E2,9.528220177E0,1.478764415E0,1.959123492E0
5.940332673E2,9.524630547E0,1.472782373E0,1.971685886E0
5.945332673E2,9.550353050E0,1.462612867E0,1.966900229E0
5.950332673E2,9.525228500E0,1.458425403E0,1.968096614E0
5.955332673E2,9.544371605E0,1.475175142E0,1.969891191E0
5.960332673E2,9.513862610E0,1.457827210E0,1.951346874E0
5.965332673E2,9.526425362E0,1.459621787E0,1.955534339E0
5.970332673E2,9.518648148E0,1.462612867E0,1.976471543E0
5.975332673E2,9.537791252E0,1.454836130E0,1.972882271E0
5.980332673E2,9.536594391E0,1.467996716E0,1.982453585E0
5.985332673E2,9.519845009E0,1.473978758E0,1.968096614E0
5.990332673E2,9.538987160E0,1.466202021E0,1.979462504E0
5.995332673E2,9.553942680E0,1.472782373E0,1.987837434E0
6.000332673E2,9.537791252E0,1.461416483E0,1.986042738E0
6.005332673E2,9.547362328E0,1.473978758E0,1.973480463E0
6.010332673E2,9.510273933E0,1.472184181E0,1.992024899E0
6.015332673E2,9.530014038E0,1.451246977E0,1.987837434E0
6.020332673E2,9.526425362E0,1.453639746E0,1.993819475E0
6.025332673E2,9.521639824E0,1.481755376E0,1.994417667E0
6.030332673E2,9.512666702E0,1.453041553E0,1.992623091E0
6.035332673E2,9.529416084E0,1.465603828E0,1.992623091E0
6.040332673E2,9.523433685E0,1.465603828E0,1.993819475E0
6.045332673E2,9.504291534E0,1.476969719E0,2.003390789E0
6.050332673E2,9.520442963E0,1.453041553E0,2.011167526E0
6.055332673E2,9.526425362E0,1.465603828E0,2.015953064E0
6.060332673E2,9.519845009E0,1.447059512E0,2.005185366E0
6.065332673E2,9.525228500E0,1.458425403E0,2.006381750E0
6.070332673E2,9.512067795E0,1.470987678E0,2.015953064E0
6.075332673E2,9.531808853E0,1.461416483E0,2.027318954E0
6.080332673E2,9.510871887E0,1.460818172E0,2.035693884E0
6.085332673E2,9.515059471E0,1.465603828E0,2.021337032E0
6.090332673E2,9.533005714E0,1.462612867E0,2.022533417E0
6.095332673E2,9.501300812E0,1.475773335E0,2.038684845E0
6.100332673E2,9.483952522E0,1.453639746E0,2.046461582E0
6.105332673E2,9.521639824E0,1.461416483E0,2.038684845E0
6.110332673E2,9.506086349E0,1.473978758E0,2.059622049E0
6.115332673E2,9.518648148E0,1.467398524E0,2.066202402E0
6.120332673E2,9.555138588E0,1.463211060E0,2.059622049E0
6.125332673E2,9.499505997E0,1.469193101E0,2.080559254E0
6.130332673E2,9.527023315E0,1.459621787E0,2.070389748E0
6.135332673E2,9.500701904E0,1.472184181E0,2.067398787E0
6.140332673E2,9.510871887E0,1.470389485E0,2.069193363E0
6.145332673E2,9.515657425E0,1.467996716E0,2.084746838E0
6.150332673E2,9.504291534E0,1.465603828E0,2.093121529E0
6.155332673E2,9.507282257E0,1.470389485E0,2.100898266E0
6.160332673E2,9.524630547E0,1.460818172E0,2.030908108E0
6.165332673E2,9.491130829E0,1.463211060E0,2.115255117E0
6.170332673E2,9.505488396E0,1.466202021E0,2.105684042E0
6.175332673E2,9.510871887E0,1.467996716E0,2.129612207E0
6.180332673E2,9.505488396E0,1.478764415E0,2.133201361E0
6.185332673E2,9.492925644E0,1.476969719E0,2.181057930E0
6.190332673E2,9.476774216E0,1.475175142E0,2.247458696E0
6.195332673E2,9.471988678E0,1.469193101E0,2.266601324E0
6.200332673E2,9.462417603E0,1.470987678E0,2.279761791E0
6.205332673E2,9.464211464E0,1.462612867E0,2.270190477E0
6.210332673E2,9.467801094E0,1.473978758E0,2.294118643E0
6.215332673E2,9.457631111E0,1.472782373E0,2.309672117E0
6.220332673E2,9.454640388E0,1.470389485E0,2.312663078E0
6.225332673E2,9.443872452E0,1.466202021E0,2.327618122E0
6.230332673E2,9.454640388E0,1.478764415E0,2.341377020E0
6.235332673E2,9.456435204E0,1.473978758E0,2.343171597E0
6.240332673E2,9.452845573E0,1.470389485E0,2.341377020E0
6.245332673E2,9.464810371E0,1.483550072E0,2.370090723E0
6.250332673E2,9.458230019E0,1.472184181E0,2.362314224E0
6.255332673E2,9.439086914E0,1.472184181E0,2.392822742E0
6.260332673E2,9.442078590E0,1.470987678E0,2.356332064E0
6.265332673E2,9.448657990E0,1.478764415E0,2.362314224E0
6.270332673E2,9.446864128E0,1.472782373E0,2.361117840E0
6.275332673E2,9.443274498E0,1.472782373E0,2.374876499E0
6.280332673E2,9.445069313E0,1.467398524E0,2.372483730E0
6.285332673E2,9.443274498E0,1.477568030E0,2.391027927E0
6.290332673E2,9.436096191E0,1.478764415E0,2.404188633E0
6.295332673E2,9.443872452E0,1.466202021E0,2.391027927E0
6.300332673E2,9.433703423E0,1.472184181E0,2.408375978E0
6.305332673E2,9.443872452E0,1.475175142E0,2.422732830E0
6.310332673E2,9.438488960E0,1.466202021E0,2.410768747E0
6.315332673E2,9.430712700E0,1.472184181E0,2.407179594E0
6.320332673E2,9.432506561E0,1.478764415E0,2.423331022E0
6.325332673E2,9.429515839E0,1.469193101E0,2.415554523E0
6.330332673E2,9.424132347E0,1.475773335E0,2.431107759E0
6.335332673E2,9.434301376E0,1.472782373E0,2.428116798E0
6.340332673E2,9.436096191E0,1.469193101E0,2.435893536E0
6.345332673E2,9.432506561E0,1.467398524E0,2.438884497E0
6.350332673E2,9.424730301E0,1.477568030E0,2.434098721E0
6.355332673E2,9.435498238E0,1.470987678E0,2.424527645E0
6.360332673E2,9.427721024E0,1.470987678E0,2.445464849E0
6.365332673E2,9.425926208E0,1.472782373E0,2.456830740E0
6.370332673E2,9.440283775E0,1.466202021E0,2.447259426E0
6.375332673E2,9.421140671E0,1.472782373E0,2.466402054E0
6.380332673E2,9.425926208E0,1.472184181E0,2.459821701E0
6.385332673E2,9.421739578E0,1.465603828E0,2.451446772E0
6.390332673E2,9.421140671E0,1.472782373E0,2.453241348E0
6.395332673E2,9.425926208E0,1.473978758E0,2.467598438E0
6.400332673E2,9.415159225E0,1.467398524E0,2.456232548E0
6.405332673E2,9.412167549E0,1.475773335E0,2.467598438E0
6.410332673E2,9.424132347E0,1.470389485E0,2.465803623E0
6.415332673E2,9.421140671E0,1.470987678E0,2.472982168E0
6.420332673E2,9.412167549E0,1.477568030E0,2.474178553E0
6.425332673E2,9.418149948E0,1.472782373E0,2.475374937E0
6.430332673E2,9.415159225E0,1.470987678E0,2.472982168E0
6.435332673E2,9.413364410E0,1.475175142E0,2.489732027E0
6.440332673E2,9.410373688E0,1.473978758E0,2.496312141E0
6.445332673E2,9.418149948E0,1.472782373E0,2.475374937E0
6.450332673E2,9.415159225E0,1.475175142E0,2.492124796E0
6.455332673E2,9.424132347E0,1.470987678E0,2.485544443E0
6.460332673E2,9.413364410E0,1.470389485E0,2.472383976E0
6.465332673E2,9.414560318E0,1.470987678E0,2.488535643E0
6.470332673E2,9.415159225E0,1.475773335E0,2.511267424E0
6.475332673E2,9.431310654E0,1.467996716E0,2.434697151E0
6.480332673E2,9.389435768E0,1.456630826E0,2.485544443E0
6.485332673E2,9.409774780E0,1.475175142E0,2.568695068E0
6.490332673E2,9.410373688E0,1.472782373E0,2.545963287E0
6.495332673E2,9.396016121E0,1.481755376E0,2.563311338E0
6.500332673E2,9.393025398E0,1.481755376E0,2.595016241E0
6.505332673E2,9.387641907E0,1.469193101E0,2.597409010E0
6.510332673E2,9.391230583E0,1.478764415E0,2.619542599E0
6.515332673E2,9.384650230E0,1.482353687E0,2.614158630E0
6.520332673E2,9.387641907E0,1.475773335E0,2.587837696E0
6.525332673E2,9.381061554E0,1.473978758E0,2.619542599E0
6.530332673E2,9.385847092E0,1.472184181E0,2.619542599E0
6.535332673E2,9.375079155E0,1.470987678E0,2.620738983E0
6.540332673E2,9.385847092E0,1.476969719E0,2.635694027E0
6.545332673E2,9.375079155E0,1.476969719E0,2.638685226E0
6.550332673E2,9.371489525E0,1.470987678E0,2.633301258E0
6.555332673E2,9.373284340E0,1.478764415E0,2.657827854E0
6.560332673E2,9.376873970E0,1.475175142E0,2.641676188E0
6.565332673E2,9.369096756E0,1.476969719E0,2.662613392E0
6.570332673E2,9.368498802E0,1.476969719E0,2.647658348E0
6.575332673E2,8.363512993E0,1.884347796E-1,2.915654421E0
6.580332673E2,9.636494637E0,1.486541033E0,3.247658491E0
6.585332673E2,9.086145401E0,1.373480201E0,3.674179077E0
6.590332673E2,9.323633194E0,1.304686546E0,4.530211449E0
6.595332673E2,9.002995491E0,1.569691658E0,4.804787636E0
6.600332673E2,8.488538742E0,1.030110121E0,4.841278553E0
6.605332673E2,8.336593628E0,9.798609018E-1,4.768297195E0
6.610332673E2,8.280363083E0,9.379864931E-1,5.281557560E0
6.615332673E2,8.242675781E0,9.314061999E-1,5.364708424E0
6.620332673E2,8.480163574E0,2.380260229E0,2.415554523E0
6.625332673E2,8.138587952E0,3.555734396E0,4.856233597E0
6.630332673E2,7.554739475E0,3.549752474E0,5.414359570E0
6.635332673E2,7.459624767E0,3.489931822E0,5.389832973E0
6.640332673E2,7.432106972E0,3.439682484E0,5.412564754E0
6.645332673E2,7.572685242E0,3.469592810E0,5.617151260E0
6.650332673E2,9.810572624E0,1.625923038E0,1.154536963E0
6.655332673E2,9.533005714E0,-8.135597110E-1,-1.887338877E0
6.660332673E2,9.842875481E0,-9.463613629E-1,-3.433700502E-1
6.665332673E2,9.287740707E0,-4.737788737E-1,2.991028363E-3
6.670332673E2,9.850652695E0,-6.520441920E-2,3.206382394E-1
6.675332673E2,9.794421196E0,9.696913958E-1,4.049852192E-1
6.680332673E2,9.832706451E0,1.049850941E0,-1.627119333E-1
6.685332673E2,9.784850121E0,9.918249846E-1,-7.447660565E-1
6.690332673E2,9.668798447E0,1.298704505E0,-1.101894855E0
6.695332673E2,9.668798447E0,1.341775298E0,-8.697910309E-1
6.700332673E2,9.614361763E0,1.365703583E0,-1.280758262E0
6.705332673E2,9.690931320E0,1.344766378E0,-8.171489239E-1
6.710332673E2,9.692726135E0,1.367498159E0,-7.818548083E-1
6.715332673E2,9.687940598E0,1.380060434E0,-7.591229677E-1
6.720332673E2,9.672985077E0,1.381855130E0,-8.051848412E-1
6.725332673E2,9.695717812E0,1.389631748E0,-7.579265833E-1
6.730332673E2,9.701699257E0,1.393819213E0,-7.130611539E-1
6.735332673E2,9.703494072E0,1.402194023E0,-7.016952634E-1
6.740332673E2,9.702297211E0,1.394417405E0,-7.016952634E-1
6.745332673E2,9.697511673E0,1.402194023E0,-6.831508875E-1
6.750332673E2,9.704092026E0,1.402194023E0,-6.909275651E-1
6.755332673E2,9.690931320E0,1.398604870E0,-6.681957245E-1
6.760332673E2,9.697511673E0,1.402194023E0,-6.711867452E-1
6.765332673E2,9.690931320E0,1.408176184E0,-6.604190469E-1
6.770332673E2,9.684351921E0,1.410568953E0,-6.640082598E-1
6.775332673E2,9.698708534E0,1.409970760E0,-6.568298340E-1
6.780332673E2,9.693922997E0,1.405185103E0,-6.496513486E-1
6.785332673E2,9.690931320E0,1.410568953E0,-6.478567123E-1
6.790332673E2,9.695717812E0,1.408774376E0,-6.556333899E-1
6.795332673E2,9.684351921E0,1.393819213E0,-6.795616150E-1
6.800332673E2,9.692128181E0,1.410568953E0,-6.430711150E-1
6.805332673E2,9.699306488E0,1.420140266E0,-6.556333899E-1
6.810332673E2,9.700503349E0,1.423131227E0,-6.448656917E-1
6.815332673E2,9.696913719E0,1.416550994E0,-6.496513486E-1
6.820332673E2,9.699306488E0,1.411765337E0,-6.460621357E-1
6.825332673E2,9.695717812E0,1.422533035E0,-6.592226624E-1
6.830332673E2,9.745368004E0,1.433898926E0,-5.682953596E-1
6.835332673E2,9.735796928E0,1.470987678E0,-4.354937077E-1
6.840332673E2,9.692726135E0,1.408176184E0,-1.339980662E-1
6.845332673E2,9.771091461E0,1.482353687E0,4.145565331E-1
6.850332673E2,9.754940033E0,1.470389485E0,8.488538265E-1
6.855332673E2,9.754341125E0,1.476969719E0,9.188438654E-1
6.860332673E2,9.773484230E0,1.482353687E0,8.979067206E-1
6.865332673E2,9.730413437E0,1.457827210E0,9.170492887E-1
6.870332673E2,9.746564865E0,1.467996716E0,8.805587292E-1
6.875332673E2,9.723235130E0,1.478764415E0,9.044869542E-1
6.880332673E2,9.751948357E0,1.472184181E0,8.602197170E-1
6.885332673E2,9.751948357E0,1.528415442E0,8.673982024E-1
6.890332673E2,9.678369522E0,1.467398524E0,8.787640929E-1
6.895332673E2,9.717850685E0,1.470987678E0,8.817551732E-1
6.900332673E2,9.827920914E0,1.460818172E0,8.087740541E-1
6.905332673E2,9.753145218E0,1.448255897E0,8.309076428E-1
6.910332673E2,9.735198975E0,1.499701619E0,9.966106415E-1
6.915332673E2,9.738788605E0,1.515853167E0,1.192822099E0
6.920332673E2,9.692128181E0,1.489532113E0,9.924231768E-1
6.925332673E2,9.713663101E0,1.488335729E0,1.256830096E0
6.930332673E2,9.682557106E0,1.488335729E0,1.177268744E0
6.935332673E2,9.638289452E0,1.453639746E0,1.188634634E0
6.940332673E2,9.699306488E0,1.435693622E0,1.118644595E0
6.945332673E2,9.698708534E0,1.436890006E0,1.019342422E0
6.950332673E2,9.634700775E0,1.437488198E0,9.128618240E-1
6.955332673E2,9.695717812E0,1.450050473E0,1.012762189E0
6.960332673E2,9.555138588E0,1.338784218E0,8.392825127E-1
6.965332673E2,9.644271851E0,1.507478237E0,7.405785918E-1
6.970332673E2,9.495916367E0,1.454836130E0,7.944171429E-1
6.975332673E2,9.613164902E0,1.499103427E0,7.334001660E-1
6.980332673E2,9.641879082E0,1.494317770E0,6.616154313E-1
6.985332673E2,9.664012909E0,1.534995675E0,5.102694035E-1
6.990332673E2,9.802198410E0,1.687538147E0,6.203392744E-1
6.995332673E2,9.570094109E0,1.744965911E0,5.611169338E-1
7.000332673E2,9.705288887E0,1.727617979E0,6.251249313E-1
7.005332673E2,9.686145782E0,1.865205288E0,5.090730190E-1
7.010332673E2,9.650852203E0,1.759322882E0,1.405783296E-1
7.015332673E2,9.701699257E0,1.783251047E0,-3.062812984E-1
7.020332673E2,9.663414001E0,1.786840320E0,-3.559323549E-1
7.025332673E2,9.749555588E0,1.810170293E0,-2.727817893E-1
7.030332673E2,9.693922997E0,1.780260086E0,-2.931207716E-1
7.035332673E2,9.703494072E0,1.707278967E0,-1.022931710E-1
7.040332673E2,9.751948357E0,1.701895118E0,-2.231307179E-1
7.045332673E2,9.798010826E0,1.592423439E0,-8.614161611E-2
7.050332673E2,9.754940033E0,1.566700578E0,-1.022931710E-1
7.055332673E2,9.919445992E0,1.548754454E0,-1.100698411E-1
7.060332673E2,9.845867157E0,1.432104349E0,-1.082752272E-1
7.065332673E2,9.808777809E0,1.499701619E0,-7.298108935E-2
7.070332673E2,9.899705887E0,1.440479279E0,-8.793623000E-2
7.075332673E2,9.802796364E0,1.528415442E0,-1.316052489E-2
7.080332673E2,9.714859962E0,1.400997639E0,5.982056726E-3
7.085332673E2,9.643074989E0,1.496112347E0,-4.486542568E-2
7.090332673E2,9.708279610E0,1.415354609E0,-4.905286431E-2
7.095332673E2,9.773484230E0,1.561316729E0,-4.785645381E-2
7.100332673E2,9.801001549E0,1.640279889E0,-2.512463741E-2
7.105332673E2,9.716055870E0,1.853839397E0,-1.375873089E-1
7.110332673E2,9.810572624E0,1.838884234E0,-5.443671346E-2
7.115332673E2,9.681360245E0,1.959123492E0,5.563312769E-2
7.120332673E2,9.649057388E0,1.890329838E0,-4.127619043E-2
7.125332673E2,9.563513756E0,1.965703845E0,-5.742774159E-2
7.130332673E2,9.629914284E0,1.788036704E0,-8.135596663E-2
7.135332673E2,9.638289452E0,1.941775560E0,-1.304088384E-1
7.140332673E2,9.703494072E0,1.789831281E0,-1.782652885E-1
7.145332673E2,9.683155060E0,1.630110383E0,-2.033899166E-2
7.150332673E2,9.722636223E0,1.660618901E0,-4.426721856E-2
7.155332673E2,9.788438797E0,1.616351724E0,-1.148554832E-1
7.160332673E2,9.609575272E0,1.525424480E0,-1.387837082E-1
7.165332673E2,9.667003632E0,1.420140266E0,-1.830509305E-1
7.170332673E2,9.694520950E0,1.436890006E0,-1.758724600E-1
7.175332673E2,9.619147301E0,1.424925923E0,-1.112662554E-1
7.180332673E2,9.707083702E0,1.443470240E0,-1.256231815E-1
7.185332673E2,9.781859398E0,1.463211060E0,-1.645065546E-1
7.190332673E2,9.793225288E0,1.453639746E0,-1.016949639E-1
7.195332673E2,9.818947792E0,1.487139225E0,-1.082752272E-1
7.200332673E2,9.858428955E0,1.475773335E0,-7.776673883E-2
7.205332673E2,9.842277527E0,1.427318692E0,-7.178468257E-2
7.210332673E2,9.743574142E0,1.475773335E0,1.369891018E-1
7.215332673E2,9.863214493E0,1.430907965E0,1.226321608E-1
7.220332673E2,9.828518867E0,1.489532113E0,2.404786795E-1
7.225332673E2,9.824930191E0,1.505683661E0,2.548356056E-1
7.230332673E2,9.787840843E0,1.480558991E0,2.985046208E-1
7.235332673E2,9.792626381E0,1.443470240E0,2.793620527E-1
7.240332673E2,9.811769485E0,1.499701619E0,2.727817893E-1
7.245332673E2,9.908080101E0,1.469193101E0,3.972085714E-1
7.250332673E2,9.739984512E0,1.470389485E0,3.445664644E-1
7.255332673E2,9.698708534E0,1.582852125E0,4.259224236E-1
7.260332673E2,9.649655342E0,1.432104349E0,3.589234054E-1
7.265332673E2,9.673583984E0,1.530210137E0,3.559323549E-1
7.270332673E2,9.757930756E0,1.435693622E0,4.085744619E-1
7.275332673E2,9.689735413E0,1.599601984E0,4.342973232E-1
7.280332673E2,9.718449593E0,1.523031592E0,4.510470629E-1
7.285332673E2,9.572486877E0,1.479960799E0,3.744767308E-1
7.290332673E2,9.728020668E0,1.525424480E0,3.732803464E-1
7.295332673E2,9.720842361E0,1.517049551E0,4.624129832E-1
7.300332673E2,9.722636223E0,1.502692580E0,4.755735099E-1
7.305332673E2,9.724431038E0,1.478764415E0,4.965106845E-1
7.310332673E2,9.750154495E0,1.496710539E0,4.845465720E-1
7.315332673E2,9.657432556E0,1.506281853E0,5.054838061E-1
7.320332673E2,9.796216011E0,1.537388563E0,4.977070987E-1
7.325332673E2,9.831509590E0,1.523629785E0,4.671986103E-1
7.330332673E2,9.692726135E0,1.479960799E0,4.133601189E-1
7.335332673E2,9.641280174E0,1.445264935E0,4.366901219E-1
7.340332673E2,9.710074425E0,1.473978758E0,4.534398913E-1
7.345332673E2,9.619147301E0,1.477568030E0,3.445664644E-1
7.350332673E2,9.703494072E0,1.445264935E0,2.572284341E-1
7.355332673E2,9.811769485E0,1.466202021E0,2.979064286E-1
7.360332673E2,9.732208252E0,1.481755376E0,3.242274821E-1
7.365332673E2,9.768698692E0,1.446461320E0,2.662015259E-1
7.370332673E2,9.728020668E0,1.518844128E0,2.231307179E-1
7.375332673E2,9.788438797E0,1.429113269E0,4.055834413E-1
7.380332673E2,9.780662537E0,1.491924882E0,2.452643216E-1
7.385332673E2,9.616155624E0,1.415354609E0,5.180460811E-1
7.390332673E2,9.626923561E0,1.185045362E0,2.697907388E-1
7.395332673E2,9.735796928E0,1.210768223E0,-2.219343036E-1
7.400332673E2,9.740582466E0,1.457827210E0,5.587241054E-1
7.405332673E2,9.521639824E0,1.560120344E0,1.070788130E-1
7.410332673E2,9.761520386E0,1.504487276E0,7.082754970E-1
7.415332673E2,9.682557106E0,1.441675663E0,1.166501045E-1
7.420332673E2,9.736993790E0,1.445264935E0,-4.007977992E-2
7.425332673E2,9.761520386E0,1.499103427E0,5.982056726E-3
7.430332673E2,9.728020668E0,1.367498159E0,3.050848842E-2
7.435332673E2,9.716654778E0,1.363908887E0,-3.469592705E-2
7.440332673E2,9.695717812E0,1.414756417E0,9.930214286E-2
7.445332673E2,9.751350403E0,1.054636598E0,1.435693540E-2
7.450332673E2,9.772287369E0,1.313061476E0,1.561316848E-1
7.455332673E2,9.716055870E0,1.131206870E0,6.879365444E-2
7.460332673E2,9.798010826E0,1.145563841E0,1.292124242E-1
7.465332673E2,9.764511108E0,1.049850941E0,8.255238086E-2
7.470332673E2,9.854840279E0,1.001994491E0,8.315058798E-2
7.475332673E2,9.839286804E0,8.871390224E-1,2.033899166E-2
7.480332673E2,9.955338478E0,9.349954724E-1,1.112662554E-1
7.485332673E2,9.852447510E0,9.523434043E-1,9.870393574E-2
7.490332673E2,9.743574142E0,1.101894855E0,1.501496136E-1
7.495332673E2,9.707083702E0,1.109073281E0,1.782652885E-1
7.500332673E2,9.746564865E0,1.223928809E0,1.782652885E-1
7.505332673E2,9.626923561E0,1.280758262E0,1.627119333E-1
7.510332673E2,9.829715729E0,1.305284739E0,1.591227055E-1
7.515332673E2,9.680164337E0,1.365703583E0,1.591227055E-1
7.520332673E2,9.577272415E0,1.386042476E0,2.374876440E-1
7.525332673E2,9.560523033E0,1.463211060E0,1.896311939E-1
7.530332673E2,9.529416084E0,1.638485312E0,2.315055877E-1
7.535332673E2,9.700503349E0,1.349551916E0,1.184447184E-1
7.540332673E2,9.815358162E0,1.582852125E0,-3.649054468E-2
7.545332673E2,9.683155060E0,1.290927768E0,-5.551348329E-1
7.550332673E2,9.692726135E0,1.433898926E0,-5.102694035E-1
7.555332673E2,9.640084267E0,1.365703583E0,-4.845465720E-1
7.560332673E2,9.730413437E0,1.461416483E0,-5.216353536E-1
7.565332673E2,9.745368004E0,1.410568953E0,-5.371887088E-1
7.570332673E2,9.661021233E0,1.460818172E0,-5.300102234E-1
7.575332673E2,9.613164902E0,1.531406522E0,-5.826523304E-1
7.580332673E2,9.778269768E0,1.470389485E0,-7.118647099E-1
7.585332673E2,9.208778381E0,9.266205430E-1,-1.116850019E0
7.590332673E2,9.561718941E0,1.346560955E0,-8.793623447E-1
7.595332673E2,9.627521515E0,1.456032634E0,-5.341976285E-1
7.600332673E2,9.707083702E0,1.427318692E0,-7.782655358E-1
7.605332673E2,9.623932838E0,1.499103427E0,-6.352944374E-1
7.610332673E2,9.707083702E0,1.363908887E0,-7.531409264E-1
7.615332673E2,9.561718941E0,1.400997639E0,-9.942178130E-1
7.620332673E2,9.677771568E0,1.357328653E0,-9.876375198E-1
7.625332673E2,9.656235695E0,1.400997639E0,-9.846464992E-1
7.630332673E2,9.663414001E0,1.412961721E0,-9.696913958E-1
7.635332673E2,9.611370087E0,1.396211982E0,-1.051645517E0
7.640332673E2,9.665806770E0,1.381256819E0,-1.059422255E0
7.645332673E2,9.604789734E0,1.396211982E0,-1.345962763E0
7.650332673E2,9.677771568E0,1.384247899E0,-1.346560955E0
7.655332673E2,9.643074989E0,1.405185103E0,-1.336391449E0
7.660332673E2,9.627521515E0,1.386640668E0,-1.416550994E0
7.665332673E2,9.604789734E0,1.299900889E0,-1.570888042E0
7.670332673E2,9.598808289E0,1.386640668E0,-1.984248161E0
7.675332673E2,9.527023315E0,1.349551916E0,-2.042274237E0
7.680332673E2,9.553344727E0,1.380060434E0,-2.006979942E0
7.685332673E2,9.568299294E0,1.343569875E0,-1.960918188E0
7.690332673E2,9.614361763E0,1.355534077E0,-1.993819475E0
7.695332673E2,9.577272415E0,1.360917926E0,-2.011765718E0
7.700332673E2,9.535996437E0,1.330409408E0,-1.920838356E0
7.705332673E2,9.533005714E0,1.392622828E0,-1.688136339E0
7.710332673E2,9.679565430E0,1.456630826E0,-1.360917926E0
7.715332673E2,9.625128746E0,1.386042476E0,-1.356132269E0
7.720332673E2,9.636494637E0,1.459621787E0,-1.360917926E0
7.725332673E2,9.707083702E0,1.432702541E0,-1.246062398E0
7.730332673E2,9.640084267E0,1.419542074E0,-1.299900889E0
7.735332673E2,9.670592308E0,1.429113269E0,-1.274178028E0
7.740332673E2,9.646664619E0,1.432104349E0,-1.257428288E0
7.745332673E2,9.636494637E0,1.436890006E0,-1.269392371E0
7.750332673E2,9.601201057E0,1.389033556E0,-1.275972724E0
7.755332673E2,9.661021233E0,1.465603828E0,-1.025324464E0
7.760332673E2,9.705288887E0,1.438684583E0,-9.828519225E-1
7.765332673E2,9.673583984E0,1.378265858E0,-9.966106415E-1
7.770332673E2,9.646664619E0,1.367498159E0,-1.078564763E0
7.775332673E2,9.668199539E0,1.480558991E0,-1.351944804E-1
7.780332673E2,9.652647018E0,1.447059512E0,1.082752228E0
7.785332673E2,9.652647018E0,1.453041553E0,1.014556766E0
7.790332673E2,9.605986595E0,1.470987678E0,7.214360237E-1
7.795332673E2,9.732208252E0,1.450050473E0,3.218346536E-1
7.800332673E2,9.717850685E0,1.454836130E0,2.662015259E-1
7.805332673E2,9.698708534E0,1.446461320E0,2.404786795E-1
7.810332673E2,9.684949875E0,1.437488198E0,2.775674164E-1
7.815332673E2,9.684351921E0,1.432104349E0,3.553341627E-1
7.820332673E2,9.697511673E0,1.360917926E0,-3.894318938E-1
7.825332673E2,9.707083702E0,1.408774376E0,-4.199403822E-1
7.830332673E2,9.737591743E0,1.433898926E0,-1.794616925E-3
7.835332673E2,9.692128181E0,1.434497118E0,1.040877849E-1
7.840332673E2,9.668798447E0,1.440479279E0,2.153540403E-1
7.845332673E2,9.749555588E0,1.480558991E0,1.639083475E-1
7.850332673E2,9.617950439E0,1.439282775E0,-3.349951655E-2
7.855332673E2,9.769296646E0,1.427916884E0,1.788634956E-1
7.860332673E2,9.756733894E0,1.470987678E0,2.889333367E-1
7.865332673E2,9.713065147E0,1.442273855E0,3.463610709E-1
7.870332673E2,9.704092026E0,1.429711580E0,3.122633696E-1
7.875332673E2,9.680164337E0,1.475773335E0,4.199403822E-1
7.880332673E2,9.707083702E0,1.462612867E0,4.402793646E-1
7.885332673E2,9.696913719E0,1.479960799E0,3.553341627E-1
7.890332673E2,9.725627899E0,1.475175142E0,3.349951804E-1
7.895332673E2,9.707083702E0,1.484746456E0,3.505485058E-1
7.900332673E2,9.731011391E0,1.472184181E0,3.672982752E-1
7.905332673E2,9.716055870E0,1.466202021E0,3.888336718E-1
7.910332673E2,9.693922997E0,1.464407444E0,3.571287692E-1
7.915332673E2,9.699306488E0,1.464407444E0,3.672982752E-1
7.920332673E2,9.703494072E0,1.484746456E0,3.696911037E-1
7.925332673E2,9.702297211E0,1.454836130E0,3.625126183E-1
7.930332673E2,9.699306488E0,1.487139225E0,3.655036688E-1
7.935332673E2,9.697511673E0,1.483550072E0,3.702892959E-1
7.940332673E2,9.726225853E0,1.483550072E0,3.702892959E-1
7.945332673E2,9.718449593E0,1.470389485E0,3.649054468E-1
7.950332673E2,9.713663101E0,1.481755376E0,3.714857101E-1
7.955332673E2,9.708279610E0,1.475773335E0,3.732803464E-1
7.960332673E2,9.720842361E0,1.477568030E0,3.696911037E-1
7.965332673E2,9.714859962E0,1.472782373E0,3.744767308E-1
7.970332673E2,9.708279610E0,1.473978758E0,3.792623878E-1
7.975332673E2,9.716654778E0,1.477568030E0,3.720839322E-1
7.980332673E2,9.708279610E0,1.466202021E0,3.720839322E-1
7.985332673E2,9.716654778E0,1.472782373E0,3.816552162E-1
7.990332673E2,9.699306488E0,1.470987678E0,3.768695593E-1
7.995332673E2,9.742377281E0,1.496112347E0,3.816552162E-1
8.000332673E2,9.718449593E0,1.496112347E0,3.810569942E-1
8.005332673E2,9.711270332E0,1.459621787E0,3.906283081E-1
8.010332673E2,9.706484795E0,1.442273855E0,3.523431420E-1
8.015332673E2,9.668798447E0,1.457827210E0,5.150550604E-1
8.020332673E2,9.723235130E0,1.464407444E0,4.438686073E-1
8.025332673E2,9.704092026E0,1.475773335E0,4.336991012E-1
8.030332673E2,9.708279610E0,1.460818172E0,4.612165689E-1
8.035332673E2,9.732806206E0,1.481755376E0,4.630111754E-1
8.040332673E2,9.711869240E0,1.472782373E0,4.630111754E-1
8.045332673E2,9.730413437E0,1.475773335E0,4.372883439E-1
8.050332673E2,9.707083702E0,1.472184181E0,4.654040039E-1
8.055332673E2,9.694520950E0,1.467398524E0,4.833501875E-1
8.060332673E2,9.704092026E0,1.472782373E0,4.749752879E-1
8.065332673E2,9.714859962E0,1.472184181E0,4.899304509E-1
8.070332673E2,9.702297211E0,1.467996716E0,4.917250574E-1
8.075332673E2,9.702297211E0,1.475175142E0,5.036891699E-1
8.080332673E2,9.708279610E0,1.475175142E0,4.965106845E-1
8.085332673E2,9.708279610E0,1.473978758E0,5.036891699E-1
8.090332673E2,9.705288887E0,1.470389485E0,4.995017350E-1
8.095332673E2,9.707083702E0,1.478764415E0,4.947160780E-1
8.100332673E2,9.703494072E0,1.475175142E0,5.060819983E-1
8.105332673E2,9.708279610E0,1.472782373E0,4.965106845E-1
8.110332673E2,9.708279610E0,1.475773335E0,5.024927258E-1
8.115332673E2,9.713065147E0,1.475773335E0,4.863412082E-1
8.120332673E2,9.705288887E0,1.467996716E0,4.630111754E-1
8.125332673E2,9.716654778E0,1.475175142E0,4.654040039E-1
8.130332673E2,9.723235130E0,1.472184181E0,4.701896608E-1
8.135332673E2,9.720842361E0,1.470987678E0,4.630111754E-1
8.140332673E2,9.710074425E0,1.480558991E0,4.833501875E-1
8.145332673E2,9.714859962E0,1.469193101E0,4.773681164E-1
8.150332673E2,9.708877563E0,1.480558991E0,5.252245665E-1
8.155332673E2,9.699306488E0,1.467996716E0,4.893322289E-1
8.160332673E2,9.708279610E0,1.467398524E0,4.911268353E-1
8.165332673E2,9.713065147E0,1.470987678E0,4.863412082E-1
8.170332673E2,9.701699257E0,1.467398524E0,4.947160780E-1
8.175332673E2,9.710074425E0,1.484746456E0,4.965106845E-1
8.180332673E2,9.703494072E0,1.467996716E0,4.947160780E-1
8.185332673E2,9.705288887E0,1.475175142E0,4.881358147E-1
8.190332673E2,9.713065147E0,1.472184181E0,4.881358147E-1
8.195332673E2,9.701699257E0,1.470389485E0,5.012963414E-1
8.200332673E2,9.711270332E0,1.465603828E0,4.863412082E-1
8.205332673E2,9.698708534E0,1.473978758E0,4.893322289E-1
8.210332673E2,9.710074425E0,1.475175142E0,4.899304509E-1
8.215332673E2,9.700503349E0,1.470987678E0,4.917250574E-1
8.220332673E2,9.705288887E0,1.472184181E0,5.006981492E-1
8.225332673E2,9.708279610E0,1.478764415E0,4.845465720E-1
8.230332673E2,9.708877563E0,1.466202021E0,4.881358147E-1
8.235332673E2,9.707083702E0,1.475773335E0,4.749752879E-1
8.240332673E2,9.708877563E0,1.466202021E0,4.660021961E-1
8.245332673E2,9.704092026E0,1.472184181E0,4.773681164E-1
8.250332673E2,9.695717812E0,1.465603828E0,4.815555513E-1
8.255332673E2,9.710074425E0,1.475773335E0,4.833501875E-1
8.260332673E2,9.713065147E0,1.466202021E0,4.725824594E-1
8.265332673E2,9.711869240E0,1.470389485E0,4.797609448E-1
8.270332673E2,9.706484795E0,1.464407444E0,4.881358147E-1
8.275332673E2,9.706484795E0,1.465603828E0,4.917250574E-1
8.280332673E2,9.705288887E0,1.466202021E0,4.815555513E-1
8.285332673E2,9.711270332E0,1.470389485E0,4.851447940E-1
8.290332673E2,9.707083702E0,1.472184181E0,4.845465720E-1
8.295332673E2,9.710074425E0,1.473978758E0,4.965106845E-1
8.300332673E2,9.711869240E0,1.472184181E0,4.893322289E-1
8.305332673E2,9.711270332E0,1.472782373E0,4.893322289E-1
8.310332673E2,9.710074425E0,1.472184181E0,4.881358147E-1
8.315332673E2,9.705288887E0,1.472782373E0,4.977070987E-1
8.320332673E2,9.708279610E0,1.470987678E0,4.899304509E-1
8.325332673E2,9.711869240E0,1.467996716E0,4.851447940E-1
8.330332673E2,9.704092026E0,1.470987678E0,4.881358147E-1
8.335332673E2,9.717850685E0,1.469193101E0,4.917250574E-1
8.340332673E2,9.705288887E0,1.472782373E0,5.036891699E-1
8.345332673E2,9.707083702E0,1.467398524E0,4.977070987E-1
8.350332673E2,9.708279610E0,1.470987678E0,4.977070987E-1
8.355332673E2,9.711869240E0,1.467996716E0,5.036891699E-1
8.360332673E2,9.708877563E0,1.469193101E0,4.977070987E-1
8.365332673E2,9.700503349E0,1.475175142E0,4.965106845E-1
8.370332673E2,9.700503349E0,1.470987678E0,4.989035130E-1
8.375332673E2,9.713663101E0,1.470389485E0,4.947160780E-1
8.380332673E2,9.716654778E0,1.476969719E0,5.024927258E-1
8.385332673E2,9.713663101E0,1.473978758E0,5.060819983E-1
8.390332673E2,9.713065147E0,1.467996716E0,4.965106845E-1
8.395332673E2,9.708279610E0,1.470987678E0,4.947160780E-1
8.400332673E2,9.706484795E0,1.475175142E0,4.917250574E-1
8.405332673E2,9.706484795E0,1.472782373E0,4.989035130E-1
8.410332673E2,9.714859962E0,1.472184181E0,5.006981492E-1
8.415332673E2,9.708877563E0,1.472184181E0,5.024927258E-1
8.420332673E2,9.711869240E0,1.472782373E0,4.977070987E-1
8.425332673E2,9.708877563E0,1.475175142E0,5.024927258E-1
8.430332673E2,9.713065147E0,1.472782373E0,4.863412082E-1
8.435332673E2,9.708279610E0,1.466202021E0,4.965106845E-1
8.440332673E2,9.706484795E0,1.470389485E0,4.947160780E-1
8.445332673E2,9.716654778E0,1.465603828E0,4.881358147E-1
8.450332673E2,9.717850685E0,1.473978758E0,4.941178858E-1
8.455332673E2,9.708279610E0,1.479960799E0,4.917250574E-1
8.460332673E2,9.704092026E0,1.472184181E0,4.707878530E-1
8.465332673E2,9.713663101E0,1.475175142E0,4.965106845E-1
8.470332673E2,9.710074425E0,1.472782373E0,4.977070987E-1
8.475332673E2,9.702297211E0,1.470389485E0,4.959124923E-1
8.480332673E2,9.705288887E0,1.475175142E0,4.995017350E-1
8.485332673E2,9.705288887E0,1.465603828E0,4.851447940E-1
8.490332673E2,9.725627899E0,1.469193101E0,4.929214716E-1
8.495332673E2,9.698708534E0,1.467996716E0,4.965106845E-1
8.500332673E2,9.705288887E0,1.473978758E0,4.995017350E-1
8.505332673E2,9.701699257E0,1.467398524E0,4.947160780E-1
8.510332673E2,9.711869240E0,1.470987678E0,4.995017350E-1
8.515332673E2,9.707083702E0,1.467996716E0,4.803591371E-1
8.520332673E2,9.713065147E0,1.472782373E0,4.558327198E-1
8.525332673E2,9.759127617E0,1.443470240E0,4.468596280E-1
8.530332673E2,9.714859962E0,1.467398524E0,5.503492355E-1
8.535332673E2,9.708877563E0,1.466202021E0,4.677968323E-1
8.540332673E2,9.711869240E0,1.467398524E0,4.719842672E-1
8.545332673E2,9.713663101E0,1.475773335E0,4.624129832E-1
8.550332673E2,9.706484795E0,1.470987678E0,4.372883439E-1
8.555332673E2,9.714859962E0,1.472782373E0,4.660021961E-1
8.560332673E2,9.687940598E0,1.473978758E0,4.271188378E-1
8.565332673E2,9.706484795E0,1.467398524E0,4.450650215E-1
8.570332673E2,9.710074425E0,1.475773335E0,4.414757788E-1
8.575332673E2,9.711270332E0,1.472782373E0,4.247260094E-1
8.580332673E2,9.721440315E0,1.475175142E0,4.079762697E-1
8.585332673E2,9.713663101E0,1.475175142E0,3.780659735E-1
8.590332673E2,9.705288887E0,1.481755376E0,2.554338276E-1
8.595332673E2,9.777072906E0,1.440479279E0,1.322034448E-1
8.600332673E2,9.711869240E0,1.476969719E0,2.093719840E-1
8.605332673E2,9.713065147E0,1.475773335E0,2.135594189E-1
8.610332673E2,9.711270332E0,1.479960799E0,2.267199457E-1
8.615332673E2,9.721440315E0,1.481755376E0,2.087737769E-1
8.620332673E2,9.713065147E0,1.478764415E0,2.105683982E-1
8.625332673E2,9.722636223E0,1.472782373E0,2.183450609E-1
8.630332673E2,9.714859962E0,1.487139225E0,2.045863420E-1
8.635332673E2,9.714859962E0,1.472782373E0,2.201396823E-1
8.640332673E2,9.724431038E0,1.475773335E0,2.171486616E-1
8.645332673E2,9.711869240E0,1.480558991E0,2.201396823E-1
8.650332673E2,9.718449593E0,1.470389485E0,2.315055877E-1
8.655332673E2,9.711869240E0,1.485344648E0,2.171486616E-1
8.660332673E2,9.713663101E0,1.486541033E0,2.123630047E-1
8.665332673E2,9.724431038E0,1.472782373E0,2.261217386E-1
8.670332673E2,9.717850685E0,1.480558991E0,2.333002090E-1
8.675332673E2,9.710074425E0,1.475175142E0,2.315055877E-1
8.680332673E2,9.717850685E0,1.480558991E0,2.117647976E-1
8.685332673E2,9.717850685E0,1.488335729E0,2.093719840E-1
8.690332673E2,9.706484795E0,1.470987678E0,2.410768867E-1
8.695332673E2,9.730413437E0,1.462612867E0,2.536391914E-1
8.700332673E2,9.710074425E0,1.483550072E0,2.189432681E-1
8.705332673E2,9.716654778E0,1.470987678E0,2.249253243E-1
8.710332673E2,9.711869240E0,1.480558991E0,2.165504545E-1
8.715332673E2,9.716654778E0,1.472184181E0,2.327020019E-1
8.720332673E2,9.714859962E0,1.483550072E0,2.297109663E-1
8.725332673E2,9.708877563E0,1.465603828E0,2.267199457E-1
8.730332673E2,9.706484795E0,1.472782373E0,2.297109663E-1
8.735332673E2,9.699306488E0,1.472782373E0,2.410768867E-1
8.740332673E2,9.720842361E0,1.480558991E0,2.374876440E-1
8.745332673E2,9.716055870E0,1.482353687E0,2.327020019E-1
8.750332673E2,9.708877563E0,1.473978758E0,2.392822653E-1
8.755332673E2,9.717850685E0,1.483550072E0,2.422732860E-1
8.760332673E2,9.713065147E0,1.473978758E0,2.452643216E-1
8.765332673E2,9.710074425E0,1.482353687E0,2.315055877E-1
8.770332673E2,9.708877563E0,1.473978758E0,2.267199457E-1
8.775332673E2,9.717850685E0,1.477568030E0,2.428714931E-1
8.780332673E2,9.713663101E0,1.477568030E0,2.327020019E-1
8.785332673E2,9.727422714E0,1.481755376E0,2.458625287E-1
8.790332673E2,9.716654778E0,1.479960799E0,2.404786795E-1
8.795332673E2,9.703494072E0,1.484746456E0,2.620140910E-1
8.800332673E2,9.722636223E0,1.489532113E0,2.889333367E-1
8.805332673E2,9.719645500E0,1.472782373E0,2.344966233E-1
8.810332673E2,9.711869240E0,1.473978758E0,2.452643216E-1
8.815332673E2,9.716055870E0,1.472782373E0,2.596212626E-1
8.820332673E2,9.708279610E0,1.476969719E0,2.518445849E-1
8.825332673E2,9.716654778E0,1.473978758E0,2.428714931E-1
8.830332673E2,9.725627899E0,1.472184181E0,2.602194548E-1
8.835332673E2,9.713065147E0,1.478764415E0,2.548356056E-1
8.840332673E2,9.713065147E0,1.477568030E0,2.404786795E-1
8.845332673E2,9.713663101E0,1.476969719E0,2.476571500E-1
8.850332673E2,9.708877563E0,1.479960799E0,2.404786795E-1
8.855332673E2,9.738788605E0,1.466202021E0,2.500499785E-1
8.860332673E2,9.717850685E0,1.479960799E0,2.476571500E-1
8.865332673E2,9.716055870E0,1.480558991E0,2.584248483E-1
8.870332673E2,9.714859962E0,1.475175142E0,2.333002090E-1
8.875332673E2,9.726225853E0,1.480558991E0,2.470589429E-1
8.880332673E2,9.704092026E0,1.473978758E0,2.428714931E-1
8.885332673E2,9.710074425E0,1.477568030E0,2.458625287E-1
8.890332673E2,9.708279610E0,1.475175142E0,2.632105052E-1
8.895332673E2,9.718449593E0,1.480558991E0,2.518445849E-1
8.900332673E2,9.717850685E0,1.472782373E0,2.572284341E-1
8.905332673E2,9.706484795E0,1.486541033E0,2.404786795E-1
8.910332673E2,9.718449593E0,1.469193101E0,2.458625287E-1
8.915332673E2,9.722636223E0,1.475773335E0,2.536391914E-1
8.920332673E2,9.717850685E0,1.483550072E0,2.380858511E-1
8.925332673E2,9.723235130E0,1.475175142E0,2.548356056E-1
8.930332673E2,9.716055870E0,1.475175142E0,2.440679073E-1
8.935332673E2,9.720842361E0,1.488335729E0,2.506481707E-1
8.940332673E2,9.710074425E0,1.475773335E0,2.548356056E-1
8.945332673E2,9.708279610E0,1.491326690E0,2.117647976E-1
8.950332673E2,9.711270332E0,1.476969719E0,2.667997181E-1
8.955332673E2,9.711270332E0,1.476969719E0,2.697907388E-1
8.960332673E2,9.721440315E0,1.478764415E0,-3.284149170E-1
8.965332673E2,9.667003632E0,1.494915962E0,1.914258152E-1
8.970332673E2,9.723235130E0,1.463211060E0,2.889333367E-1
8.975332673E2,9.702297211E0,1.480558991E0,3.128615618E-1
8.980332673E2,9.723235130E0,1.462612867E0,3.457628787E-1
8.985332673E2,9.713065147E0,1.477568030E0,3.188436031E-1
8.990332673E2,9.794421196E0,1.448854089E0,4.606183469E-1
8.995332673E2,9.714859962E0,1.475773335E0,3.188436031E-1
9.000332673E2,9.823733330E0,1.437488198E0,3.337987661E-1
9.005332673E2,9.682557106E0,1.477568030E0,4.133601189E-1
9.010332673E2,9.744770050E0,1.460818172E0,3.876372576E-1
9.015332673E2,9.716654778E0,1.477568030E0,3.912265003E-1
9.020332673E2,9.714859962E0,1.481755376E0,1.262213886E-1
9.025332673E2,9.713663101E0,1.477568030E0,3.122633696E-1
9.030332673E2,9.719645500E0,1.470987678E0,3.110669553E-1
9.035332673E2,9.717850685E0,1.476969719E0,2.841476798E-1
9.040332673E2,9.713065147E0,1.480558991E0,2.787638307E-1
9.045332673E2,9.711270332E0,1.472782373E0,2.937189937E-1
9.050332673E2,9.711270332E0,1.472782373E0,2.614158690E-1
9.055332673E2,9.708877563E0,1.472184181E0,2.859423161E-1
9.060332673E2,9.716055870E0,1.477568030E0,2.811566591E-1
9.065332673E2,9.713065147E0,1.478764415E0,2.937189937E-1
9.070332673E2,9.720842361E0,1.472184181E0,2.949153781E-1
9.075332673E2,9.713663101E0,1.482353687E0,2.931207716E-1
9.080332673E2,9.775876999E0,1.458425403E0,2.715853751E-1
9.085332673E2,9.724431038E0,1.477568030E0,2.823530734E-1
9.090332673E2,9.719645500E0,1.470987678E0,2.757728100E-1
9.095332673E2,9.710074425E0,1.477568030E0,2.823530734E-1
9.100332673E2,9.718449593E0,1.480558991E0,2.955136001E-1
9.105332673E2,9.705288887E0,1.477568030E0,2.362912297E-1
9.110332673E2,9.717850685E0,1.479960799E0,2.787638307E-1
9.115332673E2,9.705288887E0,1.477568030E0,2.548356056E-1
9.120332673E2,9.716654778E0,1.479960799E0,2.739782035E-1
9.125332673E2,9.652647018E0,1.510469317E0,2.380858511E-1
9.130332673E2,9.722636223E0,1.465603828E0,3.176472187E-1
9.135332673E2,9.718449593E0,1.465603828E0,2.919243574E-1
9.140332673E2,9.713065147E0,1.473978758E0,2.919243574E-1
9.145332673E2,9.713663101E0,1.478764415E0,2.835494876E-1
9.150332673E2,9.706484795E0,1.489532113E0,2.979064286E-1
9.155332673E2,9.714859962E0,1.475175142E0,2.715853751E-1
9.160332673E2,9.714859962E0,1.472184181E0,1.830509305E-1
9.165332673E2,9.713065147E0,1.479960799E0,2.410768867E-1
9.170332673E2,9.713065147E0,1.478764415E0,2.997010350E-1
9.175332673E2,9.713065147E0,1.473978758E0,2.859423161E-1
9.180332673E2,9.711270332E0,1.485344648E0,2.805584669E-1
9.185332673E2,9.721440315E0,1.476969719E0,2.763710022E-1
9.190332673E2,9.713663101E0,1.481755376E0,2.709871531E-1
9.195332673E2,9.708279610E0,1.480558991E0,2.679961324E-1
9.200332673E2,9.708877563E0,1.475773335E0,2.775674164E-1
9.205332673E2,9.710074425E0,1.475773335E0,2.727817893E-1
9.210332673E2,9.711869240E0,1.476969719E0,2.835494876E-1
9.215332673E2,9.708877563E0,1.476969719E0,2.871387303E-1
9.220332673E2,9.711869240E0,1.479960799E0,3.050848842E-1
9.225332673E2,9.713065147E0,1.475175142E0,2.853440940E-1
9.230332673E2,9.711869240E0,1.477568030E0,2.793620527E-1
9.235332673E2,9.719645500E0,1.473978758E0,2.919243574E-1
9.240332673E2,9.716654778E0,1.475175142E0,2.859423161E-1
9.245332673E2,9.716654778E0,1.472782373E0,2.949153781E-1
9.250332673E2,9.711270332E0,1.480558991E0,3.044866920E-1
9.255332673E2,9.721440315E0,1.475175142E0,2.997010350E-1
9.260332673E2,9.713663101E0,1.481755376E0,2.949153781E-1
9.265332673E2,9.713065147E0,1.475773335E0,2.985046208E-1
9.270332673E2,9.711869240E0,1.478764415E0,2.554338276E-1
9.275332673E2,9.711270332E0,1.479960799E0,2.823530734E-1
9.280332673E2,9.725627899E0,1.486541033E0,2.811566591E-1
9.285332673E2,9.716654778E0,1.479960799E0,2.871387303E-1
9.290332673E2,9.646066666E0,1.486541033E0,2.793620527E-1
9.295332673E2,9.732208252E0,1.466202021E0,2.967100143E-1
9.300332673E2,9.722636223E0,1.466202021E0,2.835494876E-1
9.305332673E2,9.718449593E0,1.470389485E0,3.128615618E-1
9.310332673E2,9.708279610E0,1.472782373E0,3.122633696E-1
9.315332673E2,9.716055870E0,1.467398524E0,3.002992272E-1
9.320332673E2,9.714859962E0,1.465603828E0,3.032902777E-1
9.325332673E2,9.713065147E0,1.477568030E0,3.158525825E-1
9.330332673E2,9.716055870E0,1.476969719E0,3.140579760E-1
9.335332673E2,9.711869240E0,1.481755376E0,3.122633696E-1
9.340332673E2,9.713065147E0,1.475773335E0,3.146561682E-1
9.345332673E2,9.714859962E0,1.470987678E0,2.979064286E-1
9.350332673E2,9.722636223E0,1.472782373E0,3.092723191E-1
9.355332673E2,9.717850685E0,1.477568030E0,3.140579760E-1
9.360332673E2,9.711869240E0,1.478764415E0,3.170489967E-1
9.365332673E2,9.716055870E0,1.476969719E0,3.224328458E-1
9.370332673E2,9.717850685E0,1.477568030E0,3.170489967E-1
9.375332673E2,9.711270332E0,1.473978758E0,3.176472187E-1
9.380332673E2,9.719645500E0,1.476969719E0,3.092723191E-1
9.385332673E2,9.713065147E0,1.478764415E0,3.098705411E-1
9.390332673E2,9.720842361E0,1.478764415E0,3.218346536E-1
9.395332673E2,9.703494072E0,1.467996716E0,3.074777126E-1
9.400332673E2,9.716654778E0,1.472184181E0,2.937189937E-1
9.405332673E2,9.708877563E0,1.477568030E0,3.098705411E-1
9.410332673E2,9.704092026E0,1.472184181E0,3.140579760E-1
9.415332673E2,9.713065147E0,1.473978758E0,3.194418252E-1
9.420332673E2,9.721440315E0,1.475175142E0,3.062812984E-1
9.425332673E2,9.710074425E0,1.482353687E0,3.146561682E-1
9.430332673E2,9.716055870E0,1.475175142E0,3.176472187E-1
9.435332673E2,9.708877563E0,1.478764415E0,3.002992272E-1
9.440332673E2,9.723235130E0,1.475773335E0,2.985046208E-1
9.445332673E2,9.714859962E0,1.475773335E0,3.074777126E-1
9.450332673E2,9.716055870E0,1.478764415E0,3.188436031E-1
9.455332673E2,9.716654778E0,1.478764415E0,3.080759048E-1
9.460332673E2,9.719645500E0,1.476969719E0,3.110669553E-1
9.465332673E2,9.711270332E0,1.478764415E0,3.158525825E-1
9.470332673E2,9.711270332E0,1.477568030E0,3.014956415E-1
9.475332673E2,9.713663101E0,1.477568030E0,3.122633696E-1
9.480332673E2,9.710074425E0,1.477568030E0,3.050848842E-1
9.485332673E2,9.711869240E0,1.478764415E0,3.062812984E-1
9.490332673E2,9.713065147E0,1.470389485E0,2.883351147E-1
9.495332673E2,9.713065147E0,1.469193101E0,2.883351147E-1
9.500332673E2,9.714859962E0,1.463211060E0,2.823530734E-1
9.505332673E2,9.713065147E0,1.470389485E0,2.937189937E-1
9.510332673E2,9.711869240E0,1.473978758E0,2.931207716E-1
9.515332673E2,9.713663101E0,1.475773335E0,3.002992272E-1
9.520332673E2,9.714859962E0,1.481755376E0,2.979064286E-1
9.525332673E2,9.711869240E0,1.478764415E0,2.985046208E-1
9.530332673E2,9.721440315E0,1.469193101E0,3.128615618E-1
9.535332673E2,9.716055870E0,1.469193101E0,2.919243574E-1
9.540332673E2,9.716654778E0,1.472782373E0,2.985046208E-1
9.545332673E2,9.708279610E0,1.472782373E0,3.092723191E-1
9.550332673E2,9.720842361E0,1.475175142E0,2.883351147E-1
9.555332673E2,9.708279610E0,1.473978758E0,3.026920557E-1
9.560332673E2,9.716055870E0,1.477568030E0,2.949153781E-1
9.565332673E2,9.711869240E0,1.475175142E0,2.967100143E-1
9.570332673E2,9.716055870E0,1.467398524E0,2.931207716E-1
9.575332673E2,9.717850685E0,1.472782373E0,2.955136001E-1
9.580332673E2,9.713065147E0,1.467398524E0,2.949153781E-1
9.585332673E2,9.720842361E0,1.483550072E0,2.949153781E-1
9.590332673E2,9.713663101E0,1.477568030E0,3.014956415E-1
9.595332673E2,9.718449593E0,1.476969719E0,2.793620527E-1
9.600332673E2,9.708877563E0,1.473978758E0,2.662015259E-1
9.605332673E2,9.716055870E0,1.475175142E0,2.715853751E-1
9.610332673E2,9.706484795E0,1.472782373E0,2.805584669E-1
9.615332673E2,9.708877563E0,1.476969719E0,2.919243574E-1
9.620332673E2,9.717850685E0,1.472184181E0,2.907279432E-1
9.625332673E2,9.716654778E0,1.475175142E0,2.955136001E-1
9.630332673E2,9.719645500E0,1.486541033E0,2.949153781E-1
9.635332673E2,9.716654778E0,1.475773335E0,2.763710022E-1
9.640332673E2,9.716055870E0,1.448854089E0,2.919243574E-1
9.645332673E2,9.719645500E0,1.481755376E0,2.949153781E-1
9.650332673E2,9.711869240E0,1.490130305E0,2.931207716E-1
9.655332673E2,9.716055870E0,1.480558991E0,2.841476798E-1
9.660332673E2,9.718449593E0,1.467996716E0,2.997010350E-1
9.665332673E2,9.716654778E0,1.403390527E0,3.571287692E-1
9.670332673E2,9.745368004E0,1.475773335E0,7.399803996E-1
9.675332673E2,9.729216576E0,1.472184181E0,9.284151793E-1
9.680332673E2,9.686145782E0,1.442273855E0,1.183848977E0
9.685332673E2,9.714859962E0,1.454836130E0,1.197607756E0
9.690332673E2,9.689735413E0,1.459621787E0,1.369890928E0
9.695332673E2,9.692726135E0,1.451845169E0,1.341177106E0
9.700332673E2,9.731011391E0,1.453639746E0,1.345962763E0
9.705332673E2,9.696913719E0,1.453041553E0,1.355534077E0
9.710332673E2,9.677771568E0,1.456032634E0,1.366899967E0
9.715332673E2,9.731011391E0,1.476969719E0,1.327418327E0
9.720332673E2,9.633503914E0,1.429711580E0,1.309472203E0
9.725332673E2,9.672985077E0,1.453639746E0,1.298704505E0
9.730332673E2,9.722636223E0,1.448255897E0,1.317248821E0
9.735332673E2,9.669994354E0,1.441675663E0,1.332203984E0
9.740332673E2,9.692128181E0,1.445264935E0,1.331605792E0
9.745332673E2,9.707083702E0,1.470987678E0,1.360319614E0
9.750332673E2,9.696913719E0,1.457827210E0,1.357328653E0
9.755332673E2,9.703494072E0,1.435693622E0,1.402194023E0
9.760332673E2,9.670592308E0,1.465603828E0,1.271785259E0
9.765332673E2,9.682557106E0,1.414756417E0,1.266999602E0
9.770332673E2,9.687940598E0,1.448255897E0,1.030110121E0
9.775332673E2,9.735796928E0,1.454836130E0,1.046261668E0
9.780332673E2,9.777072906E0,1.494317770E0,1.070189953E0
9.785332673E2,9.791430473E0,1.451246977E0,1.061216831E0
9.790332673E2,9.716654778E0,1.475773335E0,8.614161611E-1
9.795332673E2,9.716055870E0,1.473978758E0,8.841479421E-1
9.800332673E2,9.680164337E0,1.333998680E0,8.518448472E-1
9.805332673E2,9.816555023E0,1.477568030E0,8.231309652E-1
9.810332673E2,9.845269203E0,1.314257860E0,8.644071817E-1
9.815332673E2,9.842875481E0,1.367498159E0,8.051848412E-1
9.820332673E2,9.749555588E0,1.322034478E0,7.668996453E-1
9.825332673E2,9.802198410E0,1.263410330E0,7.788637877E-1
9.830332673E2,9.823135376E0,1.319641709E0,8.422735929E-1
9.835332673E2,9.817152977E0,1.264606714E0,8.937192559E-1
9.840332673E2,9.722636223E0,1.277767301E0,6.059823632E-1
9.845332673E2,9.695717812E0,1.305284739E0,8.566305041E-1
9.850332673E2,9.775876999E0,1.301695466E0,6.987041831E-1
9.855332673E2,9.659226418E0,1.231705427E0,7.788637877E-1
9.860332673E2,9.670592308E0,1.351346612E0,6.765705943E-1
9.865332673E2,9.536594391E0,1.166501045E0,5.204389095E-1
9.870332673E2,9.731011391E0,1.399203062E0,7.513462901E-1
9.875332673E2,9.512067795E0,1.239482164E0,4.642075896E-1
9.880332673E2,9.805787086E0,1.440479279E0,8.841479421E-1
9.885332673E2,9.686145782E0,1.399203062E0,9.236295223E-1
9.890332673E2,9.742377281E0,1.395613790E0,6.107679605E-1
9.895332673E2,9.628718376E0,1.490130305E0,5.629115105E-1
9.900332673E2,9.616155624E0,1.278963685E0,5.826523304E-1
9.905332673E2,9.710074425E0,1.690529227E0,5.850451589E-1
9.910332673E2,9.838089943E0,1.299900889E0,8.644071817E-1
9.915332673E2,9.568299294E0,1.686341763E0,6.442674994E-1
9.920332673E2,9.674779892E0,1.298106313E0,7.657032609E-1
9.925332673E2,9.882357597E0,1.709671736E0,5.324030519E-1
9.930332673E2,1.004626560E1,1.619342685E0,1.645065546E-1
9.935332673E2,9.770493507E0,1.639681697E0,1.471585929E-1
9.940332673E2,9.663414001E0,1.676770449E0,4.366901219E-1
9.945332673E2,9.818947792E0,1.819741607E0,1.734796464E-1
9.950332673E2,1.041236782E1,1.932204247E0,-1.663011760E-1
9.955332673E2,1.005105114E1,1.648056626E0,-4.666004330E-2
9.960332673E2,9.617950439E0,1.587039590E0,-3.188436031E-1
9.965332673E2,9.898509026E0,1.865205288E0,-3.708875179E-2
9.970332673E2,9.997213364E0,1.797608018E0,-8.434699476E-2
9.975332673E2,9.620942116E0,1.633101463E0,-2.554338276E-1
9.980332673E2,9.917651176E0,1.872981906E0,-6.400800496E-2
9.985332673E2,9.936196327E0,1.618744493E0,-1.244267747E-1
9.990332673E2,9.740582466E0,1.526620865E0,5.862415582E-2
9.995332673E2,9.515059471E0,1.885544300E0,-3.433700502E-1
1.000033267E3,1.005583763E1,1.380060434E0,3.708875179E-2
1.000533267E3,9.747162819E0,1.898106575E0,-1.555334684E-2
1.001033267E3,9.526425362E0,1.470987678E0,1.974078715E-1
1.001533267E3,1.008156013E1,1.735992789E0,3.541377485E-1
1.002033267E3,1.007557774E1,1.874776483E0,1.627119333E-1
1.002533267E3,9.794421196E0,1.692323804E0,3.475574851E-1
1.003033267E3,9.909874916E0,1.751546144E0,3.505485058E-1
1.003533267E3,9.483354568E0,1.643270969E0,3.684946895E-1
1.004033267E3,9.828518867E0,1.796411633E0,4.372883439E-1
1.004533267E3,9.814162254E0,1.649253011E0,3.511467278E-1
1.005033267E3,9.960124016E0,1.769492388E0,3.553341627E-1
1.005533267E3,9.750154495E0,1.580459356E0,3.272185028E-1
1.006033267E3,9.814162254E0,1.715055585E0,2.093719840E-1
1.006533267E3,1.002772141E1,1.502692580E0,-2.273181453E-2
1.007033267E3,9.901499748E0,1.651047587E0,3.266202807E-1
1.007533267E3,9.288937569E0,1.797608018E0,1.417747438E-1
1.008033267E3,9.614361763E0,1.685743570E0,1.226321608E-1
1.008533267E3,9.815358162E0,1.714457393E0,2.213360965E-1
1.009033267E3,1.001635551E1,1.451246977E0,1.645065546E-1
1.009533267E3,9.710074425E0,1.788634896E0,2.811566591E-1
1.010033267E3,9.531210899E0,1.285543919E0,1.740778536E-1
1.010533267E3,9.753145218E0,1.674975872E0,3.541377485E-1
1.011033267E3,9.653842926E0,1.372283816E0,2.919243574E-1
1.011533267E3,9.699306488E0,1.440479279E0,4.193421602E-1
1.012033267E3,9.756135941E0,1.500898004E0,4.342973232E-1
1.012533267E3,9.747162819E0,1.314856052E0,3.942175210E-1
1.013033267E3,9.641280174E0,1.459621787E0,3.846462369E-1
1.013533267E3,9.664012909E0,1.460818172E0,4.031906128E-1
1.014033267E3,9.701699257E0,1.464407444E0,4.151547253E-1
1.014533267E3,9.738788605E0,1.493121386E0,4.277170599E-1
1.015033267E3,9.684351921E0,1.494317770E0,4.677968323E-1
1.015533267E3,9.683155060E0,1.450050473E0,5.377869010E-1
1.016033267E3,9.673583984E0,1.551745534E0,5.138586760E-1
1.016533267E3,9.840482712E0,1.359123230E0,4.947160780E-1
1.017033267E3,9.668798447E0,1.336391449E0,4.582255483E-1
1.017533267E3,9.772287369E0,1.383051515E0,4.977070987E-1
1.018033267E3,9.816555023E0,1.319641709E0,4.911268353E-1
1.018533267E3,9.775279045E0,1.464407444E0,4.677968323E-1
1.019033267E3,9.660423279E0,1.256830096E0,4.749752879E-1
1.019533267E3,9.735796928E0,1.460818172E0,5.922235847E-1
1.020033267E3,9.719645500E0,1.335195065E0,2.937189937E-1
1.020533267E3,9.555737495E0,1.345962763E0,3.044866920E-1
1.021033267E3,9.598808289E0,1.357926846E0,5.515456200E-1
1.021533267E3,9.729216576E0,1.325623751E0,5.772684813E-1
1.022033267E3,9.676574707E0,1.454836130E0,6.077769399E-1
1.022533267E3,9.613164902E0,1.290329576E0,5.946164131E-1
1.023033267E3,9.727422714E0,1.472184181E0,6.669993401E-1
1.023533267E3,9.428917885E0,1.342971683E0,6.807580590E-1
1.024033267E3,9.990633011E0,1.353141189E0,6.334998012E-1
1.024533267E3,9.810572624E0,1.445264935E0,4.989035130E-1
1.025033267E3,9.414560318E0,1.061216831E0,4.480560422E-1
1.025533267E3,9.600004196E0,1.445264935E0,-9.571290575E-3
1.026033267E3,9.731011391E0,1.271187067E0,3.475574851E-1
1.026533267E3,9.665208817E0,1.494317770E0,2.362912297E-1
1.027033267E3,9.668798447E0,9.224331379E-1,2.931207716E-1
1.027533267E3,9.641280174E0,1.575673699E0,2.697907388E-1
1.028033267E3,9.555737495E0,9.631111026E-1,2.602194548E-1
1.028533267E3,9.627521515E0,1.534397483E0,2.380858511E-1
1.029033267E3,9.485149384E0,9.792626500E-1,4.719842672E-1
1.029533267E3,9.842875481E0,1.610967875E0,3.672982752E-1
1.030033267E3,9.584450722E0,1.123430252E0,6.269195080E-1
1.030533267E3,9.619147301E0,1.400399446E0,5.635097623E-1
1.031033267E3,9.672985077E0,1.143769264E0,5.198407173E-1
1.031533267E3,9.958928108E0,1.276570916E0,6.113662124E-1
1.032033267E3,9.740582466E0,1.040279627E0,6.059823632E-1
1.032533267E3,9.908080101E0,1.070788145E0,2.805584669E-1
1.033033267E3,9.974481583E0,1.149751306E0,1.405783296E-1
1.033533267E3,9.783055305E0,1.073180914E0,8.434699476E-2
1.034033267E3,9.893125534E0,1.137787223E0,1.531406492E-1
1.034533267E3,9.727422714E0,1.062413216E0,9.391828626E-2
1.035033267E3,9.839286804E0,1.116251707E0,1.052841991E-1
1.035533267E3,9.881160736E0,1.132403374E0,8.255238086E-2
1.036033267E3,9.646664619E0,1.320838094E0,1.531406492E-1
1.036533267E3,9.530014038E0,1.277767301E0,9.750752151E-2
1.037033267E3,9.914062500E0,1.479960799E0,8.913264424E-2
1.037533267E3,9.874580383E0,1.461416483E0,4.307080805E-2
1.038033267E3,9.749555588E0,1.543968797E0,-8.135596663E-2
1.038533267E3,9.399007797E0,1.534995675E0,1.351944804E-1
1.039033267E3,9.775876999E0,1.458425403E0,-3.529413417E-2
1.039533267E3,8.915657043E0,1.198205948E0,-8.434699476E-2
1.040033267E3,9.114859581E0,1.231705427E0,-2.273181453E-2
1.040533267E3,1.098485088E1,1.630110383E0,8.117650747E-1
1.041033267E3,9.855438232E0,1.332203984E0,1.004985496E-1
1.041533267E3,9.542576790E0,1.825125456E0,-2.859423161E-1
1.042033267E3,1.048056316E1,1.441675663E0,3.948157281E-2
1.042533267E3,9.760921478E0,1.706680775E0,-1.136590764E-1
1.043033267E3,9.067003250E0,1.135394335E0,-4.965107143E-2
1.043533267E3,9.728020668E0,1.774278045E0,4.426721856E-2
1.044033267E3,9.385847092E0,1.346560955E0,-2.757728100E-1
1.044533267E3,9.548559189E0,1.332203984E0,-3.529413417E-2
1.045033267E3,9.716055870E0,1.549352646E0,-5.443671346E-2
1.045533267E3,9.625727654E0,1.432702541E0,-8.733802289E-2
1.046033267E3,9.499505997E0,1.391426325E0,-2.087737769E-1
1.046533267E3,9.595218658E0,1.335195065E0,-1.674975902E-1
1.047033267E3,9.506086349E0,1.324427366E0,-8.135596663E-2
1.047533267E3,9.622735977E0,1.327418327E0,-2.512463741E-2
1.048033267E3,9.558130264E0,1.317847013E0,-7.836493850E-2
1.048533267E3,9.911071777E0,1.460818172E0,9.571290761E-2
1.049033267E3,9.716055870E0,1.450050473E0,-4.127619043E-2
1.049533267E3,9.572486877E0,1.260419369E0,-3.529413417E-2
1.050033267E3,9.817152977E0,1.438684583E0,-1.555334684E-2
1.050533267E3,9.781859398E0,1.345962763E0,-2.093719840E-1
1.051033267E3,9.751350403E0,1.408774376E0,-1.884347796E-1
1.051533267E3,9.944570541E0,1.511067510E0,-2.679961324E-1
