"Time (s)","Gyroscope x (rad/s)","Gyroscope y (rad/s)","Gyroscope z (rad/s)"
2.760908930E-1,-4.703658819E-2,-2.779434808E-2,-3.665188793E-3
7.802508930E-1,6.765327603E-2,-2.635881603E-1,-4.292852283E-1
1.284411362E0,3.065013885E-1,-2.165057421E0,7.119628787E-1
1.788572247E0,-1.417206228E-1,-3.587303460E-1,8.399390578E-1
2.292733393E0,-1.269071549E-1,8.613193035E-2,8.552107215E-2
2.796894695E0,-5.833758786E-2,-2.518289983E-1,1.545487940E-1
3.301056310E0,4.411970973E-1,-2.214384824E-1,-1.492037177E-1
3.805218289E0,8.445205539E-2,-9.162971983E-4,-9.896009415E-2
4.309380528E0,6.261364091E-3,-3.207040206E-2,-1.302669197E-1
4.813542976E0,-4.612028971E-2,-1.857028902E-1,-2.423606068E-1
5.317705737E0,-5.574141070E-2,6.246092543E-2,3.347539008E-1
5.821868705E0,1.059850380E-1,1.821904182E-1,4.520399496E-2
6.326031778E0,-1.140789986E-1,4.169152305E-2,5.849030241E-2
6.830195216E0,1.456912458E-1,-1.120936871E-1,-1.632536054E-1
7.334358757E0,-1.188132018E-1,-1.623373181E-1,-2.591593862E-1
7.838522612E0,1.020144150E-1,3.191768527E-1,-5.476402640E-1
8.342686882E0,8.368847519E-2,2.247982323E-1,1.704312712E-1
8.846851674E0,7.437278330E-2,-2.527453005E-1,9.682206810E-2
9.351016674E0,-1.553123742E-1,-2.958112657E-1,8.287907839E-1
9.855181987E0,-1.572976820E-2,4.199695215E-2,-1.536324918E-1
1.035934766E1,-8.857538924E-3,4.444041103E-2,-6.108647957E-2
1.086351370E1,-7.147117704E-2,2.229656465E-2,4.841103405E-2
1.136768011E1,6.597339362E-2,-3.115410358E-2,7.024944760E-3
1.187184678E1,-3.726275265E-2,1.114828233E-2,1.313359290E-2
1.237601370E1,-1.649334840E-2,1.527161949E-4,6.566796452E-3
1.288018048E1,-3.359756200E-3,-9.162971750E-3,1.282816008E-2
1.338434673E1,7.941242307E-3,-1.237001177E-2,2.153298259E-2
1.388851220E1,7.024944760E-3,-3.130681813E-2,-7.254019380E-2
1.439267683E1,2.076940238E-2,8.704823442E-3,5.436696485E-2
1.489684063E1,-3.222311661E-2,9.010255337E-3,-4.535670951E-2
1.540100370E1,2.275471389E-2,-6.719512399E-3,5.177079141E-2
1.590516594E1,-6.856957078E-2,5.299251899E-2,-1.153007299E-1
1.640932756E1,1.557705179E-2,-1.420260593E-2,5.757400393E-2
1.691348850E1,1.084284950E-2,-2.703076601E-2,-5.024362728E-2
1.741764897E1,6.047561392E-2,-3.497200832E-2,9.193515033E-2
1.792180881E1,-1.634063199E-2,1.298087649E-2,-2.382372692E-2
1.842596824E1,3.054323897E-4,-4.428769462E-3,1.542433538E-2
1.893012720E1,6.414080039E-3,-4.734201822E-3,-8.857538924E-3
1.943428589E1,2.214384824E-2,-5.803215317E-3,8.399390616E-3
1.993844412E1,1.771507785E-2,-8.552107029E-3,-3.817904973E-3
2.044260194E1,6.414080039E-3,1.343902480E-2,-1.359174121E-2
2.094675933E1,1.618791744E-2,-7.330377586E-3,7.635809598E-4
2.145091631E1,-8.093958721E-3,1.817322709E-2,-7.635809947E-3
2.195507292E1,-9.621120058E-3,2.015853859E-2,-1.191186346E-2
2.245922907E1,-2.703076601E-2,2.489273995E-2,-1.175914705E-2
2.296338480E1,-1.603520103E-2,2.153298259E-2,-1.542433538E-2
2.346754011E1,-6.032289565E-2,2.855792828E-2,3.207040019E-3
2.397169542E1,3.359756246E-2,-2.794706449E-2,2.031125315E-2
2.447585131E1,-2.000582218E-2,-1.069013379E-3,-6.566796452E-3
2.498000803E1,-2.886336111E-2,-7.024945319E-2,1.313359290E-2
2.548416537E1,-1.343902480E-2,1.725693047E-2,5.192350596E-3
2.598832339E1,-1.007926930E-2,-2.092211880E-2,6.139190868E-2
2.649248194E1,2.519817278E-2,-2.962694131E-2,2.244928107E-2
2.699664089E1,-1.527161989E-2,2.901607659E-3,-3.191768378E-2
2.750080016E1,3.390299529E-2,-6.719512399E-3,2.260199748E-2
2.800495980E1,-2.183841541E-2,2.061668597E-2,-3.115410358E-2
2.850911959E1,9.010255337E-3,-1.618791744E-2,3.817904973E-3
2.901327959E1,1.603520103E-2,-6.108647678E-3,-5.039634649E-3
2.951743964E1,6.811141968E-2,-2.657261863E-2,6.902772188E-2
3.002159970E1,-3.237583488E-2,2.657261863E-2,-4.352411628E-2
3.052575959E1,-5.345067009E-3,-1.404988952E-2,4.886918236E-3
3.102991944E1,-1.970038936E-2,3.054323897E-4,2.138026757E-3
3.153407923E1,-1.466075517E-2,-2.703076601E-2,-1.664606482E-2
3.203823902E1,1.970038936E-2,-6.566796452E-3,2.244928107E-2
3.254239860E1,-3.054323897E-4,-8.704823442E-3,-9.621120058E-3
3.304655808E1,2.076940238E-2,-1.832594397E-3,1.664606482E-2
3.355071746E1,7.330377586E-3,-1.114828233E-2,1.679878100E-3
3.405487662E1,1.817322709E-2,5.650499370E-3,4.886918236E-3
3.455903574E1,8.552107029E-3,-1.007926930E-2,-5.955931731E-3
3.506319490E1,1.007926930E-2,1.069013379E-3,-3.512472380E-3
3.556735412E1,7.024944760E-3,-2.138026757E-3,-7.024944760E-3
3.607151339E1,1.725693047E-2,6.261364091E-3,4.123337101E-3
3.657567261E1,1.572976820E-2,7.635809947E-3,6.108647794E-4
3.707983183E1,5.803215317E-3,3.054323839E-3,-1.572976820E-2
3.758399100E1,1.023198478E-2,8.857538924E-3,-2.596175298E-3
3.808816006E1,1.603520103E-2,-9.621120058E-3,6.414080039E-3
3.859230886E1,3.512472380E-3,-4.734201822E-3,-9.315688163E-3
3.909646772E1,-2.290742937E-3,-1.695149764E-2,-1.954767294E-2
3.960062652E1,2.351829410E-2,-1.389717404E-2,1.237001177E-2
4.010478516E1,-1.985310577E-3,-6.108647794E-4,-2.260199748E-2
4.060894347E1,2.031125315E-2,-1.878409274E-2,9.621120058E-3
4.111310196E1,1.542433538E-2,-9.926552884E-3,-1.527161949E-4
4.161726045E1,-3.054323897E-4,-7.941242307E-3,-1.038470119E-2
4.212141900E1,7.024944760E-3,-9.468403645E-3,-3.054323839E-3
4.262557754E1,1.404988952E-2,-1.069013379E-3,3.054323839E-3
4.312973624E1,4.123337101E-3,-6.414080039E-3,-9.621120058E-3
4.363389493E1,1.710421406E-2,-1.130099874E-2,8.246674202E-3
4.413805363E1,1.679878100E-3,-9.162971983E-4,-1.664606482E-2
4.464221233E1,1.084284950E-2,-1.481347065E-2,6.108647794E-4
4.514637097E1,1.053741761E-2,-2.290742937E-3,-3.207040019E-3
4.565052967E1,1.756236330E-2,-7.483093534E-3,9.162971750E-3
4.615468853E1,1.282816008E-2,2.138026757E-3,-1.420260593E-2
4.665884754E1,7.177661173E-3,-3.207040019E-3,4.734201822E-3
4.716300665E1,-2.138026757E-3,5.497782957E-3,-1.634063199E-2
4.766716571E1,1.069013402E-2,6.108647678E-3,1.679878100E-3
4.817132478E1,9.315688163E-3,-1.160643063E-2,-9.162971750E-3
4.867548374E1,2.229656465E-2,-7.330377586E-3,1.786779426E-2
4.917964264E1,-3.665188793E-3,2.321286127E-2,-3.955349326E-2
4.968380150E1,1.420260593E-2,-7.330377586E-3,1.649334840E-2
5.018796035E1,1.175914705E-2,-2.428187430E-2,-4.428769462E-3
5.069211905E1,-2.122755162E-2,5.955931731E-3,-7.987056673E-2
5.119627780E1,3.497200832E-2,-2.474002354E-2,3.252854943E-2
5.170043655E1,2.306014486E-2,-6.261363626E-2,1.359174121E-2
5.220459524E1,3.634645417E-2,-5.345067009E-3,1.282816008E-2
5.270875394E1,2.367101051E-2,2.367101051E-2,1.175914705E-2
5.321291269E1,-3.207040019E-3,-1.145371422E-2,-2.428187430E-2
5.371707155E1,7.635809947E-3,-2.596175298E-3,-2.153298259E-2
5.422123045E1,-1.191186346E-2,1.603520103E-2,-2.535088919E-2
5.472538936E1,1.924224012E-2,-2.596175298E-3,7.941242307E-3
5.522954816E1,1.878409274E-2,1.649334840E-2,5.955931731E-3
5.573370691E1,1.924224012E-2,5.009091273E-2,-1.985310577E-2
5.623786582E1,1.084284950E-2,-1.206457894E-2,2.229656465E-2
5.674202504E1,1.664606482E-2,-5.650499370E-3,5.070177838E-2
5.724618457E1,-2.641990222E-2,3.084867075E-2,-8.720094711E-2
5.775034441E1,2.657261863E-2,-1.374445762E-2,4.276053514E-3
5.825450462E1,8.857538924E-3,9.468403645E-3,-1.404988952E-2
5.875866514E1,3.054323979E-2,-1.527161989E-2,2.932151034E-2
5.926282566E1,1.954767294E-2,-9.926552884E-3,2.382372692E-2
5.976698613E1,-1.374445762E-2,-9.162971983E-4,-4.153880477E-2
6.027114650E1,3.680460155E-2,-1.527161989E-2,7.803797722E-2
6.077530676E1,-5.314523727E-2,9.728021920E-2,-9.392046183E-2
6.127946702E1,6.185005978E-2,1.655443609E-1,-1.924224012E-2
6.178362728E1,-4.581485689E-2,1.863137633E-2,-6.582067907E-2
6.228778754E1,-4.001164436E-2,-9.132428467E-2,3.283398226E-2
6.279194780E1,-4.749473557E-2,1.690568328E-1,-7.101303339E-2
6.329610806E1,-3.008509055E-2,1.206457894E-2,-4.260781780E-2
6.380026806E1,5.757400393E-2,-2.932151034E-2,1.081230640E-1
6.430442774E1,2.596175298E-3,4.657844082E-2,9.162971750E-3
6.480858702E1,1.069013379E-3,2.565632015E-2,-2.580903657E-2
6.531274592E1,-1.374445739E-3,1.099556591E-2,3.573558852E-2
6.581690457E1,1.374445739E-3,-4.886918236E-3,-1.328630932E-2
6.632106274E1,-2.535088919E-2,4.871646687E-2,3.268126398E-2
6.682522045E1,2.046396956E-2,4.734201822E-3,6.841685623E-2
6.732937759E1,1.389717404E-2,9.773836471E-3,-4.062250629E-2
6.783353415E1,3.207040019E-3,-8.399390616E-3,2.565632015E-2
6.833769019E1,3.207040019E-3,8.704823442E-3,-3.145953640E-2
6.884184587E1,1.069013379E-3,-4.581485875E-3,2.718348242E-2
6.934600129E1,-3.970621154E-3,2.443459118E-3,-2.153298259E-2
6.985015650E1,-1.527161949E-4,-1.832594397E-3,1.099556591E-2
7.035431134E1,3.817904973E-3,4.886918236E-3,-1.908952370E-2
7.085846592E1,-1.527161949E-4,-2.138026757E-3,3.023780696E-2
7.136262035E1,1.374445739E-3,1.053741761E-2,-2.626718581E-2
7.186677462E1,-2.687804960E-2,3.665188793E-3,5.497782957E-3
7.237092868E1,-2.290742844E-2,1.802051067E-2,-2.840521187E-2
7.287508254E1,-3.787361458E-2,-3.207040206E-2,1.878409274E-2
7.337923618E1,-1.359174121E-2,2.321286127E-2,-2.290742844E-2
7.388338967E1,-2.901607752E-2,1.175914705E-2,4.428769462E-3
7.438754301E1,-2.657261863E-2,5.039634649E-3,1.114828233E-2
7.489169624E1,-2.397644334E-2,-3.054323897E-4,-6.872228812E-3
7.539584941E1,-2.107483521E-2,6.108647678E-3,-2.443459118E-3
7.590000301E1,-3.344484791E-2,9.162971983E-4,9.162971983E-4
7.640415743E1,-2.229656465E-2,2.748891478E-3,-1.221729559E-3
7.690831269E1,-2.916879393E-2,-2.977965772E-2,-3.955349326E-2
7.741246879E1,-2.794706449E-2,3.970621154E-2,2.916879393E-2
7.791662587E1,-4.627300799E-2,-2.825249545E-2,-4.550942779E-2
7.842078384E1,4.413498193E-2,4.673115537E-2,-6.872228533E-2
7.892494264E1,7.941242307E-3,4.245510325E-2,-4.841103405E-2
7.942910202E1,-2.367101051E-2,1.771507785E-2,-1.374445739E-3
7.993326170E1,-2.794706449E-2,2.901607659E-3,5.803215317E-3
8.043742165E1,-2.993237413E-2,-2.290742937E-3,9.621120058E-3
8.094158186E1,-2.748891478E-3,-2.962694131E-2,1.792888194E-1
8.144574254E1,-3.145953640E-2,4.108065739E-2,-4.780016840E-2
8.194990436E1,-2.061668597E-2,-5.467239767E-2,-2.031125315E-2
8.245406785E1,-5.177079141E-2,7.727439702E-2,-4.123337194E-2
8.295823337E1,-2.046396956E-2,0.000000000E0,-3.130681813E-2
8.346240108E1,-3.375028074E-2,6.108647678E-3,-2.443459118E-3
8.396657092E1,-2.871064469E-2,-1.832594350E-2,-2.046396956E-2
8.447074285E1,-1.282816008E-2,-5.345067009E-3,3.649916872E-2
8.497491655E1,-3.680460155E-2,-7.635809598E-4,-2.290742844E-2
8.547909196E1,-2.596175298E-2,5.650499370E-3,1.038470119E-2
8.598326879E1,-2.809977904E-2,-9.162971983E-4,-1.695149764E-2
8.648744676E1,-2.794706449E-2,5.192350596E-3,1.145371422E-2
8.699162561E1,-2.046396956E-2,3.512472380E-3,-1.634063199E-2
8.749580514E1,-1.771507785E-2,2.000582218E-2,-1.160643063E-2
8.799998519E1,-1.588248461E-2,-5.039634649E-3,1.435532235E-2
8.850416556E1,-1.404988952E-2,-2.138026757E-3,-3.176496923E-2
8.900834644E1,-1.023198478E-2,4.276053514E-3,4.581485991E-4
8.951252821E1,-2.901607659E-3,-9.162971983E-4,-2.458730713E-2
9.001671071E1,-3.359756200E-3,2.138026757E-3,2.138026757E-3
9.052089379E1,-3.512472380E-3,-1.679878100E-3,-1.007926930E-2
9.102507717E1,-2.290742937E-3,1.069013379E-3,6.719512399E-3
9.152926087E1,-2.748891478E-3,-2.641990222E-2,4.581485991E-4
9.203344504E1,-2.299905866E-1,7.024945319E-2,-2.429714650E-1
9.253762946E1,6.612611562E-2,1.278234571E-1,-6.322450191E-2
9.304181374E1,5.894844979E-2,7.910698652E-2,-7.177661173E-3
9.354599769E1,9.621120244E-2,1.003345400E-1,-8.491020650E-2
9.405018124E1,5.879573524E-2,-7.330377586E-3,-8.704823442E-3
9.455436452E1,-7.696896046E-2,-2.953531146E-1,3.097084463E-1
9.505854764E1,-1.664606482E-2,1.559232324E-1,-3.130681813E-2
9.556273051E1,2.076940238E-2,-1.537852138E-1,5.207622424E-2
9.606691306E1,1.557705179E-2,8.017600328E-2,-2.672533318E-2
9.657109519E1,1.679878100E-3,6.872228812E-3,9.010255337E-3
9.707527702E1,1.679878100E-3,7.788525894E-3,7.941242307E-3
9.757945847E1,-1.221729559E-3,9.162971983E-4,-2.901607659E-3
9.808363941E1,2.901607659E-3,-3.741546720E-2,-3.512472380E-3
9.858781952E1,6.261364091E-3,-6.536252797E-2,-1.618791744E-2
9.909199879E1,3.023780696E-2,-5.253437161E-2,2.306014486E-2
9.959617754E1,-2.168569900E-2,4.321868345E-2,3.817904973E-3
1.001003570E2,3.008509055E-2,-6.414080411E-2,-1.064431891E-1
1.006045365E2,-7.513637096E-2,1.311832070E-1,-3.039052337E-2
1.011087163E2,-1.099556591E-2,1.863137633E-2,-3.268126398E-2
1.016128963E2,3.207040019E-3,-1.863137633E-2,-4.108065739E-2
1.021170767E2,-7.941242307E-3,4.367683083E-2,-2.779434808E-2
1.026212577E2,9.621120058E-3,-8.857538924E-3,1.450803876E-2
1.031254393E2,-4.581485991E-4,9.468403645E-3,5.803215317E-3
1.036296214E2,1.053741761E-2,-2.519817278E-2,5.192350596E-3
1.041338041E2,5.039634649E-3,-1.725693047E-2,-0.000000000E0
1.046379871E2,3.054323839E-3,-8.246674202E-3,-6.108647794E-4
1.051421704E2,1.679878100E-3,-8.552107029E-3,5.803215317E-3
1.056463539E2,7.177661173E-3,-3.695731983E-2,1.389717404E-2
1.061505373E2,-2.290742937E-3,3.054323897E-4,-7.177661173E-3
1.066547205E2,-1.374445739E-3,-1.450803876E-2,-1.374445739E-3
1.071589040E2,-9.926552884E-3,6.414080039E-3,-5.345067009E-3
1.076630878E2,-2.748891478E-3,4.734201822E-3,-1.985310577E-3
1.081672721E2,-3.970621154E-3,5.955931731E-3,-3.054323839E-3
1.086714563E2,-3.207040019E-3,6.414080039E-3,-7.635809598E-4
1.091756404E2,4.581485991E-4,-1.221729559E-3,5.497782957E-3
1.096798241E2,-2.596175298E-3,-1.527161949E-4,-4.123337101E-3
1.101840073E2,-1.374445739E-3,-1.985310577E-3,-1.832594397E-3
1.106881902E2,8.704823442E-3,-6.261364091E-3,-6.108647794E-4
1.111923727E2,2.260199748E-2,-4.841103405E-2,1.817322709E-2
1.116965549E2,-5.650499370E-3,4.657844082E-2,-1.618791744E-2
1.122007365E2,3.207040019E-3,8.643736690E-2,-2.657261863E-2
1.127049176E2,6.719512399E-3,-2.168569900E-2,8.704823442E-3
1.132090982E2,9.621120058E-3,-2.183841541E-2,3.207040019E-3
1.137132787E2,-1.527161920E-3,-1.069013402E-2,-3.970621154E-3
1.142174590E2,1.832594397E-3,3.054323897E-4,6.108647794E-4
1.147216394E2,-2.290742937E-3,6.872228812E-3,-1.527161949E-4
1.152258200E2,-1.985310577E-3,6.872228812E-3,-1.069013379E-3
1.157300007E2,-6.261364091E-3,2.901607659E-3,1.695149764E-2
1.162341814E2,3.405570984E-2,-1.033888608E-1,6.139190868E-2
1.167383619E2,2.443459118E-3,-1.206457894E-2,9.010255337E-3
1.172425420E2,3.817904973E-3,1.389717404E-2,6.719512399E-3
1.177467219E2,-3.359756200E-3,5.039634649E-3,-1.832594397E-3
1.182509016E2,-1.832594397E-3,-1.389717404E-2,-1.053741761E-2
1.187550812E2,-1.343902480E-2,2.535088919E-2,7.788525894E-3
1.192592604E2,1.527161920E-3,2.138026757E-3,9.162971983E-4
1.197634400E2,5.039634649E-3,-4.276053514E-3,5.955931731E-3
1.202676202E2,1.007926930E-2,-5.192350596E-3,3.359756200E-3
1.207718009E2,-5.497782957E-3,2.443459118E-3,-2.138026757E-3
1.212759819E2,-1.374445739E-3,3.512472380E-3,-1.069013379E-3
1.217801628E2,-6.108647794E-4,2.443459118E-3,-1.221729559E-3
1.222843436E2,6.108647794E-4,-4.581485991E-4,-1.527161949E-4
1.227885244E2,2.748891478E-3,-4.581485875E-3,1.679878100E-3
1.232927051E2,3.665188793E-3,3.359756200E-3,3.054323839E-3
1.237968857E2,4.581485991E-4,-1.527161949E-4,-6.108647794E-4
1.243010661E2,-1.527161920E-3,1.221729559E-3,-2.596175298E-3
1.248052460E2,-1.374445739E-3,2.290742937E-3,-1.069013379E-3
1.253094256E2,-1.221729559E-3,3.359756200E-3,-4.581485991E-4
1.258136049E2,-2.748891478E-3,3.817904973E-3,-2.138026757E-3
1.263177840E2,2.138026757E-3,-1.832594397E-3,1.374445739E-3
1.268219628E2,-8.246674202E-3,1.389717404E-2,1.221729559E-3
1.273261413E2,-2.748891478E-3,4.276053514E-3,-2.138026757E-3
1.278303195E2,-7.635809598E-4,3.054323839E-3,-1.374445739E-3
1.283344975E2,-2.748891478E-3,4.581485875E-3,-2.138026757E-3
1.288386753E2,5.039634649E-3,-4.428769462E-3,6.108647794E-4
1.293428531E2,-1.832594397E-3,8.246674202E-3,2.748891478E-3
1.298470310E2,-2.733619884E-2,1.725693047E-2,-5.497782957E-3
1.303512089E2,-1.191186346E-2,3.237583488E-2,-1.679878100E-3
1.308553870E2,-1.359174121E-2,-1.527161920E-3,4.276053514E-3
1.313595658E2,-1.695149764E-2,2.504545636E-2,7.483093534E-3
1.318637455E2,7.360920310E-2,-2.191477418E-1,3.268126398E-2
1.323679263E2,2.596175298E-3,8.491020650E-2,2.855792828E-2
1.328721077E2,-1.023198478E-2,2.458730713E-2,-1.069013379E-3
1.333762894E2,1.511890348E-2,-1.588248461E-2,-2.290742937E-3
1.338804711E2,-1.511890348E-2,2.535088919E-2,-9.162971983E-4
1.343846529E2,-5.955931731E-3,6.566796452E-3,-6.108647794E-4
1.348888355E2,-3.512472380E-3,7.024944760E-3,-2.138026757E-3
1.353930180E2,5.803215317E-3,-4.734201822E-3,1.298087649E-2
1.358972006E2,1.023198478E-2,2.641990222E-2,-2.199113183E-2
1.364013833E2,-5.650499370E-3,-1.007926930E-2,5.955931731E-3
1.369055659E2,9.315688163E-3,-3.634645417E-2,1.527161920E-3
1.374097483E2,1.007926930E-2,3.283398226E-2,-1.252272818E-2
1.379139305E2,4.886918236E-3,-4.581485875E-3,2.138026757E-3
1.384181124E2,-1.679878100E-3,7.177661173E-3,-1.832594397E-3
1.389222940E2,-6.719512399E-3,1.114828233E-2,2.901607659E-3
1.394264756E2,9.162971983E-4,4.276053514E-3,-1.527161949E-4
1.399306570E2,-1.069013379E-3,6.108647794E-4,-2.290742937E-3
1.404348383E2,4.581485991E-4,1.985310577E-3,-2.138026757E-3
1.409390195E2,3.512472380E-3,4.428769462E-3,-4.123337101E-3
1.414432007E2,2.290742937E-3,1.985310577E-3,-3.207040019E-3
1.419473820E2,1.527161949E-4,7.635809598E-4,-9.162971983E-4
1.424515638E2,-6.108647794E-4,3.359756200E-3,1.832594397E-3
1.429557455E2,-1.221729559E-3,5.803215317E-3,-1.374445739E-3
1.434599271E2,1.221729559E-3,-3.054323897E-4,-1.069013379E-3
1.439641088E2,4.581485991E-4,-7.635809598E-4,-1.679878100E-3
1.444682902E2,-1.985310577E-3,2.138026757E-3,-0.000000000E0
1.449724716E2,-9.468403645E-3,2.275471389E-2,-2.596175298E-3
1.454766529E2,2.596175298E-3,-5.497782957E-3,2.596175298E-3
1.459808340E2,0.000000000E0,-3.359756200E-3,-1.069013379E-3
1.464850149E2,-1.832594397E-3,-4.276053514E-3,-1.069013379E-3
1.469891956E2,-1.527161949E-4,-7.941242307E-3,0.000000000E0
1.474933764E2,2.596175298E-3,-1.160643063E-2,-3.359756200E-3
1.479975577E2,7.177661173E-3,-6.566796452E-3,-1.527161949E-4
1.485017394E2,-3.817904973E-3,4.123337101E-3,-4.581485991E-4
1.490059212E2,1.985310577E-3,-1.420260593E-2,-9.162971983E-4
1.495101028E2,-5.803215317E-3,8.093958721E-3,-1.527161920E-3
1.500142842E2,2.290742937E-3,-1.130099874E-2,3.207040019E-3
1.505184653E2,1.221729559E-3,-9.773836471E-3,7.635809598E-4
1.510226463E2,-3.207040019E-3,-3.054323897E-4,5.650499370E-3
1.515268270E2,-4.428769462E-3,-1.679878100E-3,5.497782957E-3
1.520310077E2,2.748891478E-3,-1.832594350E-2,-1.313359290E-2
1.525351880E2,-1.130099874E-2,3.817904973E-3,-0.000000000E0
1.530393681E2,-1.160643063E-2,-1.985310577E-3,4.123337101E-3
1.535435480E2,-1.588248461E-2,-1.527161949E-4,3.054323839E-3
1.540477278E2,-1.527161989E-2,-3.054323839E-3,-3.054323897E-4
1.545519074E2,-1.725693047E-2,-1.679878100E-3,4.581485991E-4
1.550560870E2,-1.343902480E-2,-1.557705179E-2,-9.162971750E-3
1.555602668E2,-1.542433538E-2,1.069013402E-2,-1.389717404E-2
1.560644465E2,-8.552107029E-3,-1.374445739E-3,-2.122755162E-2
1.565686262E2,-5.803215317E-3,7.635809598E-4,-4.886918236E-3
1.570728057E2,-3.207040019E-3,1.435532235E-2,-7.788525894E-3
1.575769854E2,-7.635809598E-4,9.773836471E-3,-7.635809598E-4
1.580811650E2,-7.330377586E-3,-9.926552884E-3,7.177661173E-3
1.585853444E2,-8.857538924E-3,2.565632015E-2,-3.665188793E-3
1.590895237E2,-1.130099874E-2,1.695149764E-2,1.679878100E-3
1.595937029E2,1.527161989E-2,2.367101051E-2,-1.954767294E-2
1.600978818E2,-1.832594397E-3,1.206457894E-2,-4.581485991E-4
1.606020605E2,-1.221729559E-3,3.054323897E-4,9.468403645E-3
1.611062391E2,4.581485991E-4,-1.069013379E-3,-4.428769462E-3
1.616104176E2,4.581485991E-4,-1.679878100E-3,-3.207040019E-3
1.621145960E2,1.985310577E-3,-0.000000000E0,-2.138026757E-3
1.626187742E2,-7.635809598E-4,7.635809598E-4,1.985310577E-3
1.631229524E2,3.512472380E-3,-4.276053514E-3,-7.788525894E-3
1.636271350E2,-1.282816008E-2,-1.572976820E-2,2.290742844E-2
1.641313084E2,3.985892609E-2,-1.304196268E-1,-3.375028074E-2
1.646354862E2,-2.641990222E-2,1.418733448E-1,-3.008509055E-2
1.651396639E2,4.596757516E-2,-4.581485875E-3,-4.596757516E-2
1.656438416E2,6.261364091E-3,1.221729559E-3,-3.512472380E-3
1.661480192E2,6.108647794E-4,-4.123337101E-3,-3.054323897E-4
1.666521968E2,-3.207040019E-3,5.803215317E-3,1.832594397E-3
1.671563743E2,1.069013379E-3,3.054323897E-4,1.221729559E-3
1.676605518E2,-6.414080039E-3,6.261364091E-3,-5.650499370E-3
1.681647291E2,2.138026757E-3,-3.054323897E-4,-5.039634649E-3
1.686689061E2,-1.527161949E-4,1.374445739E-3,2.748891478E-3
1.691730829E2,1.221729559E-3,-2.138026757E-3,-5.955931731E-3
1.696772599E2,-9.162971983E-4,2.596175298E-3,3.665188793E-3
1.701814374E2,1.832594397E-3,-2.443459118E-3,-3.054323839E-3
1.706856151E2,-1.527161920E-3,2.443459118E-3,4.581485991E-4
1.711897928E2,-4.734201822E-3,7.635809598E-4,-8.093958721E-3
1.716939703E2,-6.261364091E-3,3.054323839E-3,-1.985310577E-3
1.721981477E2,-3.207040019E-3,-1.527161920E-3,-1.542433538E-2
1.727023249E2,4.382954910E-2,-3.543015569E-2,-2.290742937E-3
1.732065019E2,-2.199113183E-2,1.725693047E-2,6.108647794E-4
1.737106788E2,-3.665188793E-3,-7.635809598E-4,3.665188793E-3
1.742148558E2,-9.621120058E-3,3.054323839E-3,-2.138026804E-2
1.747190328E2,1.069013379E-3,-1.282816008E-2,-3.207040019E-3
1.752232101E2,-2.351829410E-2,2.901607659E-3,-8.857538924E-3
1.757273880E2,6.872228812E-3,-1.572976820E-2,-2.443459118E-3
1.762315666E2,-6.414080039E-3,-2.290742937E-3,6.872228812E-3
1.767357459E2,-1.007926930E-2,8.399390616E-3,1.527161949E-4
1.772399261E2,1.114828233E-2,-1.954767294E-2,-1.374445739E-3
1.777441072E2,-2.076940238E-2,2.458730713E-2,1.160643063E-2
1.782482890E2,-3.436114267E-2,3.481929377E-2,-1.725693047E-2
1.787524716E2,2.076940238E-2,-2.290742844E-2,8.857538924E-3
1.792566549E2,1.527161920E-3,-1.985310577E-3,1.527161949E-4
1.797608388E2,2.840521187E-2,-4.184423760E-2,9.162971983E-4
1.802650234E2,2.443459118E-3,-1.588248461E-2,8.399390616E-3
1.807692085E2,-6.108647794E-4,2.138026757E-3,-1.267544460E-2
1.812733941E2,9.621120058E-3,-8.857538924E-3,5.345067009E-3
1.817775800E2,-1.099556591E-2,2.977965772E-2,-2.596175298E-2
1.822817663E2,1.527161920E-3,8.093958721E-3,3.817904973E-3
1.827859529E2,3.054323839E-3,-3.359756200E-3,1.832594397E-3
1.832901397E2,-1.481347065E-2,1.343902480E-2,6.566796452E-3
1.837943267E2,1.313359290E-2,-9.621120058E-3,-5.039634649E-3
1.842985139E2,-2.138026757E-3,-1.832594397E-3,9.773836471E-3
1.848027012E2,-1.572976820E-2,2.260199748E-2,-1.527161989E-2
1.853068887E2,1.985310577E-3,-4.581485991E-4,-3.054323897E-4
1.858110765E2,2.748891478E-3,-5.650499370E-3,3.817904973E-3
1.863152645E2,-5.192350596E-3,7.941242307E-3,-6.872228812E-3
1.868194526E2,1.908952370E-2,-2.947422490E-2,1.053741761E-2
1.873236408E2,-1.069013402E-2,9.468403645E-3,5.650499370E-3
1.878278291E2,2.748891478E-3,3.512472380E-3,-6.719512399E-3
1.883320175E2,1.985310577E-3,-2.596175298E-3,6.108647678E-3
1.888362059E2,-1.527161989E-2,1.221729536E-2,-8.246674202E-3
1.893403943E2,1.786779426E-2,-1.771507785E-2,7.483093534E-3
1.898445829E2,-1.267544460E-2,1.664606482E-2,-1.023198478E-2
1.903487712E2,3.054323839E-3,-1.374445739E-3,5.803215317E-3
1.908529594E2,1.603520103E-2,-1.679878123E-2,3.817904973E-3
1.913571475E2,-3.512472659E-2,3.405570984E-2,-1.130099874E-2
1.918613355E2,-1.527161920E-3,5.192350596E-3,2.443459118E-3
1.923655232E2,9.468403645E-3,-5.009091273E-2,1.343902480E-2
1.928697106E2,3.313941509E-2,-2.428187430E-2,3.802633286E-2
1.933738978E2,-2.504545636E-2,2.229656465E-2,-1.374445739E-3
1.938780847E2,-3.054323897E-4,1.252272818E-2,-1.557705179E-2
1.943822713E2,-4.886918236E-3,4.276053514E-3,-1.313359290E-2
1.948864577E2,-4.581485991E-4,7.635809947E-3,-7.635809947E-3
1.953906438E2,4.581485991E-4,-3.054323897E-4,-2.443459118E-3
1.958948296E2,-4.581485875E-3,-6.963858753E-2,7.757982612E-2
1.963990153E2,-1.522580534E-1,-7.910698652E-2,1.308777779E-1
1.969032008E2,8.811724186E-2,7.177661173E-3,-1.970038936E-2
1.974073863E2,3.665188793E-3,2.309068888E-1,-8.414662629E-2
1.979115717E2,7.116574794E-2,-3.451386094E-2,-6.643154472E-2
1.984157568E2,1.496618707E-2,-9.773836471E-3,-9.315688163E-3
1.989199417E2,3.817904973E-3,3.665188793E-3,-6.719512399E-3
1.994241261E2,-2.901607659E-3,8.704823442E-3,-3.970621154E-3
1.999283101E2,-1.832594397E-3,1.985310577E-3,-4.276053514E-3
2.004324939E2,1.374445739E-3,4.123337101E-3,-1.221729559E-3
2.009366775E2,4.291325063E-2,-9.987638891E-2,3.726275265E-2
2.014408610E2,5.390881747E-2,-7.330377586E-3,2.748891478E-3
2.019450445E2,-4.795288667E-2,2.290742844E-2,-4.871646687E-2
2.024492279E2,1.511890348E-2,-8.093958721E-3,-3.955349326E-2
2.029534111E2,-2.443459071E-2,6.963858753E-2,3.665188793E-3
2.034575943E2,2.214384824E-2,-1.679878100E-3,3.512472380E-3
2.039617776E2,5.497782957E-3,5.818486959E-2,5.650499370E-3
2.044659610E2,3.069595434E-2,-3.970621154E-3,-3.115410358E-2
2.049701449E2,2.947422490E-2,7.483093534E-3,-1.267544460E-2
2.054743294E2,1.206457894E-2,-1.328630932E-2,-3.817904973E-3
2.059785144E2,1.634063199E-2,-1.374445739E-3,2.901607659E-3
2.064826997E2,1.420260593E-2,1.542433538E-2,-1.221729559E-3
2.069868851E2,2.229656465E-2,3.970621154E-3,3.512472380E-3
2.074910705E2,1.343902480E-2,7.941242307E-3,-5.192350596E-3
2.079952557E2,1.710421406E-2,2.443459071E-2,-5.497782957E-3
2.084994410E2,1.221729536E-2,1.374445762E-2,-3.665188793E-3
2.090036262E2,1.267544460E-2,2.458730713E-2,9.162971983E-4
2.095078112E2,1.237001177E-2,1.435532235E-2,-3.970621154E-3
2.100119960E2,1.328630932E-2,1.237001177E-2,3.512472380E-3
2.105161804E2,1.970038936E-2,1.939495653E-2,-9.162971983E-4
2.110203646E2,1.725693047E-2,1.832594350E-2,-6.261364091E-3
2.115245485E2,1.175914705E-2,5.039634649E-3,-6.108647794E-4
2.120287321E2,1.313359290E-2,4.123337101E-3,4.123337101E-3
2.125329157E2,6.719512399E-3,-5.345067009E-3,-1.527161949E-4
2.130370991E2,8.552107029E-3,2.290742937E-3,4.734201822E-3
2.135412825E2,1.450803876E-2,1.069013379E-3,-5.192350596E-3
2.140454659E2,1.878409274E-2,1.114828233E-2,-3.970621154E-3
2.145496492E2,1.740964688E-2,5.497782957E-3,5.803215317E-3
2.150538326E2,1.175914705E-2,7.024944760E-3,-1.160643063E-2
2.155580161E2,1.114828233E-2,1.328630932E-2,5.497782957E-3
2.160621996E2,1.404988952E-2,1.420260593E-2,-7.788525894E-3
2.165663832E2,1.175914705E-2,1.710421406E-2,6.566796452E-3
2.170705669E2,1.252272818E-2,1.374445762E-2,-4.734201822E-3
2.175747505E2,1.053741761E-2,1.053741761E-2,1.069013379E-3
2.180789341E2,1.099556591E-2,1.404988952E-2,2.748891478E-3
2.185831178E2,4.734201822E-3,1.832594397E-3,2.901607659E-3
2.190873015E2,1.313359290E-2,1.191186346E-2,-9.010255337E-3
2.195914853E2,9.010255337E-3,1.160643063E-2,-4.581485991E-4
2.200956690E2,1.450803876E-2,7.635809947E-3,-9.162971750E-3
2.205998531E2,1.191186346E-2,2.138026757E-3,-1.527161920E-3
2.211040373E2,1.374445762E-2,-6.872228812E-3,-1.053741761E-2
2.216082216E2,2.290742844E-2,8.552107029E-3,-2.290742937E-3
2.221124062E2,1.710421406E-2,-4.886918236E-3,-5.803215317E-3
2.226165912E2,1.481347065E-2,7.635809598E-4,7.941242307E-3
2.231207768E2,1.267544460E-2,-3.970621154E-3,8.552107029E-3
2.236249631E2,1.267544460E-2,-3.054323839E-3,7.483093534E-3
2.241291499E2,1.313359290E-2,-2.901607659E-3,1.389717404E-2
2.246333370E2,1.985310577E-3,-8.246674202E-3,-2.901607659E-3
2.251375322E2,3.817904973E-3,-4.581485991E-4,1.237001177E-2
2.256417113E2,6.719512399E-3,3.207040019E-3,-9.162971983E-4
2.261458985E2,8.552107029E-3,8.857538924E-3,-7.024944760E-3
2.266500855E2,-6.566796452E-3,-1.038470119E-2,7.941242307E-3
2.271542724E2,1.878409274E-2,1.007926930E-2,-3.359756200E-3
2.276584591E2,4.734201822E-3,1.069013379E-3,-1.053741761E-2
2.281626455E2,-1.679878100E-3,-8.399390616E-3,4.276053514E-3
2.286668316E2,-1.832594397E-3,1.221729559E-3,-1.374445739E-3
2.291710173E2,-1.374445739E-3,-4.276053514E-3,9.162971983E-4
2.296752027E2,3.665188793E-3,3.054323839E-3,4.581485875E-3
2.301793878E2,-1.374445739E-3,-1.527161949E-4,-2.290742937E-3
2.306835726E2,-2.596175298E-3,-3.054323839E-3,-6.719512399E-3
2.311877571E2,-1.374445739E-3,4.276053514E-3,-2.748891478E-3
2.316919413E2,1.527161949E-4,1.374445739E-3,-1.221729559E-3
2.321961252E2,4.581485991E-4,4.581485875E-3,-3.054323897E-4
2.327003089E2,5.497782957E-3,-9.162971983E-4,6.872228812E-3
2.332044923E2,7.635809598E-4,-3.665188793E-3,7.330377586E-3
2.337086754E2,9.010255337E-3,-2.901607659E-3,1.267544460E-2
2.342128583E2,-5.497782957E-3,-1.160643063E-2,-3.665188793E-3
2.347170410E2,-1.023198478E-2,-2.275471389E-2,-8.857538924E-3
2.352212236E2,-1.252272818E-2,3.512472380E-3,-1.481347065E-2
2.357254065E2,-1.374445739E-3,5.192350596E-3,-1.527161949E-4
2.362295898E2,-1.374445739E-3,4.886918236E-3,3.054323897E-4
2.367337737E2,-1.374445739E-3,-6.108647794E-4,-4.581485991E-4
2.372379580E2,-0.000000000E0,-1.527161949E-4,3.054323897E-4
2.377421426E2,1.527161949E-4,-3.054323839E-3,-3.054323897E-4
2.382463276E2,1.527161949E-4,-2.748891478E-3,-0.000000000E0
2.387505127E2,1.527161949E-4,-9.468403645E-3,4.581485991E-4
2.392546979E2,-4.581485991E-4,3.359756200E-3,-7.635809598E-4
2.397588832E2,1.527161949E-4,-3.512472380E-3,-1.527161949E-4
2.402630686E2,0.000000000E0,-4.276053514E-3,-3.054323897E-4
2.407672539E2,4.581485991E-4,2.290742844E-2,-9.162971983E-4
2.412714392E2,3.359756200E-3,-5.039634649E-3,-6.108647794E-4
2.417756243E2,2.290742937E-3,4.795288667E-2,-3.207040019E-3
2.422798091E2,1.298087649E-2,-1.435532235E-2,3.512472380E-3
2.427839938E2,1.725693047E-2,4.276053514E-3,1.374445739E-3
2.432881781E2,-1.985310577E-3,1.099556591E-2,-1.985310577E-3
2.437923623E2,-7.635809598E-4,4.428769462E-3,-1.527161949E-4
2.442965462E2,-7.635809598E-4,-4.581485991E-4,-7.635809598E-4
2.448007298E2,-1.069013379E-3,4.581485875E-3,-6.108647794E-4
2.453049132E2,-7.635809598E-4,7.635809598E-4,-4.581485991E-4
2.458090963E2,-4.581485991E-4,4.581485991E-4,-4.581485991E-4
2.463132790E2,-1.527161949E-4,3.817904973E-3,-3.054323897E-4
2.468174614E2,-3.054323897E-4,-0.000000000E0,-0.000000000E0
2.473216435E2,-1.527161949E-4,1.527161949E-4,-4.581485991E-4
2.478258253E2,-1.527161949E-4,2.443459118E-3,9.162971983E-4
2.483300068E2,4.581485991E-4,-0.000000000E0,-1.832594397E-3
2.488341882E2,1.527161949E-4,1.679878100E-3,-3.054323897E-4
2.493383693E2,0.000000000E0,9.162971983E-4,-1.374445739E-3
2.498425501E2,-6.108647794E-4,1.527161949E-4,-1.069013379E-3
2.503467307E2,1.527161949E-4,2.901607659E-3,-1.374445739E-3
2.508509111E2,0.000000000E0,1.527161920E-3,-4.581485991E-4
2.513550912E2,-1.527161949E-4,1.069013379E-3,-3.054323897E-4
2.518592711E2,-3.054323897E-4,-6.108647794E-4,1.985310577E-3
2.523634509E2,-0.000000000E0,1.221729559E-3,-0.000000000E0
2.528676304E2,-0.000000000E0,1.527161949E-4,-1.221729559E-3
2.533718098E2,-3.054323897E-4,6.108647794E-4,4.581485991E-4
2.538759890E2,3.054323897E-4,7.635809598E-4,-1.832594397E-3
2.543801679E2,0.000000000E0,-9.162971983E-4,-9.162971983E-4
2.548843467E2,-6.108647794E-4,-1.527161920E-3,-1.527161949E-4
2.553885252E2,3.054323897E-4,-0.000000000E0,-4.581485991E-4
2.558927036E2,-6.108647794E-4,1.374445739E-3,-4.581485991E-4
2.563968819E2,-4.581485991E-4,1.069013379E-3,-1.527161920E-3
2.569010600E2,-7.635809598E-4,1.679878100E-3,6.108647794E-4
2.574052378E2,-1.527161949E-4,1.679878100E-3,-9.162971983E-4
2.579094156E2,-1.527161949E-4,6.108647794E-4,-0.000000000E0
2.584135932E2,-3.054323897E-4,6.108647794E-4,3.054323897E-4
2.589177706E2,0.000000000E0,-1.527161949E-4,3.054323897E-4
2.594219480E2,-4.581485991E-4,-4.581485991E-4,-9.162971983E-4
2.599261252E2,-9.162971983E-4,6.719512399E-3,-2.290742937E-3
2.604303024E2,2.290742937E-3,-4.428769462E-3,-1.832594397E-3
2.609344793E2,3.054323897E-4,-5.497782957E-3,-3.054323897E-4
2.614386561E2,1.679878100E-3,-1.710421406E-2,-4.581485991E-4
2.619428329E2,-5.803215317E-3,7.635809947E-3,1.069013379E-3
2.624470097E2,-1.221729536E-2,1.450803876E-2,-3.817904973E-3
2.629511865E2,-1.679878123E-2,1.664606482E-2,-3.665188793E-3
2.634553634E2,-6.872228812E-3,1.160643063E-2,-1.527161949E-4
2.639595403E2,7.024944760E-3,-1.832594350E-2,1.679878100E-3
2.644637172E2,-5.039634649E-3,1.328630932E-2,-1.832594397E-3
2.649678940E2,3.054323897E-4,-3.359756200E-3,9.162971983E-4
2.654720708E2,-1.221729559E-3,-2.290742937E-3,-7.635809598E-4
2.659762474E2,-1.527161949E-4,1.221729559E-3,-9.162971983E-4
2.664804236E2,-7.635809598E-4,-4.581485991E-4,-3.054323897E-4
2.669845997E2,4.581485991E-4,-1.221729559E-3,-3.054323897E-4
2.674887762E2,1.527161920E-3,-3.665188793E-3,7.635809598E-4
2.679929534E2,-3.054323897E-4,4.734201822E-3,-2.443459118E-3
2.684971312E2,-0.000000000E0,-9.162971983E-4,-1.069013379E-3
2.690013093E2,6.872228812E-3,-2.901607752E-2,2.748891478E-3
2.695054878E2,3.726275265E-2,-3.863719851E-2,7.483093534E-3
2.700096663E2,-1.038470119E-2,2.489273995E-2,-3.207040019E-3
2.705138450E2,-1.847865991E-2,2.596175298E-2,-2.138026757E-3
2.710180239E2,-7.024944760E-3,8.246674202E-3,-1.374445739E-3
2.715222028E2,-1.527161920E-3,4.428769462E-3,-1.527161949E-4
2.720263818E2,-1.221729559E-3,1.985310577E-3,-4.581485991E-4
2.725305609E2,-1.832594397E-3,2.138026757E-3,-1.221729559E-3
2.730347399E2,-1.069013379E-3,1.374445739E-3,-1.527161949E-4
2.735389187E2,-9.162971983E-4,1.527161920E-3,-7.635809598E-4
2.740430975E2,-2.138026757E-3,4.123337101E-3,-7.635809598E-4
2.745472763E2,-3.359756200E-3,5.039634649E-3,-7.635809598E-4
2.750514550E2,3.054323897E-4,-1.221729559E-3,3.054323897E-4
2.755556337E2,6.108647794E-4,-6.108647794E-4,-3.054323897E-4
2.760598124E2,-4.581485991E-4,5.345067009E-3,-1.985310577E-3
2.765639910E2,-6.719512399E-3,1.817322709E-2,-3.512472380E-3
2.770681694E2,-1.404988952E-2,3.161225095E-2,-7.177661173E-3
2.775723476E2,3.054323897E-4,3.054323897E-4,-3.054323897E-4
2.780765257E2,7.635809598E-4,3.054323897E-4,1.527161949E-4
2.785807037E2,7.635809598E-4,-1.069013379E-3,1.527161949E-4
2.790848816E2,7.635809598E-4,4.581485991E-4,9.162971983E-4
2.795890594E2,7.635809598E-4,1.069013379E-3,4.581485991E-4
2.800932370E2,-1.832594397E-3,9.162971750E-3,-1.832594397E-3
2.805974146E2,2.138026757E-3,-1.527161920E-3,-4.581485991E-4
2.811015921E2,1.374445739E-3,1.527161920E-3,-6.108647794E-4
2.816057694E2,1.527161949E-4,1.527161949E-4,-3.054323897E-4
2.821099467E2,-0.000000000E0,-1.221729559E-3,4.581485991E-4
2.826141239E2,1.527161949E-4,-9.162971983E-4,7.635809598E-4
2.831183012E2,0.000000000E0,6.108647794E-4,-1.679878100E-3
2.836224784E2,0.000000000E0,7.635809598E-4,-7.635809598E-4
2.841266555E2,-4.581485991E-4,1.374445739E-3,1.679878100E-3
2.846308324E2,4.581485991E-4,7.635809598E-4,-1.527161920E-3
2.851350093E2,3.054323897E-4,6.108647794E-4,-7.635809598E-4
2.856391861E2,3.359756200E-3,-2.748891525E-2,-6.108647794E-4
2.861433627E2,3.161225095E-2,-1.566868126E-1,7.742711157E-2
2.866475393E2,4.856374860E-2,-8.277218044E-2,2.809977904E-2
2.871517159E2,1.394298822E-1,-3.541488647E-1,3.503309488E-1
2.876558927E2,-3.794997334E-1,6.956222653E-1,1.892153621E-1
2.881600697E2,9.468404204E-2,-7.620538026E-2,6.414080039E-3
2.886642469E2,2.218966335E-1,-5.983420610E-1,4.627300799E-2
2.891684243E2,8.842267841E-2,9.498947114E-2,-1.543960720E-1
2.896726020E2,-9.162971983E-4,7.177661173E-3,-2.350302190E-1
2.901767798E2,-1.023198478E-2,2.871064469E-2,-1.069013402E-2
2.906809580E2,-1.832594397E-3,1.282816008E-2,1.832594350E-2
2.911851362E2,-3.359756200E-3,-4.276053514E-3,-1.328630932E-2
2.916893148E2,-1.572976820E-2,7.498364896E-2,3.359756200E-3
2.921934936E2,1.878409274E-2,-8.659008145E-2,-8.414662629E-2
2.926976729E2,-1.695149764E-2,6.062832847E-2,1.007926930E-2
2.932018525E2,-7.651081681E-2,1.704312712E-1,1.343902480E-2
2.937060325E2,3.649916872E-2,-1.082757786E-1,-2.382372692E-2
2.942102131E2,3.359756200E-3,-1.939495653E-2,1.282816008E-2
2.947143943E2,-1.878409274E-2,-1.527161920E-3,1.114828233E-2
2.952185762E2,-2.580903657E-2,-4.276053514E-3,-3.054323897E-4
2.957227588E2,-2.321286127E-2,-3.207040019E-3,1.588248461E-2
2.962269419E2,-4.474584386E-2,1.282816008E-2,8.399390616E-3
2.967311255E2,-4.153880477E-2,-5.039634649E-3,3.665188793E-3
2.972353094E2,-5.619955808E-2,4.276053514E-3,4.581485991E-4
2.977394936E2,-3.054323839E-3,-1.145371422E-2,-4.886918142E-2
2.982436780E2,-2.275471389E-2,-2.932151034E-2,-2.504545636E-2
2.987478624E2,-4.321868345E-2,8.093958721E-3,-4.581485991E-4
2.992520470E2,-5.833758786E-2,1.863137633E-2,1.267544460E-2
2.997562315E2,-7.437278330E-2,1.664606482E-2,2.901607659E-3
3.002604160E2,-4.428769648E-2,-1.267544460E-2,-7.635809598E-4
3.007646004E2,-4.321868345E-2,-1.588248461E-2,-2.596175298E-3
3.012687846E2,-9.926552884E-3,-1.449276656E-1,-1.679878100E-3
3.017729687E2,-8.781181276E-2,1.420260593E-2,1.175914705E-2
3.022771528E2,-4.948004708E-2,-7.483093534E-3,2.290742937E-3
3.027813370E2,-5.192350596E-3,-1.557705179E-2,1.221729559E-3
3.032855211E2,-5.390881747E-2,1.023198478E-2,-1.847865991E-2
3.037897052E2,-3.176496923E-2,-9.315688163E-3,-2.092211880E-2
3.042938893E2,-2.641990222E-2,-6.719512399E-3,-1.878409274E-2
3.047980733E2,-2.321286127E-2,4.886918236E-3,-2.290742844E-2
3.053022576E2,-1.343902480E-2,4.428769462E-3,-2.199113183E-2
3.058064420E2,5.650499370E-3,6.872228812E-3,-7.941242307E-3
3.063106265E2,3.054323897E-4,-2.031125315E-2,-1.374445739E-3
3.068148110E2,1.084284950E-2,-1.175914705E-2,-1.527161949E-4
3.073189958E2,1.023198478E-2,1.450803876E-2,-3.420842811E-2
3.078231812E2,4.474584386E-2,3.069595434E-2,-4.871646687E-2
3.083273672E2,3.344484791E-2,2.855792828E-2,-2.367101051E-2
3.088315533E2,4.795288667E-2,5.833758786E-2,-5.650499370E-3
3.093357394E2,4.734202102E-2,3.237583488E-2,1.114828233E-2
3.098399254E2,5.528326333E-2,3.008509055E-2,-7.788525894E-3
3.103441112E2,4.382954910E-2,2.687804960E-2,1.069013402E-2
3.108482969E2,3.787361458E-2,2.107483521E-2,1.863137633E-2
3.113524826E2,3.145953640E-2,1.649334840E-2,2.657261863E-2
3.118566681E2,3.054323979E-2,1.053741761E-2,1.130099874E-2
3.123608537E2,2.275471389E-2,9.773836471E-3,5.192350596E-3
3.128650392E2,1.389717404E-2,7.941242307E-3,1.130099874E-2
3.133692245E2,3.665188793E-3,4.428769462E-3,1.237001177E-2
3.138734095E2,7.635809947E-3,-5.039634649E-3,-7.635809598E-4
3.143775942E2,9.071341902E-2,-7.574722916E-2,2.260199748E-2
3.148817786E2,-9.758564830E-2,4.214967042E-2,-2.122755162E-2
3.153859628E2,1.191186346E-2,6.414080039E-3,5.803215317E-3
3.158901467E2,-7.635809598E-4,2.901607659E-3,-5.497782957E-3
3.163943304E2,-1.985310577E-3,1.221729559E-3,-8.552107029E-3
3.168985137E2,-6.108647794E-4,3.207040019E-3,1.527161920E-3
3.174026967E2,-4.581485991E-4,1.985310577E-3,-3.359756200E-3
3.179068793E2,-1.069013379E-3,2.290742937E-3,-7.635809598E-4
3.184110617E2,7.635809598E-4,-1.985310577E-3,-3.054323897E-4
3.189152440E2,1.374445739E-3,-1.069013379E-3,-3.665188793E-3
3.194194260E2,1.221729559E-3,-6.108647794E-4,-3.054323839E-3
3.199236078E2,-1.679878100E-3,1.527161920E-3,1.221729559E-3
3.204277894E2,-7.635809598E-4,1.679878100E-3,-7.024944760E-3
3.209319708E2,1.069013379E-3,3.665188793E-3,-5.039634649E-3
3.214361519E2,2.901607659E-3,1.069013379E-3,-1.069013379E-3
3.219403330E2,-1.221729559E-3,4.123337101E-3,7.635809598E-4
3.224445138E2,-7.635809598E-4,2.443459118E-3,-2.901607659E-3
3.229486942E2,-2.596175298E-3,3.359756200E-3,1.374445739E-3
3.234528742E2,-1.527161949E-4,2.138026757E-3,-3.970621154E-3
3.239570538E2,-6.108647794E-4,-1.527161949E-4,-4.581485991E-4
3.244612337E2,2.290742937E-3,6.108647794E-4,-4.886918236E-3
3.249654142E2,-9.162971983E-4,-3.054323897E-4,-3.970621154E-3
3.254695951E2,6.566796452E-3,-3.054323897E-4,-1.053741761E-2
3.259737762E2,5.497782957E-3,1.832594397E-3,-1.389717404E-2
3.264779576E2,1.939495653E-2,4.734201822E-3,-3.084867075E-2
3.269821390E2,2.916879393E-2,7.635809947E-3,-2.474002354E-2
3.274863204E2,3.985892609E-2,1.313359290E-2,-2.367101051E-2
3.279905018E2,5.177079141E-2,1.389717404E-2,-2.458730713E-2
3.284946831E2,5.940660089E-2,2.061668597E-2,-2.031125315E-2
3.289988643E2,6.688969582E-2,2.183841541E-2,-1.313359290E-2
3.295030454E2,7.345648855E-2,2.244928107E-2,-1.527161920E-3
3.300072264E2,6.826414168E-2,2.596175298E-2,1.496618707E-2
3.305114074E2,7.162389904E-2,2.290742844E-2,1.374445739E-3
3.310155884E2,7.238747925E-2,2.138026804E-2,8.552107029E-3
3.315197695E2,7.040216774E-2,2.367101051E-2,3.359756200E-3
3.320239506E2,7.055488229E-2,2.458730713E-2,5.650499370E-3
3.325281317E2,7.238747925E-2,2.275471389E-2,3.054323839E-3
3.330323128E2,6.261363626E-2,2.779434808E-2,6.414080039E-3
3.335364936E2,6.047561392E-2,1.985310577E-2,1.924224012E-2
3.340406743E2,5.375609919E-2,3.268126398E-2,1.130099874E-2
3.345448548E2,5.192350596E-2,2.748891525E-2,2.550360374E-2
3.350490352E2,4.489856213E-2,2.061668597E-2,2.000582218E-2
3.355532153E2,3.237583488E-2,2.092211880E-2,2.779434808E-2
3.360573954E2,2.412915789E-2,1.618791744E-2,2.428187430E-2
3.365615753E2,9.468403645E-3,1.191186346E-2,2.932151034E-2
3.370657549E2,6.566796452E-3,1.206457894E-2,2.443459071E-2
3.375699345E2,-3.512472380E-3,2.748891478E-3,1.160643063E-2
3.380741140E2,-4.428769462E-3,7.330377586E-3,7.024944760E-3
3.385782935E2,-6.566796452E-3,-3.817904973E-3,-4.276053514E-3
3.390824730E2,-5.955931731E-3,2.443459118E-3,-0.000000000E0
3.395866524E2,-8.552107029E-3,-4.581485875E-3,-2.596175298E-3
3.400908319E2,-3.359756200E-3,-2.748891478E-3,7.635809598E-4
3.405950114E2,-6.108647678E-3,-3.665188793E-3,-5.192350596E-3
3.410991910E2,-1.191186346E-2,-1.145371422E-2,-4.581485991E-4
3.416033713E2,8.414662629E-2,-1.276707351E-1,4.398226365E-2
3.421075521E2,-6.582067907E-2,3.985892609E-2,2.061668597E-2
3.426117335E2,-2.214384824E-2,1.572976820E-2,4.367683083E-2
3.431159152E2,-5.955931544E-2,7.345648855E-2,-1.114828233E-2
3.436200971E2,-1.572976820E-2,1.496618707E-2,-1.404988952E-2
3.441242790E2,-1.114828233E-2,3.329212964E-2,-5.497782957E-3
3.446284610E2,-1.053741761E-2,-1.527161949E-4,-7.941242307E-3
3.451326431E2,-9.926552884E-3,-7.330377586E-3,-3.054323897E-4
3.456368252E2,-7.177661173E-3,-8.246674202E-3,-3.970621154E-3
3.461410074E2,-1.114828233E-2,-1.496618707E-2,3.054323897E-4
3.466451895E2,-7.177661173E-3,-1.191186346E-2,2.290742937E-3
3.471493717E2,-9.315688163E-3,-5.497782957E-3,-1.527161920E-3
3.476535540E2,-3.512472380E-3,7.788525894E-3,-3.054323897E-4
3.481577364E2,-1.069013402E-2,1.740964688E-2,-1.420260593E-2
3.486619188E2,2.779434808E-2,-2.290742844E-2,-4.886918142E-2
3.491661011E2,3.237583488E-2,-4.474584386E-2,3.604102135E-2
3.496702836E2,-5.070177838E-2,7.376192510E-2,-1.924224012E-2
3.501744658E2,-1.771507785E-2,8.552107029E-3,-3.359756200E-3
3.506786479E2,-5.039634649E-3,1.069013379E-3,-5.345067009E-3
3.511828300E2,-6.108647678E-3,9.010255337E-3,3.512472380E-3
3.516870118E2,-1.007926930E-2,-1.343902480E-2,6.414080039E-3
3.521911936E2,-5.497782957E-3,-1.175914705E-2,2.596175298E-3
3.526953752E2,-2.290742937E-3,9.162971983E-4,-3.512472380E-3
3.531995568E2,9.162971983E-4,5.345067009E-3,-3.359756200E-3
3.537037382E2,1.374445739E-3,-2.290742937E-3,-3.054323897E-4
3.542079195E2,6.108647794E-4,5.803215317E-3,-9.162971983E-4
3.547121005E2,1.527161920E-3,7.177661173E-3,1.069013379E-3
3.552162814E2,-1.985310577E-3,6.719512399E-3,-4.123337101E-3
3.557204622E2,-4.886918236E-3,1.527161920E-3,-3.207040019E-3
3.562246429E2,1.603520103E-2,-7.345648855E-2,1.496618707E-2
3.567288235E2,-1.664606482E-2,1.130099874E-2,-7.024944760E-3
3.572330042E2,1.328630932E-2,-4.734201822E-3,-1.038470119E-2
3.577371854E2,2.703076601E-2,-2.336557768E-2,1.679878123E-2
3.582413673E2,2.565632015E-2,-3.527744114E-2,-3.359756200E-3
3.587455493E2,-4.046979174E-2,4.337139800E-2,-8.093958721E-3
3.592497315E2,-3.207040019E-3,3.207040019E-3,-1.634063199E-2
3.597539137E2,5.803215317E-3,-1.359174121E-2,-1.053741761E-2
3.602580959E2,-5.039634649E-3,1.267544460E-2,-3.054323839E-3
3.607622779E2,-9.926552884E-3,3.252854943E-2,-0.000000000E0
3.612664600E2,4.428769462E-3,3.970621154E-3,-1.832594397E-3
3.617706419E2,1.664606482E-2,1.175914705E-2,1.175914705E-2
3.622748237E2,6.902772188E-2,-1.298087649E-2,8.093958721E-3
3.627790054E2,3.985892609E-2,-2.073885947E-1,6.475166976E-2
3.632831870E2,-2.474002354E-2,5.329795182E-2,-5.345067009E-3
3.637873684E2,-2.443459118E-3,5.803215317E-3,4.734201822E-3
3.642915496E2,-2.901607659E-3,7.635809947E-3,-2.596175298E-3
3.647957308E2,-7.635809598E-4,3.054323839E-3,-6.108647794E-4
3.652999117E2,1.985310577E-3,-1.527161949E-4,1.374445739E-3
3.658040926E2,-1.374445739E-3,1.374445739E-3,-2.290742937E-3
3.663082733E2,0.000000000E0,9.162971983E-4,-2.901607659E-3
3.668124538E2,1.221729559E-3,-6.108647794E-4,-2.748891478E-3
3.673166341E2,6.108647794E-4,3.054323897E-4,-1.221729559E-3
3.678208142E2,-1.069013379E-3,2.290742937E-3,-2.138026757E-3
3.683249941E2,-1.527161949E-4,1.527161949E-4,6.108647794E-4
3.688291740E2,6.108647794E-4,6.108647794E-4,-2.443459118E-3
3.693333539E2,2.443459118E-3,6.108647794E-4,-3.054323839E-3
3.698375336E2,1.221729559E-3,4.581485991E-4,-2.901607659E-3
3.703417131E2,4.581485991E-4,1.221729559E-3,-1.679878100E-3
3.708458925E2,-7.635809598E-4,1.069013379E-3,-9.162971983E-4
3.713500716E2,1.527161949E-4,6.108647794E-4,-6.108647794E-4
3.718542506E2,1.527161949E-4,1.221729559E-3,9.162971983E-4
3.723584294E2,-3.054323897E-4,3.054323897E-4,-6.108647794E-4
3.728626080E2,-1.527161949E-4,-4.581485991E-4,-3.054323839E-3
3.733667866E2,-6.108647794E-4,3.054323897E-4,-2.138026757E-3
3.738709649E2,-6.719512399E-3,-3.970621154E-3,4.428769462E-3
3.743751431E2,4.123337101E-3,3.054323839E-3,-4.428769462E-3
3.748793211E2,-1.206457894E-2,1.374445739E-3,6.261364091E-3
3.753834990E2,1.313359290E-2,1.007926930E-2,-1.069013402E-2
3.758876767E2,7.024944760E-3,-9.162971983E-4,-2.748891478E-3
3.763918544E2,4.581485875E-3,-4.123337101E-3,-1.069013379E-3
3.768960320E2,6.108647678E-3,-1.191186346E-2,1.267544460E-2
3.774002095E2,2.290742937E-3,-7.177661173E-3,5.345067009E-3
3.779043872E2,-3.817904973E-3,5.650499370E-3,-2.901607659E-3
3.784085648E2,0.000000000E0,-4.581485991E-4,1.832594397E-3
3.789127425E2,9.621120058E-3,-1.939495653E-2,4.734201822E-3
3.794169200E2,-6.414080039E-3,8.552107029E-3,3.970621154E-3
3.799210975E2,-7.177661173E-3,-3.665188793E-3,1.908952370E-2
3.804252748E2,1.374445739E-3,-3.970621154E-3,5.192350596E-3
3.809294520E2,6.566796452E-3,1.374445739E-3,-1.313359290E-2
3.814336290E2,5.009091273E-2,-8.491020650E-2,-8.643736690E-2
3.819378060E2,-5.681042373E-2,4.184423760E-2,1.267544460E-2
3.824419832E2,8.552107029E-3,1.053741761E-2,7.941242307E-3
3.829461605E2,-1.374445739E-3,3.054323897E-4,1.679878100E-3
3.834503379E2,-1.985310577E-3,3.665188793E-3,-4.123337101E-3
3.839545152E2,-3.054323897E-4,-0.000000000E0,-6.108647794E-4
3.844586926E2,4.581485991E-4,-3.054323897E-4,-3.054323897E-4
3.849628700E2,-6.108647794E-4,4.581485991E-4,-0.000000000E0
3.854670474E2,1.527161949E-4,3.054323897E-4,-6.108647794E-4
3.859712248E2,1.527161949E-4,1.527161949E-4,-7.635809598E-4
3.864754022E2,-7.635809598E-4,3.054323897E-4,3.054323897E-4
3.869795797E2,0.000000000E0,-0.000000000E0,2.138026757E-3
3.874837571E2,-1.527161949E-4,4.581485991E-4,-1.832594397E-3
3.879879346E2,-9.162971983E-4,4.581485991E-4,1.527161949E-4
3.884921122E2,1.527161949E-4,1.832594397E-3,-3.359756200E-3
3.889962897E2,-6.108647794E-4,7.635809598E-4,1.069013379E-3
3.895004673E2,3.054323897E-4,-4.581485991E-4,1.527161920E-3
3.900046449E2,1.374445739E-3,3.054323839E-3,-4.428769462E-3
3.905088224E2,-0.000000000E0,4.734201822E-3,4.276053514E-3
3.910129998E2,1.221729536E-2,1.145371422E-2,-1.175914705E-2
3.915171773E2,9.926552884E-3,-1.527161949E-4,-1.191186346E-2
3.920213547E2,-1.221729559E-3,-2.443459118E-3,4.428769462E-3
3.925255322E2,3.359756200E-3,-1.985310577E-3,-4.886918236E-3
3.930297095E2,-1.832594397E-3,-4.581485991E-4,-3.054323897E-4
3.935338867E2,-6.108647794E-4,6.108647794E-4,-3.054323897E-4
3.940380640E2,-1.374445739E-3,7.788525894E-3,-4.581485991E-4
3.945422412E2,-1.221729559E-3,1.053741761E-2,-1.985310577E-3
3.950464184E2,-1.221729559E-3,5.192350596E-3,-7.635809598E-4
3.955505957E2,-3.054323897E-4,1.527161920E-3,3.054323897E-4
3.960547729E2,-3.054323897E-4,7.635809598E-4,0.000000000E0
3.965589501E2,-1.069013379E-3,4.581485991E-4,-4.581485991E-4
3.970631272E2,-1.527161949E-4,6.108647794E-4,-1.527161920E-3
3.975673043E2,-1.527161949E-4,-1.527161949E-4,-0.000000000E0
3.980714812E2,1.527161949E-4,-1.527161949E-4,-7.635809598E-4
3.985756580E2,3.054323897E-4,-2.443459118E-3,-7.635809598E-4
3.990798348E2,3.054323897E-4,-2.290742937E-3,-2.138026757E-3
3.995840114E2,2.138026757E-3,-3.207040019E-3,-6.261364091E-3
4.000881881E2,3.054323839E-3,-4.886918236E-3,-5.345067009E-3
4.005923645E2,5.803215317E-3,-4.276053514E-3,-9.926552884E-3
4.010965408E2,9.162971750E-3,-3.665188793E-3,-1.038470119E-2
4.016007170E2,1.634063199E-2,-2.901607659E-3,-1.603520103E-2
4.021048932E2,2.168569900E-2,7.635809598E-4,-1.374445762E-2
4.026090693E2,2.580903657E-2,-1.069013379E-3,-1.389717404E-2
4.031132454E2,3.298669681E-2,1.527161949E-4,-2.153298259E-2
4.036174214E2,3.970621154E-2,3.054323839E-3,-9.010255337E-3
4.041215974E2,4.398226365E-2,-1.527161949E-4,-1.985310577E-2
4.046257733E2,5.375609919E-2,-2.076940238E-2,2.657261863E-2
4.051299492E2,8.552107215E-2,-1.145371422E-2,3.909534588E-2
4.056341251E2,6.383536756E-2,2.474002354E-2,6.658425927E-2
4.061383009E2,-1.038470119E-1,1.473711282E-1,-4.795288667E-2
4.066424766E2,1.794415265E-1,7.742711157E-2,2.015853859E-2
4.071466525E2,-6.093376130E-2,1.828012913E-1,-1.069013402E-2
4.076508284E2,1.253799945E-1,-3.756818548E-2,9.621120058E-3
4.081550042E2,4.245510325E-2,3.222311661E-2,1.145371422E-2
4.086591801E2,5.390881747E-2,5.115992576E-2,-4.581485991E-4
4.091633558E2,5.222893879E-2,3.695731983E-2,5.955931731E-3
4.096675315E2,1.140789986E-1,-1.695149764E-2,-1.343902480E-2
4.101717071E2,6.108647957E-2,2.015853859E-2,6.291907281E-2
4.106758827E2,4.169152305E-2,2.779434808E-2,2.290742937E-3
4.111800581E2,2.168569900E-2,3.924806044E-2,1.786779426E-2
4.116842335E2,5.039634649E-3,1.847865991E-2,2.764163166E-2
4.121884089E2,4.703658819E-2,-1.557705179E-2,7.635809947E-3
4.126925843E2,-5.650499370E-3,-1.985310577E-2,9.926552884E-3
4.131967595E2,-7.330377586E-3,5.283980444E-2,7.330377586E-3
4.137009347E2,-5.497782957E-3,1.756236330E-2,2.703076601E-2
4.142051099E2,-8.093958721E-3,6.719512399E-3,1.939495653E-2
4.147092851E2,-1.664606482E-2,4.581485991E-4,1.802051067E-2
4.152134603E2,-2.321286127E-2,-4.123337101E-3,1.527161989E-2
4.157176354E2,-2.886336111E-2,-4.428769462E-3,1.023198478E-2
4.162218104E2,-4.062250629E-2,-4.734201822E-3,1.130099874E-2
4.167259854E2,-4.413498193E-2,-8.552107029E-3,8.246674202E-3
4.172301603E2,-5.375609919E-2,-7.024944760E-3,5.192350596E-3
4.177343352E2,-6.505709887E-2,-8.093958721E-3,4.276053514E-3
4.182385100E2,-7.162389904E-2,1.221729559E-3,-9.468403645E-3
4.187426847E2,-6.933315098E-2,-1.298087649E-2,-5.955931731E-3
4.192468594E2,-7.223475724E-2,-5.650499370E-3,-2.138026804E-2
4.197510340E2,-7.360920310E-2,-7.330377586E-3,-1.298087649E-2
4.202552086E2,-7.284562290E-2,-1.435532235E-2,-1.908952370E-2
4.207593831E2,-7.177661359E-2,1.374445739E-3,-2.122755162E-2
4.212635575E2,-7.162389904E-2,-5.955931731E-3,-1.725693047E-2
4.217677319E2,-7.498364896E-2,-1.527161920E-3,-1.389717404E-2
4.222719064E2,-7.177661359E-2,-3.512472380E-3,-2.321286127E-2
4.227760810E2,-7.055488229E-2,1.527161920E-3,-2.489273995E-2
4.232802557E2,-5.986474827E-2,1.374445739E-3,-2.977965772E-2
4.237844301E2,-5.192350596E-2,3.054323897E-4,-3.558287397E-2
4.242886043E2,-4.199695215E-2,-1.221729559E-3,-2.855792828E-2
4.247927789E2,-3.100138716E-2,5.803215317E-3,-2.962694131E-2
4.252969542E2,-2.199113183E-2,6.719512399E-3,-3.176496923E-2
4.258011304E2,-1.130099874E-2,2.596175298E-3,-2.306014486E-2
4.263053071E2,-3.054323839E-3,6.108647678E-3,-2.397644334E-2
4.268094843E2,-2.138026757E-3,5.497782957E-3,-7.024944760E-3
4.273136618E2,2.138026757E-3,7.635809947E-3,-5.803215317E-3
4.278178396E2,-6.108647794E-4,5.955931731E-3,-9.162971983E-4
4.283220176E2,-4.428769462E-3,1.985310577E-3,-2.901607659E-3
4.288261959E2,-6.261364091E-3,1.069013379E-3,-3.512472380E-3
4.293303750E2,-4.734201822E-3,-3.054323897E-4,-5.803215317E-3
4.298345545E2,-8.399390616E-3,-3.817904973E-3,4.428769462E-3
4.303387345E2,3.817904973E-3,-3.726275265E-2,-1.527161949E-4
4.308429147E2,6.108647957E-2,-8.994983882E-2,4.734202102E-2
4.313470951E2,-7.849612087E-2,8.200860023E-2,-4.306596518E-2
4.318512756E2,-4.428769462E-3,1.771507785E-2,-7.177661173E-3
4.323554562E2,-4.428769462E-3,-1.832594397E-3,-8.246674202E-3
4.328596369E2,-1.053741761E-2,4.123337101E-3,-1.527161920E-3
4.333638176E2,-7.177661173E-3,6.108647794E-4,-2.290742937E-3
4.338679983E2,-7.330377586E-3,3.054323897E-4,-7.177661173E-3
4.343721791E2,-9.468403645E-3,3.054323897E-4,2.596175298E-3
4.348763597E2,5.039634649E-3,3.817904973E-3,-1.466075517E-2
4.353805403E2,8.246674202E-3,1.252272818E-2,-6.414080039E-3
4.358847206E2,2.443459118E-3,-4.428769462E-3,-4.276053514E-3
4.363889006E2,4.123337101E-3,-7.788525894E-3,-4.886918236E-3
4.368930804E2,-2.138026757E-3,4.581485875E-3,1.069013379E-3
4.373972598E2,2.596175298E-3,1.527161949E-4,-1.985310577E-3
4.379014389E2,-3.970621154E-3,2.443459118E-3,2.138026757E-3
4.384056178E2,1.069013379E-3,-0.000000000E0,7.635809598E-4
4.389097964E2,7.635809598E-4,1.221729559E-3,-1.985310577E-3
4.394139748E2,1.374445739E-3,3.054323897E-4,-1.069013379E-3
4.399181531E2,-1.527161949E-4,-3.359756200E-3,-4.581485991E-4
4.404223312E2,-1.221729559E-3,2.443459118E-3,9.162971983E-4
4.409265094E2,-9.162971983E-4,-1.527161920E-3,-2.596175298E-3
4.414306876E2,-1.221729559E-3,-4.581485991E-4,3.054323897E-4
4.419348656E2,-4.581485991E-4,3.054323839E-3,0.000000000E0
4.424390437E2,7.635809598E-4,-2.138026757E-3,6.108647794E-4
4.429432215E2,-1.007926930E-2,-5.803215317E-3,3.207040019E-3
4.434473993E2,-5.803215317E-3,-6.108647794E-4,-5.497782957E-3
4.439515770E2,3.054323897E-4,-4.581485991E-4,-1.527161920E-3
4.444557546E2,-1.069013379E-3,-9.162971983E-4,4.581485991E-4
4.449599321E2,-1.374445739E-3,2.596175298E-3,-3.054323897E-4
4.454641096E2,1.527161949E-4,1.221729559E-3,-2.138026757E-3
4.459682869E2,1.374445739E-3,-1.069013379E-3,-1.527161920E-3
4.464724641E2,1.985310577E-3,-1.985310577E-3,-7.635809598E-4
4.469766412E2,-6.108647794E-4,6.108647794E-4,-1.527161920E-3
4.474808180E2,-1.527161949E-4,-1.527161949E-4,-1.679878100E-3
4.479849948E2,-9.162971983E-4,9.162971983E-4,-9.162971983E-4
4.484891715E2,-5.497782957E-3,8.399390616E-3,4.428769462E-3
4.489933480E2,4.581485991E-4,3.207040019E-3,-2.443459118E-3
4.494975245E2,1.527161920E-3,4.581485875E-3,-1.527161920E-3
4.500017009E2,-3.207040019E-3,7.941242307E-3,-4.581485991E-4
4.505058771E2,3.054323897E-4,5.192350596E-3,4.581485991E-4
4.510100531E2,-2.138026757E-3,4.123337101E-3,9.162971983E-4
4.515142289E2,-1.985310577E-3,7.941242307E-3,1.221729559E-3
4.520184046E2,-2.138026757E-3,7.941242307E-3,-9.162971983E-4
4.525225803E2,9.162971983E-4,4.428769462E-3,-1.832594397E-3
4.530267559E2,4.581485991E-4,5.192350596E-3,-1.069013379E-3
4.535309315E2,-1.374445739E-3,4.886918236E-3,-1.527161949E-4
4.540351070E2,-5.345067009E-3,3.207040019E-3,-4.428769462E-3
4.545392825E2,-1.313359290E-2,3.512472380E-3,-3.665188793E-3
4.550434582E2,-1.175914705E-2,1.374445739E-3,-5.039634649E-3
4.555476340E2,-1.343902480E-2,-7.635809598E-4,-5.955931731E-3
4.560518102E2,-1.343902480E-2,-1.679878100E-3,-5.192350596E-3
4.565559865E2,-1.191186346E-2,-4.428769462E-3,-3.207040019E-3
4.570601632E2,5.085449293E-2,-8.949168772E-2,1.160643063E-2
4.575643400E2,-5.375609919E-2,-1.357647032E-1,2.092211880E-2
4.580685169E2,-4.886918236E-3,3.695731983E-2,-9.315688163E-3
4.585726940E2,1.985310577E-3,-5.192350596E-3,1.221729559E-3
4.590768710E2,6.261364091E-3,-5.803215317E-3,1.679878100E-3
4.595810481E2,7.941242307E-3,-9.926552884E-3,2.138026757E-3
4.600852249E2,1.939495653E-2,1.481347065E-2,2.336557768E-2
4.605894020E2,-4.398226365E-2,5.054906011E-2,-2.000582218E-2
4.610935790E2,2.138026757E-3,-6.108647794E-4,3.359756200E-3
4.615977560E2,7.635809598E-4,7.635809598E-4,-2.596175298E-3
4.621019334E2,2.596175298E-3,-1.679878100E-3,-3.817904973E-3
4.626061115E2,-1.298087649E-2,-2.565632015E-2,7.788525894E-3
4.631102905E2,-8.399390616E-3,-1.557705179E-2,-1.374445762E-2
4.636144701E2,-5.955931731E-3,-2.901607659E-3,-5.345067009E-3
4.641186501E2,-9.621120058E-3,-2.596175298E-3,4.428769462E-3
4.646228301E2,8.093958721E-3,-2.718348242E-2,8.246674202E-3
4.651270102E2,-8.399390616E-3,8.246674202E-3,-5.345067009E-3
4.656311904E2,6.108647794E-4,5.497782957E-3,-1.053741761E-2
4.661353707E2,-2.443459118E-3,4.581485875E-3,-2.443459118E-3
4.666395510E2,1.069013379E-3,6.108647794E-4,-5.039634649E-3
4.671437311E2,2.290742937E-3,-4.276053514E-3,-2.138026757E-3
4.676479111E2,4.886918236E-3,4.581485875E-3,-1.527161949E-4
4.681520910E2,1.145371422E-2,8.552107029E-3,-1.084284950E-2
4.686562707E2,7.635809947E-3,-7.635809598E-4,-1.985310577E-3
4.691604502E2,9.162971750E-3,6.108647794E-4,-3.665188793E-3
4.696646299E2,1.237001177E-2,4.581485875E-3,-1.985310577E-3
4.701688095E2,1.252272818E-2,9.162971983E-4,3.054323897E-4
4.706729890E2,8.857538924E-3,3.665188793E-3,1.374445739E-3
4.711771685E2,9.162971750E-3,1.374445739E-3,4.123337101E-3
4.716813477E2,9.773836471E-3,4.276053514E-3,1.374445739E-3
4.721855268E2,2.229656465E-2,-9.926552884E-3,1.527161920E-3
4.726897056E2,2.031125315E-2,-2.901607659E-3,-6.719512399E-3
4.731938843E2,4.169152305E-2,-2.061668597E-2,4.276053514E-3
4.736980630E2,-2.122755162E-2,2.779434808E-2,-1.038470119E-2
4.742022416E2,2.397644334E-2,-1.542433538E-2,1.725693047E-2
4.747064199E2,1.695149764E-2,-8.399390616E-3,-1.527161920E-3
4.752105981E2,2.260199748E-2,-8.704823442E-3,-4.886918236E-3
4.757147760E2,4.581485875E-3,6.414080039E-3,3.512472380E-3
4.762189537E2,1.191186346E-2,-5.955931731E-3,1.267544460E-2
4.767231312E2,-2.046396956E-2,2.214384824E-2,1.924224012E-2
4.772273087E2,1.802051067E-2,-1.924224012E-2,-1.160643063E-2
4.777314860E2,-6.108647678E-3,-4.382954910E-2,1.023198478E-2
4.782356632E2,-7.635809598E-4,2.428187430E-2,2.290742844E-2
4.787398403E2,-5.650499370E-3,-3.054323897E-4,-2.000582218E-2
4.792440173E2,1.679878100E-3,1.863137633E-2,-4.123337101E-3
4.797481942E2,-3.665188793E-3,-3.054323839E-3,5.436696485E-2
4.802523710E2,-0.000000000E0,1.114828233E-2,-3.695731983E-2
4.807565477E2,-1.496618707E-2,1.679878123E-2,-1.695149764E-2
4.812607246E2,-7.635809947E-3,7.177661173E-3,-1.985310577E-3
4.817649017E2,6.261364091E-3,7.177661173E-3,-2.443459118E-3
4.822690789E2,1.863137633E-2,2.092211880E-2,-1.206457894E-2
4.827732562E2,9.162971983E-4,9.926552884E-3,2.748891478E-3
4.832774336E2,-0.000000000E0,1.527161949E-4,-5.345067009E-3
4.837816111E2,1.374445739E-3,-7.635809598E-4,-3.207040019E-3
4.842857886E2,1.527161949E-4,1.069013379E-3,-1.221729559E-3
4.847899662E2,-9.162971983E-4,1.374445739E-3,-1.221729559E-3
4.852941439E2,-3.512472380E-3,2.901607659E-3,-1.527161949E-4
4.857983218E2,7.635809598E-4,-1.527161949E-4,1.527161920E-3
4.863024995E2,4.581485991E-4,9.162971983E-4,-1.527161920E-3
4.868066772E2,2.138026757E-3,-1.221729559E-3,-3.817904973E-3
4.873108548E2,7.635809598E-4,-1.221729559E-3,3.054323897E-4
4.878150322E2,9.315688163E-3,-1.970038936E-2,4.734201822E-3
4.883192094E2,3.665188793E-3,-2.718348242E-2,1.145371422E-2
4.888233866E2,-3.970621154E-3,5.803215317E-3,-2.290742937E-3
4.893275639E2,-1.221729559E-3,2.290742937E-3,-3.054323839E-3
4.898317411E2,-6.108647794E-4,1.832594397E-3,-2.290742937E-3
4.903359181E2,4.734201822E-3,-1.099556591E-2,5.345067009E-3
4.908400949E2,7.635809947E-3,-2.748891478E-3,-5.039634649E-3
4.913442714E2,4.581485991E-4,-4.382954910E-2,3.756818548E-2
4.918484480E2,-1.389717404E-2,3.848448023E-2,-3.054323839E-3
4.923526247E2,-1.374445739E-3,3.665188793E-3,-2.596175298E-3
4.928568016E2,7.635809598E-4,1.221729559E-3,-2.138026757E-3
4.933609790E2,-6.566796452E-3,-4.886918236E-3,2.901607659E-3
4.938651568E2,1.359174121E-2,3.054323897E-4,-9.162971750E-3
4.943693350E2,-4.734201822E-3,-6.566796452E-3,2.443459118E-3
4.948735134E2,-9.315688163E-3,-7.635809598E-4,6.872228812E-3
4.953776922E2,1.404988952E-2,1.420260593E-2,-5.345067009E-3
4.958818711E2,1.679878100E-3,9.162971983E-4,9.162971983E-4
4.963860503E2,9.056070447E-2,-1.275180280E-1,8.307760954E-2
4.968902297E2,-1.175914705E-2,3.695731983E-2,1.832594350E-2
4.973944092E2,2.474002354E-2,-9.162971750E-3,-1.023198478E-2
4.978985887E2,5.574141070E-2,-6.261363626E-2,6.948586553E-2
4.984027682E2,-4.718930274E-2,-4.062250629E-2,-3.359756200E-3
4.989069476E2,4.764745384E-2,-8.613193035E-2,7.757982612E-2
4.994111270E2,-9.361502528E-2,1.826485693E-1,-1.224783882E-1
4.999153063E2,9.621120244E-2,-1.768453568E-1,1.679878100E-3
5.004194855E2,-2.764163166E-2,6.856957078E-2,-3.054323839E-3
5.009236646E2,-8.093958721E-3,7.635809947E-3,3.359756200E-3
5.014278435E2,-1.099556591E-2,6.414080039E-3,2.443459118E-3
5.019320223E2,-6.108647794E-4,5.955931731E-3,2.138026757E-3
5.024362010E2,2.535088919E-2,-1.336266696E-1,5.390881747E-2
5.029403797E2,7.987056673E-2,-4.219548404E-1,2.393062711E-1
5.034445584E2,-1.084285006E-1,4.642572403E-1,-1.557705179E-2
5.039487372E2,9.865466505E-2,-1.391244531E-1,1.130099818E-1
5.044529161E2,-4.428769648E-2,3.656025827E-1,-2.489273995E-2
5.049570952E2,-2.367101051E-2,4.092793912E-2,-8.491020650E-2
5.054612741E2,7.177661173E-3,-3.772090003E-2,-2.214384824E-2
5.059654531E2,2.672533318E-2,-4.749473557E-2,-3.634645417E-2
5.064696321E2,-7.086031139E-2,-2.477056682E-1,-2.591593862E-1
5.069738109E2,9.773836471E-3,6.123919412E-2,-1.041524485E-1
5.074779896E2,3.451386094E-2,2.596175298E-2,-6.688969582E-2
5.079821684E2,7.788525894E-3,7.620538026E-2,5.436696485E-2
5.084863471E2,-1.466075517E-2,7.177661359E-2,8.643736690E-2
5.089905257E2,1.298087649E-2,9.010255337E-3,5.619955808E-2
5.094947042E2,-8.704823442E-3,-5.803215317E-3,3.680460155E-2
5.099988826E2,9.926552884E-3,4.169152305E-2,9.010255337E-3
5.105030609E2,4.734201822E-3,1.053741761E-2,1.084284950E-2
5.110072392E2,1.527161949E-4,3.817904973E-3,3.054323897E-4
5.115114173E2,1.374445739E-3,-8.384118974E-2,9.162971983E-4
5.120155953E2,-3.207040019E-3,1.878409274E-2,-7.635809598E-4
5.125197731E2,1.374445762E-2,-1.517999023E-1,3.359756200E-3
5.130239508E2,4.581485991E-4,3.940077871E-2,-1.527161949E-4
5.135281283E2,1.527161949E-4,-1.191186346E-2,3.054323897E-4
5.140323058E2,0.000000000E0,4.581485875E-3,-3.054323897E-4
5.145364833E2,-0.000000000E0,1.603520103E-2,-1.069013379E-3
5.150406607E2,-1.985310577E-3,2.596175298E-2,-1.527161920E-3
5.155448380E2,-1.679878100E-3,8.445205539E-2,-9.162971983E-4
5.160490153E2,1.527161920E-3,-1.878409274E-2,-3.054323897E-4
5.165531925E2,1.527161949E-4,6.719512399E-3,1.527161949E-4
5.170573697E2,4.581485991E-4,5.803215317E-3,3.054323897E-4
5.175615468E2,-1.527161949E-4,1.970038936E-2,-3.054323897E-4
5.180657238E2,3.054323897E-4,4.734201822E-3,9.162971983E-4
5.185699007E2,4.581485991E-4,1.985310577E-3,7.635809598E-4
5.190740774E2,4.581485991E-4,1.374445739E-3,9.162971983E-4
5.195782540E2,1.527161949E-4,1.069013379E-3,7.635809598E-4
5.200824310E2,-1.527161949E-4,7.635809598E-4,4.581485991E-4
5.205866074E2,-3.054323897E-4,3.359756200E-3,0.000000000E0
5.210907837E2,-4.581485991E-4,1.527161920E-3,1.527161949E-4
5.215949598E2,-6.108647794E-4,1.069013379E-3,-3.054323897E-4
5.220991360E2,-1.527161949E-4,2.901607659E-3,-1.069013379E-3
5.226033120E2,1.527161949E-4,2.596175298E-3,9.162971983E-4
5.231074967E2,0.000000000E0,4.581485991E-4,-6.108647794E-4
5.236116636E2,0.000000000E0,5.192350596E-3,-4.581485991E-4
5.241158392E2,6.108647794E-4,-0.000000000E0,6.108647794E-4
5.246200147E2,7.635809598E-4,-3.512472380E-3,-3.054323897E-4
5.251241901E2,7.635809598E-4,-5.803215317E-3,7.635809598E-4
5.256283654E2,7.635809598E-4,-6.566796452E-3,6.108647794E-4
5.261325407E2,1.374445739E-3,-7.941242307E-3,0.000000000E0
5.266367159E2,1.221729559E-3,-3.512472380E-3,-0.000000000E0
5.271408911E2,1.679878100E-3,-6.872228812E-3,6.108647794E-4
5.276450661E2,3.207040019E-3,-6.108647678E-3,6.108647794E-4
5.281492411E2,1.145371422E-2,-4.581485875E-3,3.207040019E-3
5.286534160E2,1.221729559E-3,-5.650499370E-3,4.581485991E-4
5.291575908E2,1.374445739E-3,-1.710421406E-2,-2.748891478E-3
5.296617654E2,4.581485991E-4,-7.635809947E-3,1.985310577E-3
5.301659399E2,1.527161920E-3,-5.039634649E-3,-7.635809598E-4
5.306701143E2,-1.527161949E-4,7.635809598E-4,1.374445739E-3
5.311742887E2,1.221729559E-3,4.581485991E-4,-1.374445739E-3
5.316784629E2,2.290742937E-3,1.527161949E-4,1.527161920E-3
5.321826371E2,1.099556591E-2,-1.252272818E-2,1.527161920E-3
5.326868113E2,1.282816008E-2,-6.078104675E-2,5.650499370E-3
5.331909853E2,1.771507785E-2,1.588248461E-2,-1.527161920E-3
5.336951593E2,1.740964688E-2,3.512472380E-3,4.428769462E-3
5.341993333E2,1.710421406E-2,4.886918236E-3,0.000000000E0
5.347035074E2,2.519817278E-2,-3.054323839E-3,1.679878100E-3
5.352076814E2,1.221729536E-2,-2.962694131E-2,1.221729559E-3
5.357118554E2,1.435532235E-2,-1.007926930E-2,2.290742937E-3
5.362160294E2,3.665188793E-3,-2.993237413E-2,-1.221729559E-3
5.367202034E2,4.581485991E-4,-7.635809598E-4,8.552107029E-3
5.372243775E2,8.857538924E-3,2.840521187E-2,-8.552107029E-3
5.377285514E2,-5.039634649E-3,-0.000000000E0,-3.054323839E-3
5.382327255E2,6.337722391E-2,2.825249545E-2,-2.443459118E-3
5.387368995E2,-3.359756246E-2,-8.781181276E-2,1.985310577E-3
5.392410736E2,3.512472380E-3,1.397353113E-1,-1.374445739E-3
5.397452581E2,-6.108647794E-4,7.635809947E-3,-1.679878100E-3
5.402494215E2,-1.221729559E-3,-6.108647678E-3,0.000000000E0
5.407535955E2,-1.527161949E-4,1.557705179E-2,0.000000000E0
5.412577697E2,-0.000000000E0,1.221729559E-3,1.527161949E-4
5.417619439E2,1.527161949E-4,6.719512399E-3,-1.832594397E-3
5.422661182E2,-4.581485991E-4,1.221729559E-3,-1.069013379E-3
5.427702924E2,-1.374445739E-3,3.970621154E-3,7.635809598E-4
5.432744667E2,-6.108647794E-4,-3.512472380E-3,-1.527161920E-3
5.437786411E2,6.108647794E-4,-6.108647794E-4,3.054323897E-4
5.442828157E2,-3.054323897E-4,6.719512399E-3,-4.581485991E-4
5.447869904E2,1.527161949E-4,2.596175298E-3,3.054323897E-4
5.452911652E2,-3.054323897E-4,-4.581485991E-4,1.527161949E-4
5.457953399E2,-0.000000000E0,1.374445739E-3,1.527161949E-4
5.462995147E2,6.108647794E-4,1.527161949E-4,-1.374445739E-3
5.468036899E2,0.000000000E0,-6.108647794E-4,1.069013379E-3
5.473078657E2,0.000000000E0,-2.290742937E-3,-1.527161920E-3
5.478120419E2,-7.635809598E-4,7.635809598E-4,-7.635809598E-4
5.483162184E2,2.443459118E-3,-1.527161949E-4,-7.024944760E-3
5.488203952E2,8.093958721E-3,7.788525894E-3,-3.512472380E-3
5.493245721E2,1.588248461E-2,1.206457894E-2,-1.053741761E-2
5.498287491E2,2.107483521E-2,1.252272818E-2,-5.803215317E-3
5.503329261E2,2.825249545E-2,1.007926930E-2,-5.955931731E-3
5.508371030E2,3.481929377E-2,1.282816008E-2,-3.207040019E-3
5.513412798E2,4.138609022E-2,1.557705179E-2,-3.970621154E-3
5.518454564E2,4.199695215E-2,1.466075517E-2,3.207040019E-3
5.523496329E2,4.337139800E-2,1.466075517E-2,4.276053514E-3
5.528538093E2,4.291325063E-2,-2.855792828E-2,5.497782957E-3
5.533579856E2,4.123337194E-2,4.489856213E-2,5.039634649E-3
5.538621617E2,3.878991306E-2,2.428187430E-2,5.650499370E-3
5.543663377E2,3.955349326E-2,9.010255337E-3,3.359756200E-3
5.548705135E2,3.863719851E-2,7.483093534E-3,7.330377586E-3
5.553746891E2,3.909534588E-2,1.023198478E-2,2.596175298E-3
5.558788645E2,3.604102135E-2,1.206457894E-2,1.237001177E-2
5.563830398E2,3.481929377E-2,-5.803215317E-3,5.650499370E-3
5.568872151E2,2.703076601E-2,-3.359756200E-3,1.603520103E-2
5.573913902E2,2.214384824E-2,1.023198478E-2,1.099556591E-2
5.578955652E2,1.786779426E-2,-1.130099874E-2,9.010255337E-3
5.583997400E2,1.252272818E-2,4.886918236E-3,1.007926930E-2
5.589039148E2,8.399390616E-3,1.221729559E-3,8.093958721E-3
5.594080894E2,5.192350596E-3,8.399390616E-3,7.330377586E-3
5.599122640E2,3.359756200E-3,-6.566796452E-3,2.901607659E-3
5.604164386E2,4.581485991E-4,-7.941242307E-3,5.497782957E-3
5.609206131E2,7.635809598E-4,1.908952370E-2,-1.374445739E-3
5.614247876E2,-6.108647794E-4,-1.038470119E-2,1.985310577E-3
5.619289620E2,1.374445739E-3,-1.496618707E-2,-1.679878100E-3
5.624331364E2,1.527161920E-3,-5.650499370E-3,1.374445739E-3
5.629373106E2,9.162971983E-4,-6.414080039E-3,-6.108647794E-4
5.634414848E2,0.000000000E0,-5.345067009E-3,9.162971983E-4
5.639456588E2,1.527161949E-4,-5.345067009E-3,3.054323897E-4
5.644498328E2,4.581485991E-4,-4.734201822E-3,3.054323897E-4
5.649540067E2,6.108647794E-4,-3.359756200E-3,6.108647794E-4
5.654581808E2,7.635809598E-4,-1.069013379E-3,-4.581485991E-4
5.659623549E2,3.054323897E-4,1.832594397E-3,7.635809598E-4
5.664665290E2,-7.635809598E-4,7.024944760E-3,-1.527161949E-4
5.669707031E2,-4.581485991E-4,-1.878409274E-2,-3.054323897E-4
5.674748771E2,0.000000000E0,8.552107029E-3,-3.054323897E-4
5.679790511E2,4.581485991E-4,1.679878100E-3,-4.581485991E-4
5.684832251E2,1.527161949E-4,1.527161949E-4,-0.000000000E0
5.689873990E2,3.054323897E-4,-7.635809598E-4,0.000000000E0
5.694915728E2,0.000000000E0,-9.162971750E-3,6.108647794E-4
5.699957466E2,-1.527161949E-4,1.221729559E-3,-3.054323897E-4
5.704999204E2,-0.000000000E0,-6.108647794E-4,-3.054323897E-4
5.710040943E2,-1.527161949E-4,3.054323839E-3,-3.054323897E-4
5.715082682E2,0.000000000E0,-7.635809598E-4,-0.000000000E0
5.720124422E2,-6.108647794E-4,-3.252854943E-2,1.374445739E-3
5.725166162E2,-3.207040019E-3,1.221729559E-3,-9.162971983E-4
5.730207902E2,-1.374445739E-3,6.108647678E-3,9.162971983E-4
5.735249642E2,-2.138026757E-3,2.260199748E-2,-1.832594397E-3
5.740291382E2,-1.527161949E-4,1.069013379E-3,-4.581485991E-4
5.745333122E2,-4.581485991E-4,-3.161225095E-2,6.108647794E-4
5.750374863E2,-6.719512399E-3,1.206457894E-2,-1.374445739E-3
5.755416603E2,-3.054323897E-4,2.596175298E-3,1.527161949E-4
5.760458344E2,-3.054323897E-4,1.374445739E-3,-4.581485991E-4
5.765500085E2,-3.054323897E-4,-7.024944760E-3,-0.000000000E0
5.770541826E2,-1.618791744E-2,-3.711003438E-2,1.679878100E-3
5.775583567E2,-1.527161989E-2,4.077522457E-2,-5.497782957E-3
5.780625305E2,-3.054323897E-4,3.695731983E-2,-1.374445739E-3
5.785667039E2,4.581485991E-4,2.015853859E-2,-1.374445739E-3
5.790708768E2,6.108647794E-4,2.397644334E-2,-9.162971983E-4
5.795750492E2,1.679878100E-3,4.214967042E-2,-1.527161920E-3
5.800792212E2,-4.581485991E-4,-2.138026757E-3,4.581485991E-4
5.805833924E2,4.581485991E-4,4.276053514E-3,-3.054323897E-4
5.810875632E2,4.581485991E-4,9.468403645E-3,-1.527161949E-4
5.815917336E2,-4.581485991E-4,-1.878409274E-2,3.054323897E-4
5.820959035E2,-1.527161949E-4,-1.175914705E-2,3.054323897E-4
5.826000732E2,-4.581485991E-4,3.817904741E-2,-3.054323897E-4
5.831042425E2,4.581485991E-4,1.832594397E-3,-7.635809598E-4
5.836084116E2,3.054323897E-4,6.261364091E-3,-3.054323897E-4
5.841125803E2,1.527161949E-4,1.985310577E-3,-3.054323897E-4
5.846167488E2,0.000000000E0,4.581485875E-3,-0.000000000E0
5.851209170E2,-1.527161949E-4,-4.581485991E-4,1.527161949E-4
5.856250848E2,1.527161949E-4,-4.581485991E-4,-0.000000000E0
5.861292523E2,-0.000000000E0,-7.635809598E-4,0.000000000E0
5.866334195E2,-1.527161949E-4,1.374445739E-3,6.108647794E-4
5.871375864E2,3.054323897E-4,9.162971983E-4,-1.374445739E-3
5.876417529E2,3.054323897E-4,6.108647794E-4,-3.054323897E-4
5.881459192E2,1.527161949E-4,7.635809598E-4,-1.527161949E-4
5.886500850E2,-0.000000000E0,4.581485991E-4,-0.000000000E0
5.891542506E2,1.527161949E-4,1.527161949E-4,-4.581485991E-4
5.896584159E2,-1.527161949E-4,-6.108647794E-4,1.527161949E-4
5.901625815E2,-0.000000000E0,4.581485991E-4,-3.054323897E-4
5.906667476E2,3.054323897E-4,-0.000000000E0,-4.581485991E-4
5.911709146E2,0.000000000E0,-1.527161949E-4,1.527161949E-4
5.916750823E2,0.000000000E0,4.581485991E-4,-3.054323897E-4
5.921792506E2,-0.000000000E0,4.581485991E-4,4.581485991E-4
5.926834191E2,-0.000000000E0,-6.108647794E-4,-1.527161949E-4
5.931875879E2,-0.000000000E0,3.054323897E-4,-1.527161949E-4
5.936917570E2,1.527161949E-4,1.069013379E-3,0.000000000E0
5.941959263E2,1.527161949E-4,4.581485991E-4,-1.527161949E-4
5.947000959E2,-0.000000000E0,1.527161949E-4,-0.000000000E0
5.952042658E2,1.527161949E-4,-0.000000000E0,-1.527161949E-4
5.957084357E2,0.000000000E0,-4.581485991E-4,0.000000000E0
5.962126056E2,-1.527161949E-4,-9.162971983E-4,0.000000000E0
5.967167755E2,0.000000000E0,9.162971983E-4,-0.000000000E0
5.972209455E2,1.527161949E-4,9.162971983E-4,-3.054323897E-4
5.977251154E2,1.527161949E-4,4.581485991E-4,-3.054323897E-4
5.982292854E2,1.527161949E-4,6.108647794E-4,-3.054323897E-4
5.987334556E2,0.000000000E0,3.054323897E-4,-3.054323897E-4
5.992376260E2,0.000000000E0,-1.527161949E-4,-0.000000000E0
5.997417964E2,-1.527161949E-4,-4.581485991E-4,-1.527161949E-4
6.002459669E2,-1.527161949E-4,1.069013379E-3,-3.054323897E-4
6.007501373E2,3.054323897E-4,1.221729559E-3,-1.527161949E-4
6.012543076E2,1.527161949E-4,4.581485991E-4,-0.000000000E0
6.017584779E2,3.054323897E-4,4.581485991E-4,-1.527161949E-4
6.022626481E2,1.527161949E-4,4.581485991E-4,-3.054323897E-4
6.027668183E2,0.000000000E0,-9.162971983E-4,0.000000000E0
6.032709885E2,-3.054323897E-4,4.581485991E-4,-1.527161949E-4
6.037751586E2,1.527161949E-4,1.221729559E-3,-1.527161949E-4
6.042793287E2,1.527161949E-4,1.221729559E-3,-1.527161949E-4
6.047834987E2,-0.000000000E0,1.374445739E-3,-3.054323897E-4
6.052876687E2,-0.000000000E0,4.581485991E-4,-0.000000000E0
6.057918387E2,0.000000000E0,6.108647794E-4,-1.527161949E-4
6.062960087E2,-3.054323897E-4,-4.581485991E-4,-1.527161949E-4
6.068001898E2,-1.527161949E-4,-3.054323897E-4,-1.527161949E-4
6.073043487E2,-1.527161949E-4,1.221729559E-3,-1.527161949E-4
6.078085187E2,-1.527161949E-4,1.679878100E-3,-3.054323897E-4
6.083126887E2,-0.000000000E0,9.162971983E-4,-1.527161949E-4
6.088168586E2,-1.527161949E-4,1.069013379E-3,-1.527161949E-4
6.093210285E2,-3.054323897E-4,7.635809598E-4,-3.054323897E-4
6.098251985E2,-4.581485991E-4,-9.162971983E-4,-1.527161949E-4
6.103293684E2,-6.108647794E-4,4.581485991E-4,-3.054323897E-4
6.108335383E2,-0.000000000E0,2.290742937E-3,-4.581485991E-4
6.113377081E2,1.527161949E-4,9.162971983E-4,-1.527161949E-4
6.118418777E2,0.000000000E0,6.108647794E-4,-1.527161949E-4
6.123460474E2,-1.527161949E-4,9.162971983E-4,-3.054323897E-4
6.128502169E2,-3.054323897E-4,1.069013379E-3,-1.527161949E-4
6.133543864E2,-6.108647794E-4,-7.635809598E-4,-1.527161949E-4
6.138585559E2,-9.162971983E-4,1.527161920E-3,-4.581485991E-4
6.143627255E2,-4.581485991E-4,2.443459118E-3,-4.581485991E-4
6.148668949E2,-0.000000000E0,1.679878100E-3,-4.581485991E-4
6.153710644E2,-4.581485991E-4,1.221729559E-3,-3.054323897E-4
6.158752338E2,-7.635809598E-4,-4.886918236E-3,-1.527161949E-4
6.163794032E2,-1.527161949E-4,2.748891478E-3,4.581485991E-4
6.168835724E2,-2.290742937E-3,3.054323839E-3,-1.985310577E-3
6.173877418E2,-6.108647794E-4,3.359756200E-3,-3.054323897E-4
6.178919111E2,-6.108647794E-4,4.276053514E-3,-9.162971983E-4
6.183960804E2,-7.635809598E-4,1.023198478E-2,1.527161949E-4
6.189002496E2,-3.054323897E-4,1.084284950E-2,-4.581485991E-4
6.194044187E2,-6.108647794E-4,3.054323839E-3,-1.527161949E-4
6.199085878E2,-1.221729559E-3,1.832594397E-3,-3.054323897E-4
6.204127568E2,-1.221729559E-3,7.635809598E-4,-4.581485991E-4
6.209169257E2,-1.221729559E-3,3.512472380E-3,-7.635809598E-4
6.214210945E2,-7.635809598E-4,3.665188793E-3,-6.108647794E-4
6.219252633E2,-7.635809598E-4,1.985310577E-3,-4.581485991E-4
6.224294321E2,-7.635809598E-4,2.443459118E-3,-4.581485991E-4
6.229336010E2,-6.108647794E-4,1.679878100E-3,-3.054323897E-4
6.234377698E2,-6.108647794E-4,7.635809598E-4,-3.054323897E-4
6.239419386E2,-9.162971983E-4,1.527161949E-4,-4.581485991E-4
6.244461074E2,-1.374445739E-3,2.138026757E-3,-6.108647794E-4
6.249502762E2,-4.581485991E-4,3.054323839E-3,-4.581485991E-4
6.254544451E2,0.000000000E0,-2.596175298E-3,0.000000000E0
6.259586138E2,-0.000000000E0,-1.374445739E-3,-1.527161949E-4
6.264627825E2,-0.000000000E0,9.162971983E-4,-3.054323897E-4
6.269669511E2,-3.054323897E-4,-3.054323897E-4,-1.527161949E-4
6.274711197E2,-7.635809598E-4,6.108647794E-4,-3.054323897E-4
6.279752880E2,-7.635809598E-4,2.748891478E-3,-6.108647794E-4
6.284794562E2,-1.527161949E-4,2.901607659E-3,-3.054323897E-4
6.289836244E2,-3.054323897E-4,1.679878100E-3,-3.054323897E-4
6.294877924E2,-6.108647794E-4,7.635809598E-4,-3.054323897E-4
6.299919604E2,-3.054323897E-4,4.581485991E-4,-3.054323897E-4
6.304961283E2,-3.054323897E-4,4.581485991E-4,-3.054323897E-4
6.310002960E2,-7.635809598E-4,-1.527161949E-4,-3.054323897E-4
6.315044637E2,-9.162971983E-4,1.527161949E-4,-3.054323897E-4
6.320086312E2,-6.108647794E-4,1.679878100E-3,-4.581485991E-4
6.325127986E2,-1.527161949E-4,2.138026757E-3,-4.581485991E-4
6.330169661E2,-1.527161949E-4,3.054323897E-4,-1.527161949E-4
6.335211335E2,-4.581485991E-4,7.635809598E-4,-1.527161949E-4
6.340253010E2,-1.527161949E-4,6.108647794E-4,-1.527161949E-4
6.345294685E2,-7.635809598E-4,-1.069013379E-3,-1.527161949E-4
6.350336359E2,-3.054323897E-4,-1.374445739E-3,-1.527161949E-4
6.355378033E2,-0.000000000E0,1.985310577E-3,-3.054323897E-4
6.360419706E2,-3.054323897E-4,1.527161920E-3,-3.054323897E-4
6.365461379E2,-3.054323897E-4,7.635809598E-4,-1.527161949E-4
6.370503052E2,-1.527161949E-4,1.832594397E-3,-3.054323897E-4
6.375544725E2,-3.054323897E-4,6.108647794E-4,-1.527161949E-4
6.380586398E2,-4.581485991E-4,1.527161949E-4,-3.054323897E-4
6.385628070E2,-3.054323897E-4,-9.162971983E-4,-1.527161949E-4
6.390669741E2,-4.581485991E-4,-6.108647794E-4,-1.527161949E-4
6.395711412E2,-1.527161949E-4,1.527161920E-3,-3.054323897E-4
6.400753097E2,-3.054323897E-4,9.162971983E-4,-3.054323897E-4
6.405794766E2,-0.000000000E0,6.108647794E-4,-3.054323897E-4
6.410836436E2,-3.054323897E-4,4.581485991E-4,-1.527161949E-4
6.415878105E2,-3.054323897E-4,6.108647794E-4,-1.527161949E-4
6.420919774E2,-3.054323897E-4,-1.679878100E-3,-3.054323897E-4
6.425961442E2,-3.054323897E-4,3.054323897E-4,-1.527161949E-4
6.431003109E2,-1.527161949E-4,1.527161920E-3,-4.581485991E-4
6.436044775E2,-1.527161949E-4,3.054323897E-4,-0.000000000E0
6.441086441E2,-0.000000000E0,9.162971983E-4,-1.527161949E-4
6.446128108E2,-1.527161949E-4,-0.000000000E0,-1.527161949E-4
6.451169775E2,-1.527161949E-4,-1.527161949E-4,-1.527161949E-4
6.456211442E2,-6.108647794E-4,-6.108647794E-4,-1.527161949E-4
6.461253108E2,-4.581485991E-4,9.162971983E-4,-3.054323897E-4
6.466294775E2,-3.054323897E-4,3.054323897E-4,-0.000000000E0
6.471336441E2,-1.069013379E-3,-5.650499370E-3,3.054323897E-4
6.476378107E2,-5.345067009E-3,-5.803215317E-3,-1.374445739E-3
6.481419773E2,-0.000000000E0,1.863137633E-2,-1.374445739E-3
6.486461438E2,1.527161949E-4,3.817904973E-3,-3.054323897E-4
6.491503101E2,-4.581485991E-4,3.054323839E-3,-1.527161949E-4
6.496544765E2,-0.000000000E0,5.650499370E-3,-3.054323897E-4
6.501586427E2,-3.054323897E-4,1.221729559E-3,-1.527161949E-4
6.506628088E2,-3.054323897E-4,1.527161920E-3,-3.054323897E-4
6.511669748E2,-3.054323897E-4,7.635809598E-4,-1.527161949E-4
6.516711408E2,-4.581485991E-4,-6.108647794E-4,-1.527161949E-4
6.521753069E2,-7.635809598E-4,9.162971983E-4,-3.054323897E-4
6.526794729E2,-1.527161949E-4,2.290742937E-3,-4.581485991E-4
6.531836389E2,-3.054323897E-4,1.221729559E-3,-3.054323897E-4
6.536878049E2,-4.581485991E-4,1.374445739E-3,-1.527161949E-4
6.541919707E2,-3.054323897E-4,4.581485991E-4,-3.054323897E-4
6.546961366E2,-4.581485991E-4,1.069013379E-3,-3.054323897E-4
6.552003025E2,-3.054323897E-4,1.069013379E-3,-3.054323897E-4
6.557044682E2,-4.581485991E-4,1.374445739E-3,-3.054323897E-4
6.562086339E2,-4.581485991E-4,1.527161949E-4,-1.527161949E-4
6.567127997E2,-7.635809598E-4,-1.527161949E-4,-1.527161949E-4
6.572169655E2,7.849612087E-2,-3.834703565E-1,1.096502244E-1
6.577211314E2,4.062250629E-2,4.761691093E-1,-3.359756246E-2
6.582252973E2,4.673115537E-2,1.495091617E-1,8.399390616E-3
6.587294631E2,-2.031125315E-2,1.146898642E-1,8.552107029E-3
6.592336289E2,1.579085439E-1,3.970621154E-2,5.497782957E-3
6.597377947E2,-1.117882580E-1,1.120936871E-1,4.046979174E-2
6.602419606E2,-5.619955808E-2,5.986474827E-2,-1.679878100E-3
6.607461265E2,-7.941242307E-3,3.573558852E-2,-5.650499370E-3
6.612502923E2,1.069013379E-3,1.435532235E-2,5.803215317E-3
6.617544582E2,3.289506733E-1,-3.457494676E-1,-2.904661894E-1
6.622586242E2,-8.613193035E-2,2.455676347E-1,-1.363755614E-1
6.627627904E2,9.162971983E-4,1.661552191E-1,-4.993819445E-2
6.632669567E2,-3.817904973E-3,1.863137633E-2,8.704823442E-3
6.637711232E2,3.817904973E-3,3.970621154E-3,1.053741761E-2
6.642752901E2,1.527161920E-3,-7.177661173E-3,5.955931731E-3
6.647794574E2,-1.178968996E-1,-1.234099627E0,4.379900396E-1
6.652836249E2,1.531743407E-1,-3.619373739E-1,3.791943192E-1
6.657877927E2,1.069013379E-3,2.148716897E-1,6.612611562E-2
6.662919608E2,-2.825249545E-2,2.452622056E-1,-2.257145345E-1
6.667961291E2,-1.631008983E-1,-2.886336111E-2,3.222311661E-2
6.673002976E2,-1.299614757E-1,-2.535088919E-2,-2.131918073E-1
6.678044662E2,-8.842267841E-2,-1.363755614E-1,5.345067009E-3
6.683086348E2,1.175914705E-2,-4.749473557E-2,-1.130099874E-2
6.688128034E2,8.216131479E-2,-1.201876476E-1,-5.986474827E-2
6.693169720E2,-6.566796452E-3,4.596757516E-2,-9.162971750E-3
6.698211407E2,2.855792828E-2,3.359756246E-2,-4.581485991E-4
6.703253095E2,7.635809947E-3,1.527161989E-2,-2.748891478E-3
6.708294783E2,-2.138026757E-3,4.581485991E-4,-4.428769462E-3
6.713336470E2,-1.832594397E-3,4.428769462E-3,-1.832594397E-3
6.718378157E2,-0.000000000E0,-1.527161920E-3,-3.054323897E-4
6.723419843E2,-7.635809598E-4,5.497782957E-3,-1.374445739E-3
6.728461528E2,-9.162971983E-4,8.093958721E-3,-1.221729559E-3
6.733503213E2,-0.000000000E0,7.635809598E-4,-6.108647794E-4
6.738544897E2,-3.054323897E-4,1.679878100E-3,-6.108647794E-4
6.743586581E2,-1.527161949E-4,-4.581485991E-4,-4.581485991E-4
6.748628266E2,-3.054323897E-4,1.985310577E-3,-0.000000000E0
6.753669951E2,0.000000000E0,1.832594397E-3,-3.054323897E-4
6.758711635E2,-4.581485991E-4,9.162971983E-4,-1.374445739E-3
6.763753319E2,-3.054323897E-4,1.069013379E-3,-7.635809598E-4
6.768795002E2,3.054323897E-4,-0.000000000E0,-6.108647794E-4
6.773836686E2,0.000000000E0,7.635809598E-4,-6.108647794E-4
6.778878369E2,3.054323897E-4,7.635809598E-4,-4.581485991E-4
6.783920053E2,-1.527161949E-4,-9.162971983E-4,-1.527161949E-4
6.788961735E2,3.054323897E-4,-1.527161949E-4,-1.527161949E-4
6.794003416E2,1.527161949E-4,1.527161920E-3,-3.054323897E-4
6.799045097E2,-1.527161949E-4,3.054323897E-4,-9.162971983E-4
6.804086776E2,-0.000000000E0,1.527161949E-4,-7.635809598E-4
6.809128453E2,-1.527161949E-4,-1.527161949E-4,-3.054323897E-4
6.814170130E2,1.527161949E-4,1.527161949E-4,-3.054323897E-4
6.819211807E2,-1.527161949E-4,-1.527161949E-4,-4.581485991E-4
6.824253485E2,0.000000000E0,-3.054323897E-4,-1.527161949E-4
6.829295163E2,0.000000000E0,3.970621154E-3,-7.635809598E-4
6.834336841E2,-1.832594397E-3,1.817322709E-2,-1.221729559E-3
6.839378523E2,-3.207040019E-3,2.550360374E-2,-3.817904973E-3
6.844420205E2,3.054323897E-4,1.603520103E-2,-3.817904973E-3
6.849461889E2,2.138026757E-3,2.122755162E-2,-1.221729559E-3
6.854503576E2,-1.527161949E-4,3.359756200E-3,-1.527161949E-4
6.859545264E2,0.000000000E0,6.108647794E-4,1.527161949E-4
6.864586953E2,-0.000000000E0,1.069013379E-3,-1.527161949E-4
6.869628642E2,3.054323897E-4,1.221729559E-3,-1.527161949E-4
6.874670330E2,-7.635809598E-4,1.985310577E-3,-1.069013379E-3
6.879712018E2,-7.635809598E-4,1.221729559E-3,-1.069013379E-3
6.884753705E2,-3.054323897E-4,-1.374445739E-3,-1.679878100E-3
6.889795392E2,4.581485991E-4,-1.527161949E-4,1.527161949E-4
6.894837079E2,-3.054323839E-3,-2.748891478E-3,2.596175298E-3
6.899878766E2,-5.497782957E-3,-1.542433538E-2,6.414080039E-3
6.904920451E2,2.061668597E-2,1.007926930E-2,-9.773836471E-3
6.909962135E2,3.298669681E-2,5.283980444E-2,3.512472380E-3
6.915003817E2,-1.664606482E-2,-1.282816008E-2,-3.817904973E-3
6.920045499E2,-3.100138716E-2,3.191768378E-2,-4.886918236E-3
6.925087179E2,-4.581485875E-3,5.192350596E-3,2.290742937E-3
6.930128860E2,-2.596175298E-3,-6.108647678E-3,1.527161920E-3
6.935170540E2,-3.512472380E-3,-5.345067009E-3,1.832594397E-3
6.940212220E2,-9.162971983E-4,-3.054323839E-3,-6.108647794E-4
6.945253900E2,6.108647794E-4,-7.024944760E-3,2.748891478E-3
6.950295579E2,-1.374445739E-3,-5.192350596E-3,-1.679878100E-3
6.955337258E2,0.000000000E0,-7.177661173E-3,3.665188793E-3
6.960378940E2,4.428769462E-3,-1.313359290E-2,-3.054323897E-4
6.965420624E2,1.985310577E-3,-1.252272818E-2,3.207040019E-3
6.970462307E2,-3.359756200E-3,-8.552107029E-3,3.512472380E-3
6.975503991E2,-6.566796452E-3,-1.007926930E-2,5.650499370E-3
6.980545674E2,-8.704823442E-3,-1.114828233E-2,1.527161920E-3
6.985587356E2,-1.450803876E-2,-7.330377586E-3,5.955931731E-3
6.990629038E2,-1.847865991E-2,-4.123337101E-3,7.635809598E-4
6.995670719E2,-2.336557768E-2,-1.374445739E-3,6.566796452E-3
7.000712378E2,-2.947422490E-2,-6.566796452E-3,3.817904973E-3
7.005754059E2,-3.191768378E-2,-1.679878100E-3,4.734201822E-3
7.010795740E2,-3.619373962E-2,-4.169152305E-2,2.138026757E-3
7.015837419E2,-2.993237413E-2,-6.108647678E-3,1.679878100E-3
7.020879094E2,-3.268126398E-2,-1.069013379E-3,-1.527161949E-4
7.025920765E2,-3.527744114E-2,-3.665188793E-3,7.635809598E-4
7.030962431E2,-3.298669681E-2,3.054323839E-3,-3.970621154E-3
7.036004094E2,-2.871064469E-2,6.414080039E-3,-3.359756200E-3
7.041045755E2,-2.183841541E-2,4.276053514E-3,-2.901607659E-3
7.046087412E2,-1.282816008E-2,2.901607659E-3,-6.108647678E-3
7.051129065E2,-1.145371422E-2,6.261364091E-3,-3.512472380E-3
7.056170713E2,-6.261364091E-3,7.024944760E-3,-3.512472380E-3
7.061212357E2,-1.374445739E-3,6.261364091E-3,-2.443459118E-3
7.066253997E2,-7.635809598E-4,9.621120058E-3,1.527161949E-4
7.071295640E2,-1.069013379E-3,6.872228812E-3,1.679878100E-3
7.076337286E2,-2.138026757E-3,5.955931731E-3,-2.748891478E-3
7.081378936E2,3.054323897E-4,3.359756200E-3,-7.635809598E-4
7.086420591E2,0.000000000E0,-2.138026757E-3,1.221729559E-3
7.091462250E2,-6.108647794E-4,-1.832594397E-3,3.359756200E-3
7.096503912E2,-7.635809947E-3,-2.596175298E-3,3.970621154E-3
7.101545572E2,-1.450803876E-2,1.221729559E-3,3.970621154E-3
7.106587232E2,-1.740964688E-2,1.527161920E-3,4.886918236E-3
7.111628888E2,-2.474002354E-2,9.162971983E-4,0.000000000E0
7.116670540E2,-2.565632015E-2,-1.527161949E-4,1.374445739E-3
7.121712188E2,-2.596175298E-2,-5.039634649E-3,1.679878100E-3
7.126753833E2,-2.535088919E-2,-4.581485875E-3,0.000000000E0
7.131795475E2,-2.641990222E-2,-3.512472380E-3,-1.832594397E-3
7.136837114E2,-2.565632015E-2,-3.359756200E-3,1.985310577E-3
7.141878751E2,-2.275471389E-2,-2.443459118E-3,-2.596175298E-3
7.146920386E2,-1.756236330E-2,-6.108647794E-4,-5.345067009E-3
7.151962019E2,-1.038470119E-2,-2.290742937E-3,-3.512472380E-3
7.157003649E2,-6.261364091E-3,-0.000000000E0,-2.138026757E-3
7.162045275E2,-7.635809598E-4,-1.221729559E-3,-3.207040019E-3
7.167086899E2,1.374445739E-3,-1.069013379E-3,-6.108647794E-4
7.172128521E2,9.162971983E-4,-6.108647794E-4,2.290742937E-3
7.177170140E2,3.054323897E-4,1.527161920E-3,-1.985310577E-3
7.182211755E2,-1.679878100E-3,-1.221729559E-3,-1.527161949E-4
7.187253368E2,1.221729559E-3,1.069013379E-3,-7.635809598E-4
7.192294979E2,0.000000000E0,2.290742937E-3,-3.054323897E-4
7.197336590E2,-1.221729559E-3,5.497782957E-3,-1.527161920E-3
7.202378199E2,-6.108647794E-4,5.955931731E-3,9.162971983E-4
7.207419807E2,1.527161920E-3,1.420260593E-2,-4.734201822E-3
7.212461413E2,-1.069013379E-3,7.941242307E-3,3.054323897E-4
7.217503018E2,-4.581485991E-4,7.941242307E-3,-2.748891478E-3
7.222544622E2,-0.000000000E0,8.857538924E-3,-4.581485991E-4
7.227586227E2,1.527161949E-4,7.330377586E-3,-1.069013379E-3
7.232627832E2,-9.162971983E-4,6.108647678E-3,1.221729559E-3
7.237669438E2,-1.679878100E-3,5.955931731E-3,-6.108647794E-4
7.242711043E2,-1.221729559E-3,7.330377586E-3,-1.527161949E-4
7.247752648E2,7.635809598E-4,7.635809947E-3,-2.901607659E-3
7.252794254E2,3.054323897E-4,2.901607659E-3,-3.054323897E-4
7.257835863E2,-1.527161949E-4,-1.527161949E-4,6.108647794E-4
7.262877475E2,0.000000000E0,-9.162971983E-4,-2.138026757E-3
7.267919087E2,-7.635809598E-4,-9.162971983E-4,1.221729559E-3
7.272960700E2,1.374445739E-3,2.901607659E-3,-1.374445739E-3
7.278002312E2,1.527161949E-4,-1.832594397E-3,1.985310577E-3
7.283043922E2,-1.527161949E-4,1.069013379E-3,-1.374445739E-3
7.288085530E2,6.108647794E-4,0.000000000E0,-1.527161920E-3
7.293127137E2,4.581485991E-4,2.748891478E-3,3.054323897E-4
7.298168742E2,-1.527161949E-4,-0.000000000E0,1.527161949E-4
7.303210346E2,-4.581485991E-4,1.069013379E-3,-1.527161949E-4
7.308251948E2,7.635809598E-4,-1.679878100E-3,-1.374445739E-3
7.313293557E2,7.635809598E-4,2.138026757E-3,1.679878100E-3
7.318335176E2,-4.581485991E-4,-9.162971983E-4,-2.748891478E-3
7.323376805E2,3.054323897E-4,-1.985310577E-3,-0.000000000E0
7.328418442E2,-0.000000000E0,9.162971983E-4,-3.054323897E-4
7.333460085E2,7.635809598E-4,1.069013379E-3,7.635809598E-4
7.338501733E2,-1.069013379E-3,-2.596175298E-3,-0.000000000E0
7.343543386E2,-4.581485991E-4,-4.123337101E-3,2.596175298E-3
7.348585043E2,-1.221729559E-3,-3.970621154E-3,7.635809598E-4
7.353626704E2,1.221729559E-3,6.108647794E-4,-2.443459118E-3
7.358668366E2,9.162971983E-4,1.985310577E-3,4.581485991E-4
7.363710030E2,-3.054323897E-4,-1.069013379E-3,-3.054323897E-4
7.368751695E2,0.000000000E0,-1.527161949E-4,-7.635809598E-4
7.373793361E2,-1.527161949E-4,-7.635809598E-4,2.596175298E-3
7.378835029E2,-2.428187430E-2,2.153298259E-2,1.374445739E-3
7.383876697E2,-5.925388262E-2,5.849030241E-2,1.511890348E-2
7.388918367E2,1.521053314E-1,-9.560033679E-2,6.291907281E-2
7.393960037E2,8.216131479E-2,-6.352993846E-2,-1.298087649E-2
7.399001708E2,-1.382081509E-1,1.003345400E-1,-3.313941509E-2
7.404043379E2,-2.458730713E-2,-2.367101051E-2,2.138026757E-3
7.409085050E2,-5.039634649E-3,-2.687804960E-2,-2.138026804E-2
7.414126720E2,-2.138026757E-3,-7.635809947E-3,-9.162971983E-4
7.419168390E2,-6.566796452E-3,-4.138609022E-2,-5.039634649E-3
7.424210063E2,1.527161949E-4,5.650499370E-3,-1.069013379E-3
7.429251739E2,1.832594397E-3,1.832594397E-3,1.527161949E-4
7.434293418E2,-2.290742937E-3,1.374445739E-3,-3.970621154E-3
7.439335099E2,-1.527161949E-4,1.374445739E-3,-8.399390616E-3
7.444376783E2,6.566796452E-3,6.108647678E-3,-1.145371422E-2
7.449418470E2,1.710421406E-2,1.832594397E-3,-1.221729536E-2
7.454460159E2,2.183841541E-2,5.192350596E-3,-1.466075517E-2
7.459501849E2,2.977965772E-2,4.276053514E-3,-1.237001177E-2
7.464543541E2,3.741546720E-2,8.704823442E-3,-1.252272818E-2
7.469585233E2,4.398226365E-2,5.497782957E-3,-8.704823442E-3
7.474626927E2,4.856374860E-2,1.267544460E-2,-4.581485875E-3
7.479668621E2,4.841103405E-2,1.023198478E-2,-4.581485991E-4
7.484710317E2,4.673115537E-2,9.773836471E-3,1.679878100E-3
7.489752012E2,4.550942779E-2,7.635809947E-3,3.970621154E-3
7.494793708E2,3.878991306E-2,7.330377586E-3,1.298087649E-2
7.499835402E2,3.283398226E-2,7.635809947E-3,7.635809947E-3
7.504877096E2,2.855792828E-2,1.221729559E-3,1.343902480E-2
7.509918788E2,2.229656465E-2,2.901607659E-3,9.926552884E-3
7.514960481E2,1.511890348E-2,2.901607659E-3,9.621120058E-3
7.520002173E2,9.468403645E-3,-6.108647794E-4,7.788525894E-3
7.525043865E2,7.024944760E-3,-6.566796452E-3,8.857538924E-3
7.530085556E2,1.374445739E-3,-1.023198478E-2,1.221729559E-3
7.535127247E2,-4.581485991E-4,-2.443459118E-3,4.276053514E-3
7.540168938E2,-1.221729559E-3,-1.252272818E-2,1.527161920E-3
7.545210630E2,6.108647678E-3,4.581485991E-4,5.192350596E-3
7.550252322E2,-9.162971983E-4,-3.207040019E-3,-6.414080039E-3
7.555294016E2,-7.635809598E-4,1.679878100E-3,-3.054323897E-4
7.560335711E2,4.581485991E-4,6.108647794E-4,-2.138026757E-3
7.565377407E2,4.581485991E-4,1.985310577E-3,9.162971983E-4
7.570419104E2,1.069013379E-3,-9.315688163E-3,1.985310577E-3
7.575460802E2,-1.374445739E-3,-9.162971983E-4,0.000000000E0
7.580502500E2,1.069013379E-3,-7.635809598E-4,-7.635809598E-4
7.585544200E2,3.054323897E-4,-4.581485991E-4,2.138026757E-3
7.590585902E2,-1.374445739E-3,3.970621154E-3,-7.024944760E-3
7.595627605E2,9.162971983E-4,-1.527161920E-3,1.374445739E-3
7.600669313E2,-1.527161949E-4,-2.901607659E-3,1.527161949E-4
7.605711018E2,2.596175298E-3,-1.404988952E-2,4.123337101E-3
7.610752724E2,1.527161920E-3,-8.857538924E-3,3.054323897E-4
7.615794431E2,1.679878100E-3,-6.719512399E-3,2.138026757E-3
7.620836142E2,1.221729559E-3,-8.857538924E-3,-3.207040019E-3
7.625877855E2,7.635809598E-4,-8.246674202E-3,3.970621154E-3
7.630919572E2,1.221729559E-3,-1.114828233E-2,-4.734201822E-3
7.635961291E2,4.581485991E-4,-1.007926930E-2,3.359756200E-3
7.641003012E2,6.108647794E-4,-2.031125315E-2,-1.527161949E-4
7.646044736E2,2.290742937E-3,-2.260199748E-2,3.665188793E-3
7.651086463E2,9.162971983E-4,2.290742937E-3,-2.290742937E-3
7.656128196E2,6.108647794E-4,-1.069013379E-3,-9.162971983E-4
7.661169936E2,1.679878100E-3,-9.162971750E-3,4.428769462E-3
7.666211680E2,-4.276053514E-3,-3.527744114E-2,4.581485991E-4
7.671253425E2,3.665188793E-3,-4.031707719E-2,-0.000000000E0
7.676295168E2,-1.985310577E-3,9.315688163E-3,2.138026757E-3
7.681336910E2,-1.527161949E-4,1.221729559E-3,-3.817904973E-3
7.686378650E2,-3.054323897E-4,-2.748891478E-3,7.635809598E-4
7.691420387E2,1.374445739E-3,-4.734201822E-3,1.985310577E-3
7.696462123E2,-1.221729559E-3,1.572976820E-2,1.527161920E-3
7.701503856E2,-1.832594397E-3,7.635809947E-3,-1.298087649E-2
7.706545588E2,-1.221729559E-3,5.818486959E-2,-4.886918236E-3
7.711587316E2,2.138026757E-3,-2.901607659E-3,2.443459118E-3
7.716629043E2,3.054323897E-4,-4.581485991E-4,-2.138026757E-3
7.721670766E2,1.527161920E-3,2.748891478E-3,1.527161920E-3
7.726712488E2,1.527161949E-4,5.192350596E-3,-1.527161920E-3
7.731754208E2,-9.162971983E-4,-2.596175298E-3,1.527161949E-4
7.736795927E2,-1.527161949E-4,3.054323897E-4,-7.635809598E-4
7.741837643E2,-1.527161949E-4,-1.069013379E-3,-9.162971983E-4
7.746879358E2,-4.581485991E-4,-1.374445739E-3,1.527161949E-4
7.751921071E2,-1.679878100E-3,1.206457894E-2,-3.970621154E-3
7.756962781E2,2.290742937E-3,6.108647794E-4,2.443459118E-3
7.762004491E2,3.207040019E-3,-6.719512399E-3,4.276053514E-3
7.767046201E2,-6.108647794E-4,3.054323897E-4,3.054323839E-3
7.772087910E2,-9.926552325E-2,1.412624866E-1,-5.650499370E-3
7.777129621E2,-6.261363626E-2,2.889390290E-1,-3.817904973E-3
7.782171338E2,4.886918236E-3,-9.926552884E-3,3.817904973E-3
7.787213042E2,-5.955931731E-3,-5.833758786E-2,-4.276053514E-3
7.792254752E2,3.756818548E-2,-8.185587823E-2,4.428769462E-3
7.797296461E2,1.435532235E-2,-4.886918236E-3,-1.679878100E-3
7.802338170E2,-6.108647678E-3,-4.276053514E-3,-1.527161920E-3
7.807379877E2,1.069013379E-3,-9.162971750E-3,1.985310577E-3
7.812421585E2,7.177661173E-3,-1.695149764E-2,4.734201822E-3
7.817463292E2,8.338304609E-2,-1.232419685E-1,1.160643063E-2
7.822505000E2,-4.230238497E-2,1.817322709E-2,-8.704823442E-3
7.827546708E2,-4.734201822E-3,2.122755162E-2,-3.512472380E-3
7.832588415E2,2.138026757E-3,1.053741761E-2,-2.901607659E-3
7.837630125E2,-3.054323897E-4,7.330377586E-3,-2.290742937E-3
7.842671834E2,-4.581485991E-4,1.221729559E-3,-1.069013379E-3
7.847713546E2,-6.566796452E-3,-1.420260593E-2,4.276053514E-3
7.852755257E2,-5.192350596E-3,2.596175298E-3,-3.054323897E-4
7.857796971E2,-7.635809598E-4,8.552107029E-3,-2.748891478E-3
7.862838683E2,6.108647794E-4,4.123337101E-3,-9.162971983E-4
7.867880396E2,-1.527161949E-4,1.069013379E-3,-0.000000000E0
7.872922108E2,4.581485991E-4,1.679878100E-3,-1.374445739E-3
7.877963820E2,1.527161949E-4,6.108647794E-4,-6.108647794E-4
7.883005531E2,-0.000000000E0,1.527161949E-4,0.000000000E0
7.888047242E2,1.527161949E-4,1.527161949E-4,-6.108647794E-4
7.893088952E2,-1.527161949E-4,1.221729559E-3,0.000000000E0
7.898130660E2,0.000000000E0,-7.635809598E-4,-1.527161949E-4
7.903172367E2,-1.069013379E-3,3.054323897E-4,0.000000000E0
7.908214072E2,-6.108647794E-4,-0.000000000E0,-3.054323897E-4
7.913255776E2,1.527161949E-4,7.635809598E-4,-4.581485991E-4
7.918297478E2,1.527161949E-4,1.069013379E-3,-1.221729559E-3
7.923339180E2,-0.000000000E0,-6.108647794E-4,3.054323897E-4
7.928380882E2,1.527161949E-4,3.054323897E-4,-4.581485991E-4
7.933422584E2,-0.000000000E0,0.000000000E0,0.000000000E0
7.938464286E2,-0.000000000E0,-1.069013379E-3,4.581485991E-4
7.943505987E2,-4.581485991E-4,4.581485991E-4,1.527161949E-4
7.948547687E2,1.527161949E-4,1.069013379E-3,-7.635809598E-4
7.953589387E2,0.000000000E0,-3.054323897E-4,-0.000000000E0
7.958631086E2,-1.527161949E-4,-3.054323897E-4,-3.054323897E-4
7.963672783E2,-0.000000000E0,3.054323897E-4,0.000000000E0
7.968714479E2,0.000000000E0,-6.108647794E-4,-1.527161949E-4
7.973756174E2,-7.635809598E-4,-7.635809598E-4,3.054323897E-4
7.978797867E2,-1.527161949E-4,1.069013379E-3,-4.581485991E-4
7.983839560E2,-0.000000000E0,4.581485991E-4,-3.054323897E-4
7.988881250E2,3.054323897E-4,3.054323897E-4,-1.527161949E-4
7.993922940E2,-1.527161949E-4,-1.527161949E-4,3.054323897E-4
7.998964629E2,-6.108647794E-4,-3.207040019E-3,6.108647794E-4
8.004006318E2,-6.108647794E-4,1.221729559E-3,6.108647794E-4
8.009048005E2,-2.076940238E-2,-1.267544460E-2,6.566796452E-3
8.014089691E2,1.038470119E-2,3.970621154E-2,-8.399390616E-3
8.019131377E2,-2.138026757E-3,-1.496618707E-2,-1.527161949E-4
8.024173061E2,-1.527161949E-4,2.901607659E-3,-0.000000000E0
8.029214744E2,-1.527161949E-4,-0.000000000E0,-3.054323897E-4
8.034256427E2,4.581485991E-4,6.108647794E-4,0.000000000E0
8.039298109E2,1.527161949E-4,9.162971983E-4,-1.527161949E-4
8.044339790E2,-1.527161949E-4,4.581485991E-4,-0.000000000E0
8.049381469E2,-3.054323897E-4,1.985310577E-3,3.054323897E-4
8.054423148E2,0.000000000E0,7.635809598E-4,1.221729559E-3
8.059464825E2,3.054323897E-4,3.207040019E-3,-1.527161920E-3
8.064506503E2,1.527161949E-4,1.374445739E-3,-4.581485991E-4
8.069548180E2,0.000000000E0,4.581485991E-4,-1.527161949E-4
8.074589856E2,0.000000000E0,-4.581485991E-4,-1.527161949E-4
8.079631532E2,0.000000000E0,1.527161949E-4,-1.527161949E-4
8.084673206E2,0.000000000E0,-0.000000000E0,-1.527161949E-4
8.089714879E2,0.000000000E0,3.054323897E-4,-0.000000000E0
8.094756551E2,0.000000000E0,-3.054323897E-4,0.000000000E0
8.099798222E2,-1.527161949E-4,-9.162971983E-4,-1.527161949E-4
8.104839890E2,-1.527161949E-4,-1.527161949E-4,-3.054323897E-4
8.109881554E2,-0.000000000E0,-4.581485991E-4,0.000000000E0
8.114923216E2,-1.527161949E-4,-1.374445739E-3,1.527161949E-4
8.119964879E2,-0.000000000E0,3.054323897E-4,-3.054323897E-4
8.125006549E2,1.527161949E-4,-0.000000000E0,-1.527161949E-4
8.130048225E2,0.000000000E0,-0.000000000E0,-1.527161949E-4
8.135089906E2,0.000000000E0,-7.635809598E-4,0.000000000E0
8.140131592E2,1.527161949E-4,3.054323897E-4,-0.000000000E0
8.145173279E2,-1.527161949E-4,-7.635809598E-4,-0.000000000E0
8.150214968E2,-2.443459118E-3,1.832594397E-3,3.054323897E-4
8.155256658E2,-0.000000000E0,1.527161949E-4,1.527161949E-4
8.160298347E2,3.054323897E-4,1.221729559E-3,-7.635809598E-4
8.165340036E2,0.000000000E0,-1.527161949E-4,-1.527161949E-4
8.170381725E2,-1.527161949E-4,-1.527161949E-4,-1.527161949E-4
8.175423413E2,0.000000000E0,3.054323897E-4,-1.527161949E-4
8.180465100E2,1.527161949E-4,-3.054323897E-4,-1.527161949E-4
8.185506786E2,1.527161949E-4,-0.000000000E0,-0.000000000E0
8.190548471E2,0.000000000E0,0.000000000E0,-1.527161949E-4
8.195590153E2,-1.527161949E-4,-1.374445739E-3,1.527161949E-4
8.200631841E2,0.000000000E0,-0.000000000E0,1.527161949E-4
8.205673524E2,1.527161949E-4,6.108647794E-4,-4.581485991E-4
8.210715207E2,-0.000000000E0,1.527161949E-4,-1.527161949E-4
8.215756889E2,-0.000000000E0,-0.000000000E0,-1.527161949E-4
8.220798570E2,1.527161949E-4,-1.527161949E-4,-1.527161949E-4
8.225840252E2,0.000000000E0,-1.527161920E-3,-1.527161949E-4
8.230881933E2,-0.000000000E0,-3.054323897E-4,0.000000000E0
8.235923617E2,-0.000000000E0,-1.069013379E-3,1.527161949E-4
8.240965304E2,-1.527161949E-4,3.054323897E-4,-0.000000000E0
8.246006993E2,1.527161949E-4,1.374445739E-3,-3.054323897E-4
8.251048686E2,1.527161949E-4,-1.527161949E-4,-0.000000000E0
8.256090382E2,0.000000000E0,0.000000000E0,-1.527161949E-4
8.261132080E2,1.527161949E-4,0.000000000E0,-1.527161949E-4
8.266173780E2,-1.527161949E-4,1.527161949E-4,-1.527161949E-4
8.271215481E2,1.527161949E-4,3.054323897E-4,-1.527161949E-4
8.276257182E2,0.000000000E0,1.527161949E-4,-1.527161949E-4
8.281298885E2,0.000000000E0,-1.527161949E-4,-0.000000000E0
8.286340588E2,-0.000000000E0,-6.108647794E-4,1.527161949E-4
8.291382290E2,-0.000000000E0,3.054323897E-4,-1.527161949E-4
8.296423992E2,1.527161949E-4,6.108647794E-4,-3.054323897E-4
8.301465692E2,0.000000000E0,1.527161949E-4,-1.527161949E-4
8.306507393E2,0.000000000E0,3.054323897E-4,-1.527161949E-4
8.311549093E2,-0.000000000E0,-0.000000000E0,-1.527161949E-4
8.316590794E2,1.527161949E-4,-0.000000000E0,-0.000000000E0
8.321632495E2,1.527161949E-4,0.000000000E0,-0.000000000E0
8.326674196E2,0.000000000E0,-4.581485991E-4,1.527161949E-4
8.331715896E2,1.527161949E-4,0.000000000E0,0.000000000E0
8.336757595E2,-1.527161949E-4,1.221729559E-3,-4.581485991E-4
8.341799293E2,1.527161949E-4,-1.527161949E-4,-3.054323897E-4
8.346840990E2,0.000000000E0,-1.527161949E-4,0.000000000E0
8.351882686E2,-0.000000000E0,-0.000000000E0,1.527161949E-4
8.356924381E2,-0.000000000E0,-4.581485991E-4,1.527161949E-4
8.361966074E2,-0.000000000E0,6.108647794E-4,0.000000000E0
8.367007766E2,-6.108647794E-4,1.527161949E-4,-1.527161949E-4
8.372049455E2,1.527161949E-4,-6.108647794E-4,-0.000000000E0
8.377091143E2,0.000000000E0,-1.527161949E-4,-1.527161949E-4
8.382132829E2,0.000000000E0,3.054323897E-4,0.000000000E0
8.387174514E2,1.527161949E-4,3.054323897E-4,0.000000000E0
8.392216197E2,-1.527161949E-4,-1.221729559E-3,1.527161949E-4
8.397257881E2,-0.000000000E0,-0.000000000E0,-0.000000000E0
8.402299564E2,1.527161949E-4,4.581485991E-4,-3.054323897E-4
8.407341245E2,0.000000000E0,-0.000000000E0,-1.527161949E-4
8.412382926E2,-1.527161949E-4,-1.527161949E-4,-0.000000000E0
8.417424605E2,-0.000000000E0,-1.527161949E-4,-0.000000000E0
8.422466282E2,0.000000000E0,-1.527161949E-4,1.527161949E-4
8.427507958E2,-4.581485991E-4,-1.832594397E-3,3.054323897E-4
8.432549634E2,1.527161949E-4,9.162971983E-4,-4.581485991E-4
8.437591311E2,-1.527161949E-4,-3.054323897E-4,-1.527161949E-4
8.442632988E2,-1.527161949E-4,1.527161949E-4,0.000000000E0
8.447674665E2,1.527161949E-4,3.054323897E-4,0.000000000E0
8.452716343E2,-0.000000000E0,-7.635809598E-4,0.000000000E0
8.457758021E2,-1.527161949E-4,-4.581485991E-4,3.054323897E-4
8.462799700E2,1.527161949E-4,7.635809598E-4,-3.054323897E-4
8.467841379E2,1.527161949E-4,1.527161949E-4,-1.527161949E-4
8.472883059E2,0.000000000E0,-3.054323897E-4,0.000000000E0
8.477924738E2,0.000000000E0,-3.054323897E-4,0.000000000E0
8.482966416E2,-1.527161949E-4,-4.581485991E-4,1.527161949E-4
8.488008094E2,-3.054323897E-4,-4.581485991E-4,3.054323897E-4
8.493049770E2,-0.000000000E0,-1.527161949E-4,-1.527161949E-4
8.498091445E2,-0.000000000E0,4.581485991E-4,-1.527161949E-4
8.503133120E2,-0.000000000E0,1.527161949E-4,-0.000000000E0
8.508174795E2,3.054323897E-4,-6.108647794E-4,0.000000000E0
8.513216469E2,1.527161949E-4,-2.443459118E-3,-0.000000000E0
8.518258144E2,-3.054323897E-4,-9.162971983E-4,-3.054323897E-4
8.523299818E2,7.635809598E-4,-3.207040019E-3,-0.000000000E0
8.528341492E2,-2.443459118E-3,2.290742937E-3,1.221729559E-3
8.533383165E2,5.497782957E-3,-2.290742937E-3,-7.635809598E-4
8.538424838E2,-0.000000000E0,1.527161949E-4,-3.054323897E-4
8.543466510E2,-3.054323897E-4,-0.000000000E0,1.527161949E-4
8.548508183E2,1.221729559E-3,-2.138026757E-3,-1.527161949E-4
8.553549856E2,-1.069013379E-3,-2.290742937E-3,-1.527161949E-4
8.558591528E2,1.985310577E-3,-2.443459118E-3,1.527161949E-4
8.563633199E2,-3.054323897E-4,-7.635809598E-4,-0.000000000E0
8.568674869E2,4.581485991E-4,-6.108647794E-4,-1.527161949E-4
8.573716539E2,1.985310577E-3,-7.635809598E-4,0.000000000E0
8.578758207E2,8.246674202E-3,-6.566796452E-3,0.000000000E0
8.583799875E2,-3.054323897E-4,4.581485991E-4,-1.527161949E-4
8.588841543E2,3.237583488E-2,-1.756236330E-2,3.054323897E-4
8.593883210E2,1.466075517E-2,-1.908952370E-2,-6.108647794E-4
8.598924876E2,-1.374445739E-3,2.596175298E-3,1.527161949E-4
8.603966541E2,1.527161949E-4,3.054323839E-3,-3.054323897E-4
8.609008203E2,0.000000000E0,1.374445739E-3,-0.000000000E0
8.614049863E2,0.000000000E0,7.635809598E-4,-0.000000000E0
8.619091526E2,-4.581485991E-4,1.527161949E-4,0.000000000E0
8.624133198E2,-6.108647794E-4,-6.108647794E-4,1.527161949E-4
8.629174878E2,-9.162971983E-4,0.000000000E0,0.000000000E0
8.634216565E2,-4.581485991E-4,1.069013379E-3,-1.527161949E-4
8.639258255E2,0.000000000E0,4.581485991E-4,-1.527161949E-4
8.644299951E2,-1.527161949E-4,-3.054323897E-4,-1.527161949E-4
8.649341649E2,0.000000000E0,-1.527161949E-4,0.000000000E0
8.654383349E2,0.000000000E0,-1.527161949E-4,-1.527161949E-4
8.659425052E2,1.527161949E-4,-7.635809598E-4,1.527161949E-4
8.664466755E2,-1.527161949E-4,-1.527161949E-4,-0.000000000E0
8.669508459E2,1.527161949E-4,1.221729559E-3,-3.054323897E-4
8.674550162E2,1.527161949E-4,4.581485991E-4,-0.000000000E0
8.679591865E2,-1.527161949E-4,-3.054323897E-4,-0.000000000E0
8.684633566E2,0.000000000E0,-1.527161949E-4,-1.527161949E-4
8.689675266E2,-1.527161949E-4,-1.221729559E-3,1.527161949E-4
8.694716964E2,1.527161949E-4,-4.581485991E-4,-1.527161949E-4
8.699758661E2,-3.054323897E-4,1.069013379E-3,1.527161949E-4
8.704800358E2,0.000000000E0,-1.527161949E-4,-1.527161949E-4
8.709842054E2,-0.000000000E0,-3.054323897E-4,-0.000000000E0
8.714883748E2,-0.000000000E0,-1.527161920E-3,1.527161949E-4
8.719925441E2,0.000000000E0,-1.527161949E-4,-0.000000000E0
8.724967132E2,-1.527161949E-4,4.581485991E-4,3.054323897E-4
8.730008821E2,-1.527161920E-3,1.374445739E-3,-3.054323897E-4
8.735050509E2,-1.527161949E-4,7.635809598E-4,-1.527161949E-4
8.740092197E2,-0.000000000E0,-3.054323897E-4,-0.000000000E0
8.745133883E2,1.527161949E-4,-1.527161949E-4,-3.054323897E-4
8.750175567E2,0.000000000E0,-0.000000000E0,-1.527161949E-4
8.755217250E2,0.000000000E0,-1.527161949E-4,0.000000000E0
8.760258931E2,-1.527161949E-4,-7.635809598E-4,1.527161949E-4
8.765300611E2,-0.000000000E0,-4.581485991E-4,3.054323897E-4
8.770342292E2,0.000000000E0,0.000000000E0,-1.527161949E-4
8.775383972E2,1.527161949E-4,6.108647794E-4,-1.527161949E-4
8.780425652E2,-1.527161949E-4,0.000000000E0,-1.527161949E-4
8.785467331E2,0.000000000E0,4.581485991E-4,-1.527161949E-4
8.790509009E2,-1.527161949E-4,-3.054323897E-4,1.527161949E-4
8.795550686E2,-3.054323897E-4,-2.443459118E-3,3.054323897E-4
8.800592358E2,-5.803215317E-3,3.359756200E-3,7.635809598E-4
8.805634035E2,-7.635809598E-4,9.162971983E-4,-4.581485991E-4
8.810675711E2,-0.000000000E0,-4.581485991E-4,-4.581485991E-4
8.815717387E2,-0.000000000E0,-4.581485991E-4,-1.527161949E-4
8.820759063E2,-1.527161949E-4,3.054323897E-4,-1.527161949E-4
8.825800738E2,-0.000000000E0,-1.527161949E-4,-1.527161949E-4
8.830842413E2,0.000000000E0,-6.108647794E-4,0.000000000E0
8.835884088E2,-1.527161949E-4,-7.635809598E-4,3.054323897E-4
8.840925762E2,-3.054323897E-4,0.000000000E0,-0.000000000E0
8.845967437E2,6.108647794E-4,7.635809598E-4,-3.054323897E-4
8.851009113E2,4.581485991E-4,-3.054323897E-4,-1.527161949E-4
8.856050790E2,7.635809598E-4,-6.108647794E-4,0.000000000E0
8.861092466E2,-1.679878100E-3,6.108647794E-4,-0.000000000E0
8.866134144E2,-1.527161949E-4,-1.069013379E-3,1.527161949E-4
8.871175821E2,-1.527161949E-4,-4.581485991E-4,1.527161949E-4
8.876217498E2,1.527161949E-4,1.374445739E-3,-3.054323897E-4
8.881259175E2,0.000000000E0,3.054323897E-4,-1.527161949E-4
8.886300852E2,0.000000000E0,1.527161949E-4,-1.527161949E-4
8.891342529E2,0.000000000E0,0.000000000E0,0.000000000E0
8.896384206E2,0.000000000E0,-0.000000000E0,1.527161949E-4
8.901425882E2,-1.527161949E-4,-7.635809598E-4,1.527161949E-4
8.906467557E2,-0.000000000E0,-9.162971983E-4,3.054323897E-4
8.911509232E2,-0.000000000E0,4.581485991E-4,-3.054323897E-4
8.916550906E2,1.527161949E-4,1.527161949E-4,-1.527161949E-4
8.921592579E2,-1.527161949E-4,-1.527161949E-4,-1.527161949E-4
8.926634253E2,0.000000000E0,3.054323897E-4,-1.527161949E-4
8.931675927E2,1.527161949E-4,1.527161949E-4,0.000000000E0
8.936717600E2,-6.108647794E-4,1.527161949E-4,-0.000000000E0
8.941759272E2,6.108647794E-4,-1.527161920E-3,-4.581485991E-4
8.946800944E2,-1.221729559E-3,2.443459118E-3,1.527161949E-4
8.951842614E2,1.527161949E-4,1.527161949E-4,-1.527161949E-4
8.956884284E2,-1.527161949E-4,1.221729559E-3,-1.527161949E-4
8.961925953E2,-1.527161949E-4,-1.832594397E-3,-3.054323897E-4
8.966967623E2,-6.108647678E-3,5.497782957E-3,1.985310577E-3
8.972009294E2,-1.374445739E-3,-6.108647794E-4,-1.832594397E-3
8.977050965E2,-6.872228812E-3,5.192350596E-3,1.374445739E-3
8.982092637E2,-4.581485991E-4,-3.817904973E-3,-1.832594397E-3
8.987134309E2,-0.000000000E0,6.108647794E-4,-1.527161949E-4
8.992175980E2,-4.581485991E-4,7.635809598E-4,-0.000000000E0
8.997217652E2,2.748891478E-3,-5.803215317E-3,3.054323897E-4
9.002259324E2,4.581485991E-4,6.108647794E-4,-0.000000000E0
9.007300996E2,-6.261364091E-3,8.552107029E-3,3.512472380E-3
9.012342667E2,4.734201822E-3,-7.635809947E-3,-2.596175298E-3
9.017384338E2,-3.817904973E-3,-2.138026757E-3,-1.069013379E-3
9.022426008E2,1.374445739E-3,3.054323897E-4,-1.527161949E-4
9.027467676E2,4.581485991E-4,1.527161949E-4,-0.000000000E0
9.032509345E2,-6.108647794E-4,-7.635809598E-4,-3.054323897E-4
9.037551013E2,3.054323897E-4,4.581485991E-4,0.000000000E0
9.042592683E2,0.000000000E0,-0.000000000E0,-0.000000000E0
9.047634353E2,-1.527161949E-4,-1.985310577E-3,-1.527161949E-4
9.052676026E2,0.000000000E0,-4.581485991E-4,4.581485991E-4
9.057717699E2,-6.108647794E-4,1.069013379E-3,-3.054323897E-4
9.062759374E2,4.581485991E-4,7.635809598E-4,-1.527161949E-4
9.067801048E2,1.527161949E-4,-1.527161949E-4,-0.000000000E0
9.072842722E2,-4.581485991E-4,0.000000000E0,-1.527161949E-4
9.077884395E2,-7.635809598E-4,4.581485991E-4,-1.527161949E-4
9.082926070E2,6.108647794E-4,-9.162971983E-4,0.000000000E0
9.087967744E2,-3.054323897E-4,-7.635809598E-4,0.000000000E0
9.093009417E2,0.000000000E0,-1.069013379E-3,-0.000000000E0
9.098051087E2,-3.054323897E-4,1.374445739E-3,1.527161949E-4
9.103092755E2,1.527161949E-4,-7.635809598E-4,-3.054323897E-4
9.108134428E2,1.069013379E-3,9.162971983E-4,9.162971983E-4
9.113176109E2,9.162971983E-4,-1.374445739E-3,0.000000000E0
9.118217796E2,-9.162971983E-4,-3.054323897E-4,-6.108647794E-4
9.123259487E2,7.635809598E-4,-6.108647794E-4,1.069013379E-3
9.128301179E2,-8.246674202E-3,5.803215317E-3,-7.635809598E-4
9.133342872E2,6.566796452E-3,-3.817904973E-3,-0.000000000E0
9.138384564E2,-3.054323897E-4,1.527161949E-4,-1.527161949E-4
9.143426257E2,9.162971983E-4,-1.985310577E-3,-3.054323897E-4
9.148467949E2,-3.054323897E-4,9.162971983E-4,1.527161949E-4
9.153509641E2,1.679878100E-3,-1.527161920E-3,0.000000000E0
9.158551332E2,4.581485991E-4,-1.985310577E-3,6.108647794E-4
9.163593021E2,-1.527161920E-3,7.635809598E-4,-1.069013379E-3
9.168634709E2,1.069013379E-3,-1.527161949E-4,1.527161949E-4
9.173676395E2,-9.162971983E-4,2.138026757E-3,-4.581485991E-4
9.178718079E2,3.970621154E-3,-2.901607659E-3,4.581485991E-4
9.183759762E2,-6.108647794E-4,3.054323897E-4,-1.527161949E-4
9.188801446E2,-7.635809598E-4,-1.527161949E-4,-4.581485991E-4
9.193843128E2,1.527161949E-4,-4.581485991E-4,4.581485991E-4
9.198884809E2,-1.221729559E-3,1.527161949E-4,1.527161949E-4
9.203926489E2,7.635809598E-4,-3.054323897E-4,1.527161949E-4
9.208968167E2,-4.581485991E-4,1.221729559E-3,-0.000000000E0
9.214009845E2,-7.635809598E-4,3.054323897E-4,0.000000000E0
9.219051520E2,-0.000000000E0,0.000000000E0,-0.000000000E0
9.224093194E2,-6.108647794E-4,-1.527161949E-4,0.000000000E0
9.229134867E2,-3.054323839E-3,1.069013379E-3,4.581485991E-4
9.234176539E2,-1.374445739E-3,-0.000000000E0,4.581485991E-4
9.239218210E2,-7.635809598E-4,3.054323897E-4,-1.527161949E-4
9.244259878E2,0.000000000E0,4.581485991E-4,-9.162971983E-4
9.249301545E2,-1.527161949E-4,1.527161949E-4,-1.527161949E-4
9.254343210E2,1.527161949E-4,-1.527161949E-4,0.000000000E0
9.259384874E2,-0.000000000E0,-3.054323897E-4,-1.527161949E-4
9.264426538E2,-0.000000000E0,-1.527161949E-4,-0.000000000E0
9.269468200E2,-3.207040019E-3,-3.970621154E-3,-1.527161949E-4
9.274509860E2,0.000000000E0,1.679878100E-3,-1.527161949E-4
9.279551520E2,0.000000000E0,-1.527161949E-4,-0.000000000E0
9.284593178E2,-1.374445739E-3,-3.512472380E-3,1.527161920E-3
9.289634837E2,-1.221729559E-3,3.207040019E-3,1.679878100E-3
9.294676496E2,1.527161920E-3,2.748891478E-3,-2.748891478E-3
9.299718155E2,-1.069013379E-3,-2.290742937E-3,6.108647794E-4
9.304759816E2,-3.054323897E-4,1.832594397E-3,1.527161920E-3
9.309801476E2,3.054323897E-4,-7.635809598E-4,-1.374445739E-3
9.314843137E2,-1.069013379E-3,-3.054323897E-4,1.679878100E-3
9.319884797E2,4.581485991E-4,2.138026757E-3,-2.138026757E-3
9.324926456E2,3.054323897E-4,4.581485991E-4,-9.162971983E-4
9.329968114E2,-0.000000000E0,-7.635809598E-4,-1.527161949E-4
9.335009771E2,-0.000000000E0,-0.000000000E0,0.000000000E0
9.340051428E2,-9.162971983E-4,-1.527161920E-3,6.108647794E-4
9.345093084E2,-1.069013379E-3,-1.221729559E-3,7.635809598E-4
9.350134739E2,1.069013379E-3,1.832594397E-3,-1.374445739E-3
9.355176393E2,0.000000000E0,3.054323897E-4,-3.054323897E-4
9.360218046E2,-1.527161949E-4,1.527161949E-4,-1.527161949E-4
9.365259698E2,0.000000000E0,-6.108647794E-4,-1.527161949E-4
9.370301349E2,0.000000000E0,-0.000000000E0,-1.527161949E-4
9.375342999E2,-1.527161949E-4,-1.527161949E-4,-0.000000000E0
9.380384650E2,-1.527161949E-4,-3.054323897E-4,-1.527161949E-4
9.385426299E2,-0.000000000E0,1.527161949E-4,-0.000000000E0
9.390467948E2,-0.000000000E0,-1.527161949E-4,0.000000000E0
9.395509595E2,-1.527161949E-4,-1.221729559E-3,1.527161949E-4
9.400551237E2,-7.635809598E-4,-1.527161949E-4,1.527161949E-4
9.405592881E2,1.527161949E-4,1.069013379E-3,-4.581485991E-4
9.410634525E2,1.527161949E-4,-0.000000000E0,-0.000000000E0
9.415676168E2,-0.000000000E0,-1.527161949E-4,-1.527161949E-4
9.420717811E2,-0.000000000E0,-1.527161949E-4,-0.000000000E0
9.425759453E2,-0.000000000E0,-1.527161949E-4,0.000000000E0
9.430801095E2,-1.527161949E-4,3.054323897E-4,-0.000000000E0
9.435842735E2,-1.527161949E-4,-1.069013379E-3,1.527161949E-4
9.440884374E2,-1.527161949E-4,-0.000000000E0,-1.527161949E-4
9.445926011E2,-0.000000000E0,1.069013379E-3,-1.527161949E-4
9.450967649E2,-0.000000000E0,3.054323897E-4,-1.527161949E-4
9.456009286E2,0.000000000E0,-1.527161949E-4,0.000000000E0
9.461050924E2,-0.000000000E0,-0.000000000E0,0.000000000E0
9.466092560E2,-1.527161949E-4,-9.162971983E-4,1.527161949E-4
9.471134197E2,3.054323897E-4,-7.635809598E-4,1.527161949E-4
9.476175833E2,3.054323897E-4,1.374445739E-3,-3.054323897E-4
9.481217469E2,1.527161949E-4,-1.527161949E-4,0.000000000E0
9.486259106E2,-9.162971983E-4,-3.512472380E-3,3.054323897E-4
9.491300744E2,-1.221729559E-3,3.054323897E-4,7.635809598E-4
9.496342384E2,-7.635809598E-4,-1.527161949E-4,1.069013379E-3
9.501384026E2,1.527161949E-4,9.162971983E-4,-9.162971983E-4
9.506425669E2,4.581485991E-4,7.635809598E-4,-7.635809598E-4
9.511467315E2,0.000000000E0,1.527161949E-4,-1.527161949E-4
9.516508960E2,0.000000000E0,1.527161949E-4,-1.527161949E-4
9.521550607E2,1.527161949E-4,-1.527161949E-4,-0.000000000E0
9.526592254E2,0.000000000E0,-1.527161949E-4,1.527161949E-4
9.531633903E2,-4.581485991E-4,-7.635809598E-4,9.162971983E-4
9.536675552E2,-1.527161949E-4,-1.527161949E-4,0.000000000E0
9.541717201E2,4.581485991E-4,1.221729559E-3,-1.069013379E-3
9.546758849E2,1.527161949E-4,4.581485991E-4,-0.000000000E0
9.551800497E2,0.000000000E0,-6.108647794E-4,-1.527161949E-4
9.556842144E2,1.527161949E-4,4.581485991E-4,-1.527161949E-4
9.561883791E2,-0.000000000E0,-9.162971983E-4,3.054323897E-4
9.566925437E2,-3.054323897E-4,-1.069013379E-3,6.108647794E-4
9.571967082E2,1.527161949E-4,4.581485991E-4,-0.000000000E0
9.577008729E2,3.054323897E-4,1.221729559E-3,-7.635809598E-4
9.582050376E2,1.527161949E-4,-1.527161949E-4,-1.527161949E-4
9.587092020E2,1.527161949E-4,-4.581485991E-4,0.000000000E0
9.592133662E2,0.000000000E0,1.527161949E-4,-1.527161949E-4
9.597175309E2,0.000000000E0,-4.581485991E-4,0.000000000E0
9.602216965E2,-1.527161949E-4,-1.221729559E-3,4.581485991E-4
9.607258628E2,-1.527161949E-4,1.069013379E-3,-1.527161949E-4
9.612300295E2,1.527161949E-4,7.635809598E-4,-3.054323897E-4
9.617341965E2,3.054323897E-4,3.054323897E-4,0.000000000E0
9.622383635E2,1.527161949E-4,1.527161949E-4,0.000000000E0
9.627425306E2,-0.000000000E0,0.000000000E0,0.000000000E0
9.632466977E2,0.000000000E0,-1.985310577E-3,3.054323897E-4
9.637508647E2,-1.527161949E-4,1.527161949E-4,3.054323897E-4
9.642550318E2,1.527161949E-4,1.527161920E-3,-7.635809598E-4
9.647591988E2,3.054323897E-4,4.581485991E-4,-1.527161949E-4
9.652633657E2,0.000000000E0,3.054323897E-4,-1.527161949E-4
9.657675324E2,1.527161949E-4,-3.054323897E-4,0.000000000E0
9.662716990E2,1.527161949E-4,1.374445739E-3,-1.527161949E-4
9.667758655E2,1.527161949E-4,5.497782957E-3,-1.221729559E-3
9.672800318E2,1.527161949E-4,4.428769462E-3,6.108647794E-4
9.677841980E2,1.527161949E-4,-2.138026757E-3,-1.527161949E-4
9.682883642E2,-1.527161949E-4,3.054323897E-4,-0.000000000E0
9.687925304E2,1.527161949E-4,1.527161920E-3,-4.581485991E-4
9.692966965E2,0.000000000E0,9.162971983E-4,-3.054323897E-4
9.698008627E2,-0.000000000E0,-1.527161949E-4,-4.581485991E-4
9.703050288E2,1.527161949E-4,-6.108647794E-4,-0.000000000E0
9.708091951E2,1.527161949E-4,1.069013379E-3,-0.000000000E0
9.713133613E2,-1.527161949E-4,4.581485991E-4,-1.527161949E-4
9.718175277E2,-3.054323897E-4,-4.581485991E-4,4.581485991E-4
9.723216941E2,-3.054323897E-4,-1.527161949E-4,1.527161949E-4
9.728258605E2,-4.581485991E-4,1.527161949E-4,-6.108647794E-4
9.733300269E2,-3.054323897E-4,1.527161949E-4,4.581485991E-4
9.738341933E2,-1.527161949E-4,3.054323897E-4,-4.581485991E-4
9.743383596E2,4.581485991E-4,1.527161949E-4,-1.527161949E-4
9.748425259E2,4.581485991E-4,7.635809598E-4,1.527161949E-4
9.753466922E2,9.162971983E-4,1.985310577E-3,1.527161949E-4
9.758508585E2,-0.000000000E0,-2.443459118E-3,-4.581485991E-4
9.763550247E2,4.581485991E-4,-3.054323897E-4,3.054323897E-4
9.768591909E2,-1.221729559E-3,-6.108647678E-3,2.290742937E-3
9.773633569E2,-4.581485991E-4,4.581485991E-4,1.221729559E-3
9.778675229E2,-7.635809598E-4,2.443459118E-3,-3.054323897E-4
9.783716886E2,-7.635809598E-4,5.192350596E-3,5.192350596E-3
9.788758543E2,-5.345067009E-3,1.221729559E-3,1.099556591E-2
9.793800198E2,-4.886918236E-3,4.581485875E-3,1.145371422E-2
9.798841853E2,-1.160643063E-2,2.443459118E-3,2.107483521E-2
9.803883505E2,-1.695149764E-2,4.276053514E-3,1.603520103E-2
9.808925157E2,-2.474002354E-2,1.985310577E-3,2.168569900E-2
9.813966808E2,-3.008509055E-2,3.970621154E-3,1.939495653E-2
9.819008458E2,-3.405570984E-2,3.054323839E-3,1.786779426E-2
9.824050108E2,-4.138609022E-2,2.901607659E-3,1.603520103E-2
9.829091757E2,-4.703658819E-2,-7.635809598E-4,1.649334840E-2
9.834133407E2,-5.513054505E-2,-4.428769462E-3,1.740964688E-2
9.839175057E2,-5.910116807E-2,-3.207040019E-3,4.276053514E-3
9.844216709E2,-6.276635826E-2,-4.276053514E-3,9.010255337E-3
9.849258366E2,-6.307178736E-2,-1.069013379E-3,-7.788525894E-3
9.854300030E2,-6.459894776E-2,-1.679878100E-3,1.374445739E-3
9.859341697E2,-6.612611562E-2,-4.428769462E-3,-4.886918236E-3
9.864383368E2,-6.490438432E-2,-6.566796452E-3,-4.581485991E-4
9.869425040E2,-6.398808211E-2,-8.399390616E-3,-5.192350596E-3
9.874466710E2,-6.673697382E-2,-9.162971750E-3,-4.581485991E-4
9.879508380E2,-6.551524997E-2,-9.926552884E-3,-4.428769462E-3
9.884550050E2,-6.719512492E-2,-8.704823442E-3,-1.679878100E-3
9.889591720E2,-6.826414168E-2,-1.069013402E-2,-2.290742937E-3
9.894633392E2,-6.795870513E-2,-9.773836471E-3,-2.443459118E-3
9.899675067E2,-6.963858753E-2,-1.084284950E-2,-1.985310577E-3
9.904716745E2,-7.009673119E-2,-9.162971750E-3,-1.221729559E-3
9.909758424E2,-7.208204269E-2,-4.276053514E-3,-2.443459118E-3
9.914800105E2,-6.582067907E-2,-1.756236330E-2,4.734201822E-3
9.919841787E2,-5.009091273E-2,-4.138609022E-2,1.191186346E-2
9.924883470E2,-5.925388262E-2,-3.222311661E-2,1.267544460E-2
9.929925153E2,2.886336111E-2,-5.054906011E-2,6.261364091E-3
9.934966837E2,-1.324049383E-1,8.826996386E-2,-1.649334840E-2
9.940008519E2,-7.620538026E-2,-1.007926930E-2,-1.817322709E-2
9.945050202E2,-1.588248461E-2,-5.849030241E-2,9.162971750E-3
9.950091884E2,-1.554650813E-1,5.742128938E-2,3.817904973E-3
9.955133565E2,-5.207622424E-2,-2.443459118E-3,3.054323839E-3
9.960175246E2,-7.559451461E-2,9.162971983E-4,-1.832594397E-3
9.965216925E2,-7.345648855E-2,-2.138026757E-3,5.497782957E-3
9.970258604E2,-6.994401664E-2,-9.621120058E-3,-5.955931731E-3
9.975300281E2,-8.521563560E-2,8.246674202E-3,8.093958721E-3
9.980341956E2,-8.048143238E-2,9.315688163E-3,-6.108647678E-3
9.985383631E2,-7.528908551E-2,-1.527161949E-4,-1.374445739E-3
9.990425306E2,-7.544180006E-2,5.650499370E-3,-1.221729559E-3
9.995466980E2,-6.597339362E-2,-1.130099874E-2,-5.803215317E-3
1.000050866E3,-7.223475724E-2,-1.069013379E-3,-0.000000000E0
1.000555033E3,-7.147117704E-2,5.803215317E-3,-1.069013379E-3
1.001059201E3,-7.254019380E-2,7.024944760E-3,2.443459118E-3
