"Time (s)","Linear Acceleration x (m/s^2)","Linear Acceleration y (m/s^2)","Linear Acceleration z (m/s^2)"
0.000000000E0,-2.452931702E-1,7.927417755E-3,-1.655864716E-2
1.950177160E-1,-1.401986778E-1,6.852769852E-2,3.267765045E-2
6.950177160E-1,-2.738873363E-1,1.907444000E-2,-2.647399902E-3
1.195017716E0,4.004236162E-1,-3.867678642E-1,3.675527573E-1
1.695017716E0,-2.521773338E0,4.045036316E0,1.618078232E0
2.195017716E0,2.394065857E-1,5.052032471E-1,1.498632908E0
2.695017716E0,1.821632385E-1,-1.749000549E-1,1.077263355E-1
3.195017716E0,4.173183441E-2,1.603345871E-1,1.325762033E0
3.695017716E0,-1.446142197E-1,-1.172889709E0,-1.253389567E-1
4.195017716E0,3.193759918E-2,-2.623301148E-1,-7.462385297E-1
4.695017716E0,6.274700165E-2,-5.044946074E-1,1.044737399E-1
5.195017716E0,-5.168056488E-2,-1.158057079E-1,-5.975483358E-2
5.695017716E0,-3.541240692E-1,7.295009494E-1,-1.455383182E0
6.195017716E0,2.305946350E-1,2.194387913E-1,-2.367301583E-1
6.695017716E0,4.026956558E-1,-1.988593340E-1,-3.258132935E-2
7.195017716E0,8.843517303E-2,-1.489680409E-1,-2.888168693E-1
7.695017716E0,8.150262833E-1,-1.989639044E0,-1.349968076E0
8.195017716E0,-4.243373871E-2,-3.738145828E-1,-1.468930364E0
8.695017716E0,-1.801509857E-1,9.744331837E-1,-2.397706509E-1
9.195017716E0,-2.181072235E-1,4.347816706E-1,6.310868263E-1
9.695017716E0,9.870386124E-1,-2.915751934E-1,9.932756424E-1
1.019501772E1,-2.153501511E-1,-6.085253358E-1,-5.522131920E-1
1.069501772E1,4.842090607E-2,5.696527362E-1,-1.466299593E-1
1.119501772E1,2.099990845E-2,1.067483425E-2,-1.595157385E-2
1.169501772E1,-8.611679077E-4,3.854453564E-2,-2.188360691E-2
1.219501772E1,-1.720237732E-2,7.294273376E-2,-5.007505417E-3
1.269501772E1,5.303192139E-2,-8.332073689E-2,-3.428512812E-2
1.319501772E1,8.270835876E-2,-3.244483471E-2,-5.290508270E-2
1.369501772E1,-2.049732208E-2,3.484857082E-2,6.047666073E-3
1.419501772E1,1.633729935E-1,-1.120568514E-1,1.518437266E-1
1.469501772E1,5.557537079E-2,1.961966753E-1,-1.364643574E-1
1.519501772E1,1.074790955E-1,1.248554587E-1,-9.329330921E-2
1.569501772E1,-6.484508514E-2,1.902794838E-2,2.929902077E-2
1.619501772E1,2.448940277E-2,1.468097568E-1,-1.540285349E-1
1.669501772E1,-8.390331268E-2,1.544399858E-1,1.355741620E-1
1.719501772E1,-1.338758469E-1,4.124720395E-1,1.480706930E-1
1.769501772E1,3.099403381E-1,-3.110916615E-1,-3.103947043E-1
1.819501772E1,2.613840103E-1,-1.270401478E-1,-1.923235655E-1
1.869501772E1,-2.149553299E-1,-3.286790848E-2,-4.575097561E-2
1.919501772E1,-1.385955811E-1,-1.050409079E-1,-3.064644337E-2
1.969501772E1,-2.610397339E-2,2.275109291E-2,-9.452581406E-3
2.019501772E1,-1.068086624E-1,-2.041856050E-1,-1.388478279E-2
2.069501772E1,1.056032181E-1,3.769886494E-2,-8.081376553E-2
2.119501772E1,3.110980988E-2,-1.419880390E-1,-3.796303272E-2
2.169501772E1,8.209323883E-2,1.906065941E-1,-2.809619904E-2
2.219501772E1,1.011238098E-1,1.155341864E-1,-1.143383980E-2
2.269501772E1,-4.979133606E-2,1.197540760E-2,-4.382258654E-2
2.319501772E1,-3.769397736E-2,1.813880801E-1,8.265966177E-2
2.369501772E1,-7.250118256E-2,7.918131351E-2,-5.700016022E-2
2.419501772E1,-3.576946259E-2,5.943405628E-2,1.592099667E-3
2.469501772E1,-2.540683746E-2,-4.885202646E-2,-2.467614412E-2
2.519501772E1,-6.380081177E-3,7.503914833E-2,1.781272888E-2
2.569501772E1,-1.566352844E-1,-1.447885036E-1,-9.894039631E-1
2.619501772E1,-3.317546844E-2,1.003124714E-1,-3.766832352E-1
2.669501772E1,-1.518430710E-1,-1.626037359E-1,-6.954050064E-2
2.719501772E1,1.496114731E-1,-2.577983141E-1,-1.617156267E-1
2.769501772E1,3.930654526E-1,-1.141012907E-1,-8.793246746E-2
2.819501772E1,6.047630310E-2,9.425401688E-3,-1.454435587E-1
2.869501772E1,9.963798523E-2,-1.479685307E-2,4.514563084E-2
2.919501772E1,1.894950867E-3,2.681529522E-2,-3.154408932E-2
2.969501772E1,-1.790294647E-1,-1.931715012E-2,2.118384838E-2
3.019501772E1,1.877717972E-1,-2.413666248E-2,-1.057069302E-1
3.069501772E1,-4.010295868E-2,-1.225427389E-1,4.138016701E-2
3.119501772E1,1.835994720E-1,4.951727390E-2,-2.061104774E-2
3.169501772E1,2.868747711E-2,-1.999038458E-1,-9.100580215E-2
3.219501772E1,-1.075639725E-1,9.594833851E-2,6.887698174E-2
3.269501772E1,-5.190849304E-3,-1.658213139E-2,-8.240342140E-2
3.319501772E1,9.125709534E-2,3.923046589E-2,1.321148872E-2
3.369501772E1,-4.787540436E-2,-2.932294607E-1,-3.624320030E-2
3.419501772E1,-6.244659424E-2,9.894371033E-4,5.583047867E-3
3.469501772E1,-2.878093719E-2,-1.168882847E-2,-3.787207603E-2
3.519501772E1,3.065013885E-2,-7.215857506E-3,-2.080941200E-2
3.569501772E1,4.532432556E-2,-4.711616039E-2,-3.031539917E-2
3.619501772E1,8.917808533E-3,2.146685123E-2,-3.667616844E-2
3.669501772E1,5.035972595E-2,-4.195797443E-2,-2.507805824E-2
3.719501772E1,-1.666069031E-2,-8.339583874E-2,2.121424675E-2
3.769501772E1,-9.093856812E-2,5.445849895E-2,2.236819267E-2
3.819501772E1,-1.442756653E-1,4.609465599E-2,7.857418060E-2
3.869501772E1,-6.816768646E-2,-4.385793209E-2,5.391764641E-2
3.919501772E1,-8.420658112E-2,-4.017436504E-2,2.256941795E-2
3.969501772E1,-4.118251801E-2,6.845700741E-2,1.561188698E-2
4.019501772E1,-7.693958282E-2,5.310165882E-2,-7.209539413E-3
4.069501772E1,2.013206482E-3,9.089457989E-2,3.197646141E-2
4.119501772E1,-4.730129242E-2,6.433665752E-2,6.628274918E-3
4.169501772E1,2.974510193E-3,-7.452499866E-2,1.897192001E-2
4.219501772E1,2.038955688E-3,-2.251923084E-2,3.898501396E-2
4.269501772E1,-5.070018768E-2,2.430880070E-2,4.184961319E-3
4.319501772E1,-3.494358063E-2,1.101362705E-2,2.024102211E-2
4.369501772E1,4.031276703E-2,6.025588512E-2,8.986949921E-3
4.419501772E1,8.469581604E-3,-5.999994278E-2,6.565332413E-3
4.469501772E1,-2.047538757E-2,6.471979618E-2,3.477025032E-2
4.519501772E1,2.404975891E-2,6.785774231E-2,-2.751779556E-2
4.569501772E1,4.333591461E-2,5.352735519E-3,1.551651955E-2
4.619501772E1,4.061603546E-2,-3.476822376E-2,-2.012872696E-2
4.669501772E1,3.863811493E-2,9.748232365E-2,3.057241440E-3
4.719501772E1,-8.200645447E-3,-6.659913063E-2,-1.730298996E-2
4.769501772E1,5.700111389E-3,5.077123642E-3,9.732484818E-3
4.819501772E1,1.914024353E-3,-8.377683163E-2,1.720261574E-2
4.869501772E1,-4.643917084E-2,-6.309390068E-3,3.862261772E-2
4.919501772E1,-3.682041168E-2,-1.600639820E-1,1.298856735E-2
4.969501772E1,1.042451859E-1,1.498517990E-1,-2.368378639E-2
5.019501772E1,-4.337787628E-2,-1.231169701E-1,-3.387975693E-2
5.069501772E1,2.070932388E-1,-9.743058681E-2,-4.818296432E-2
5.119501772E1,-2.326679230E-1,1.457977295E-1,2.773094177E-2
5.169501772E1,-1.441621780E-1,-1.560968161E-1,3.799724579E-2
5.219501772E1,-1.415691376E-1,1.561276913E-1,-8.302378654E-2
5.269501772E1,-1.441669464E-2,-3.281390667E-2,-1.762907505E-1
5.319501772E1,-1.424894333E-1,-1.147458553E-1,2.425837517E-2
5.369501772E1,-3.345117569E-1,-1.541761160E-1,4.345178604E-3
5.419501772E1,3.226575851E-1,6.765854359E-2,-1.164796352E-1
5.469501772E1,1.357183456E-1,1.334515810E-1,1.578569412E-2
5.519501772E1,1.633310318E-1,6.313216686E-2,-1.662707329E-2
5.569501772E1,1.131124496E-1,-1.236894131E-1,-1.738810539E-2
5.619501772E1,4.017734528E-2,9.114718437E-2,1.604743004E-1
5.669501772E1,2.987384796E-2,3.605699539E-2,-1.907229424E-2
5.719501772E1,-1.617069244E-1,-2.783429623E-1,2.560305595E-2
5.769501772E1,-2.090005875E-1,9.772562981E-2,1.603527069E-1
5.819501772E1,5.080795288E-2,-4.593265057E-2,-4.443049431E-2
5.869501772E1,3.392696381E-2,1.376609802E-1,4.148197174E-2
5.919501772E1,-1.370725632E-1,-9.383010864E-2,3.119134903E-2
5.969501772E1,-1.507110596E-1,-2.212808132E-1,-4.743504524E-2
6.019501772E1,1.444396973E-1,9.438014030E-2,-8.810925484E-2
6.069501772E1,2.369556427E-1,-1.111630201E-1,-2.461445332E-1
6.119501772E1,7.094287872E-2,1.258920431E-1,-6.781458855E-2
6.169501772E1,-2.925405502E-1,3.971362114E-1,-5.399737358E-1
6.219501772E1,-1.507349014E-1,-2.970083952E-1,-3.520363569E-1
6.269501772E1,9.198570251E-2,2.498448491E-1,6.499887705E-1
6.319501772E1,1.247062683E-1,-1.653737128E-1,-3.511908054E-1
6.369501772E1,3.382682800E-2,5.019387007E-1,2.140936852E-1
6.419501772E1,5.260467529E-2,7.667887211E-2,-1.226239204E-1
6.469501772E1,-1.659393311E-4,4.422205687E-2,-4.113113880E-2
6.519501772E1,5.015468597E-2,8.190017939E-2,3.285479546E-2
6.569501772E1,2.600669861E-3,-3.936856985E-2,7.418406010E-2
6.619501772E1,9.401607513E-2,3.857123852E-2,4.102188349E-2
6.669501772E1,-1.085329056E-1,4.107657075E-1,1.176059246E-2
6.719501772E1,-7.896327972E-2,-3.870811462E-1,2.821001410E-2
6.769501772E1,-2.464771271E-2,1.942417026E-1,5.862320960E-2
6.819501772E1,-1.078081131E-1,-1.792151928E-1,4.804119468E-3
6.869501772E1,6.556606293E-2,2.295967340E-1,1.141011715E-2
6.919501772E1,-6.361389160E-2,-1.580868959E-1,-2.429515123E-2
6.969501772E1,9.689235687E-2,9.319484234E-2,-1.080249250E-2
7.019501772E1,-6.116962433E-2,-1.174731255E-1,6.456270814E-3
7.069501772E1,1.042699814E-1,2.472004294E-1,3.931164742E-3
7.119501772E1,5.825614929E-2,-1.326178312E-1,-2.487899363E-2
7.169501772E1,6.213378906E-2,3.063396811E-1,5.733370781E-4
7.219501772E1,1.494407654E-3,4.495942593E-2,-8.462846279E-3
7.269501772E1,9.328842163E-2,2.271079421E-1,-2.083918452E-2
7.319501772E1,-5.322456360E-2,9.733557701E-3,6.925089657E-2
7.369501772E1,3.254604340E-2,1.842898726E-1,-2.037075162E-2
7.419501772E1,-1.427764893E-1,-2.241444588E-2,-2.492359281E-2
7.469501772E1,-6.304645538E-2,3.089725971E-3,-7.381838560E-2
7.519501772E1,-6.933307648E-2,8.439481258E-3,-5.430996418E-3
7.569501772E1,-3.338623047E-2,7.032924891E-2,-5.472192168E-2
7.619501772E1,-7.502269745E-2,-6.846982241E-2,-2.466592193E-2
7.669501772E1,-7.288360596E-2,-3.005796671E-2,-1.382678747E-2
7.719501772E1,2.588176727E-2,-2.707958221E-3,1.927262545E-2
7.769501772E1,5.431270599E-2,7.445985079E-2,-5.122572184E-2
7.819501772E1,-3.223133087E-2,-1.185014248E-1,4.463773966E-2
7.869501772E1,-3.994464874E-2,-1.592535973E-1,-1.872903109E-2
7.919501772E1,1.382255554E-2,-7.527027279E-3,-1.235321164E-1
7.969501772E1,-3.427886963E-2,5.906909704E-2,3.808948398E-2
8.019501772E1,-4.117298126E-2,5.358906835E-2,3.451421857E-2
8.069501772E1,-5.420589447E-2,8.444756269E-3,6.737908721E-2
8.119501772E1,2.455234528E-2,2.071902156E-1,7.840086520E-2
8.169501772E1,-6.521511078E-2,-3.526077271E-1,1.480230093E-1
8.219501772E1,-2.410793304E-2,-2.215355337E-1,-4.861502647E-1
8.269501772E1,3.688144684E-2,5.823969841E-4,1.078189015E-1
8.319501772E1,7.661819458E-2,-3.544831276E-2,1.007288396E-1
8.369501772E1,4.898929596E-2,-7.152188569E-2,6.071026623E-2
8.419501772E1,5.958080292E-2,6.136749685E-2,5.394645035E-2
8.469501772E1,-6.707859039E-2,-7.460236549E-2,4.780314863E-2
8.519501772E1,8.650875092E-2,1.393473744E-1,1.181085408E-2
8.569501772E1,-6.533908844E-2,-4.851481318E-2,1.236717403E-2
8.619501772E1,1.669406891E-2,-2.208711207E-2,-1.124118268E-2
8.669501772E1,2.205524445E-1,6.793250144E-2,-8.337482810E-3
8.719501772E1,2.727031708E-2,-2.240574658E-1,-1.452784240E-2
8.769501772E1,4.008388519E-2,1.725043952E-1,-2.814482898E-2
8.819501772E1,4.735469818E-2,-2.587549686E-1,-2.047688514E-2
8.869501772E1,3.212451935E-2,5.074091256E-2,-9.425543249E-3
8.919501772E1,1.798152924E-2,-7.208801806E-2,-4.877261817E-3
8.969501772E1,3.304767609E-2,-7.654201984E-2,6.672985852E-3
9.019501772E1,5.693721771E-2,4.016356170E-2,-2.866141498E-3
9.069501772E1,-3.022289276E-2,-1.060158461E-1,9.450338781E-3
9.119501772E1,3.161334991E-2,8.360111713E-2,-5.416689813E-2
9.169501772E1,-1.727676392E-2,-7.981720567E-2,3.103025258E-2
9.219501772E1,1.858100891E-1,-5.536898375E-1,-5.773897767E-1
9.269501772E1,-5.489540100E-1,3.621672988E-1,-1.554883569E-1
9.319501772E1,-6.132602692E-2,4.598798156E-1,-2.150782347E-1
9.369501772E1,8.027076721E-3,1.950848103E-2,-8.560675383E-2
9.419501772E1,-3.682041168E-2,1.635719538E-1,4.351198673E-2
9.469501772E1,-5.503149033E-1,7.138281465E-1,4.134275615E-1
9.519501772E1,2.079792023E-1,-3.399608731E-1,-6.623526216E-1
9.569501772E1,1.429433823E-1,-6.427884102E-2,2.552749217E-1
9.619501772E1,5.222415924E-2,-1.838380396E-1,-2.118840814E-2
9.669501772E1,4.196166992E-3,-1.113563776E-2,2.401798964E-2
9.719501772E1,3.910064697E-4,-6.070166826E-3,8.090764284E-3
9.769501772E1,1.333904266E-2,-8.580654860E-3,1.448893547E-2
9.819501772E1,9.551048279E-3,-5.948632956E-3,2.617675066E-2
9.869501772E1,-2.749443054E-3,-4.141771793E-2,1.031846404E-1
9.919501772E1,-2.585315704E-2,1.319393516E-2,-2.754896879E-3
9.969501772E1,-2.164173126E-2,7.221528888E-2,-2.654751539E-1
1.001950177E2,4.080963135E-2,-2.953372598E-1,2.089758813E-1
1.006950177E2,-1.680374146E-2,9.077572823E-2,-7.282792330E-1
1.011950177E2,3.097438812E-2,2.949655056E-2,-2.749353647E-1
1.016950177E2,2.600383759E-2,-6.000638008E-3,-3.498529643E-2
1.021950177E2,1.668930054E-4,-1.803994179E-3,-2.033529431E-2
1.026950177E2,-1.148700714E-2,6.365096569E-2,6.151428819E-2
1.031950177E2,-6.573677063E-3,2.920687199E-2,-3.825031221E-2
1.036950177E2,-3.017425537E-3,-7.755160332E-3,1.338737905E-1
1.041950177E2,-7.370948792E-3,7.881999016E-3,6.066337228E-2
1.046950177E2,-5.435943604E-4,-8.866667747E-3,1.769822836E-2
1.051950177E2,4.392623901E-3,6.756424904E-3,-2.044171840E-2
1.056950177E2,4.816055298E-4,1.644051075E-2,-5.276143551E-3
1.061950177E2,8.553504944E-3,-3.094828129E-2,-1.106303930E-1
1.066950177E2,7.488250732E-3,3.005623817E-3,-1.299878955E-2
1.071950177E2,3.201484680E-3,9.107232094E-3,-3.031224012E-2
1.076950177E2,-1.889228821E-3,1.194500923E-2,-1.199492812E-2
1.081950177E2,-1.614570618E-3,2.252697945E-3,-1.050534844E-2
1.086950177E2,1.866340637E-3,7.534027100E-4,-1.605215669E-2
1.091950177E2,-2.152442932E-3,1.137149334E-2,2.427330613E-2
1.096950177E2,-5.495071411E-3,-4.824995995E-3,-1.624476910E-2
1.101950177E2,1.437187195E-3,-4.261612892E-3,-1.289311051E-2
1.106950177E2,4.135131836E-3,4.127860069E-3,-7.987260818E-3
1.111950177E2,-3.591537476E-3,3.796064854E-2,1.248026490E-1
1.116950177E2,-1.021385193E-3,-3.309047222E-2,-3.781306744E-2
1.121950177E2,5.415916443E-3,-4.782974720E-2,5.401812494E-3
1.126950177E2,-7.836723328E-2,7.162880898E-2,7.892007828E-1
1.131950177E2,-1.336383820E-2,2.482986450E-2,2.928449810E-1
1.136950177E2,-4.017829895E-3,-2.980232239E-3,9.268224239E-2
1.141950177E2,-4.366874695E-3,3.549575806E-3,5.350768566E-3
1.146950177E2,8.354187012E-4,4.001140594E-3,5.068302155E-3
1.151950177E2,4.077911377E-3,2.596735954E-3,-3.376662731E-3
1.156950177E2,-4.222869873E-3,-8.109807968E-4,-4.920542240E-3
1.161950177E2,-2.325534821E-2,1.329830885E-1,2.496762276E-1
1.166950177E2,1.008987427E-2,-7.318198681E-2,-1.860275865E-3
1.171950177E2,-6.970405579E-3,-1.003122330E-2,-9.382130206E-2
1.176950177E2,-1.356410980E-2,-3.341799974E-2,-3.026667237E-2
1.181950177E2,2.012252808E-4,7.665395737E-3,-8.235171437E-3
1.186950177E2,3.501892090E-3,-2.894026041E-2,1.707568765E-3
1.191950177E2,2.543449402E-3,1.334553957E-2,3.387540579E-2
1.196950177E2,-3.766059875E-3,-6.076335907E-3,1.103779674E-2
1.201950177E2,-4.610061646E-3,-8.039295673E-3,1.645450294E-2
1.206950177E2,4.251480103E-3,-1.511257887E-2,-2.378751338E-2
1.211950177E2,6.828308105E-4,-4.109740257E-3,-1.375052333E-2
1.216950177E2,2.386093140E-3,4.581391811E-3,6.379961967E-3
1.221950177E2,1.085281372E-3,-2.572774887E-3,5.857452750E-3
1.226950177E2,9.204864502E-3,-3.267765045E-3,3.751173615E-3
1.231950177E2,9.881019592E-3,1.066714525E-2,8.405700326E-3
1.236950177E2,-1.148033142E-2,8.021354675E-3,3.685563803E-3
1.241950177E2,-1.547813416E-2,-3.238409758E-2,4.023581743E-3
1.246950177E2,2.156257629E-3,2.453267574E-3,-1.460577548E-2
1.251950177E2,-1.547813416E-3,-6.112456322E-3,1.635402441E-3
1.256950177E2,-4.291534424E-3,-3.561019897E-3,-4.236400127E-4
1.261950177E2,-3.203392029E-3,-3.240764141E-3,9.714126587E-3
1.266950177E2,3.176689148E-3,4.187464714E-3,-1.381060481E-2
1.271950177E2,2.858161926E-3,-8.422553539E-3,-3.274980187E-2
1.276950177E2,8.029937744E-3,-3.727614880E-3,9.651392698E-3
1.281950177E2,6.977081299E-3,4.413425922E-3,-8.650511503E-3
1.286950177E2,5.178451538E-3,1.739680767E-3,-7.559448481E-3
1.291950177E2,-4.720687866E-4,5.059361458E-3,-1.524090767E-2
1.296950177E2,-8.001327515E-4,-4.232525826E-4,6.371885538E-3
1.301950177E2,8.231163025E-3,4.081189632E-3,-1.309559643E-1
1.306950177E2,-5.525588989E-3,2.745687962E-2,3.297412395E-2
1.311950177E2,-2.561569214E-3,3.607809544E-3,2.006930113E-2
1.316950177E2,1.484680176E-2,-5.544710159E-2,-6.030863523E-2
1.321950177E2,-3.131294250E-2,8.780288696E-2,1.646879166E-1
1.326950177E2,1.609134674E-2,-1.027137041E-2,-4.294902384E-1
1.331950177E2,9.949684143E-3,-2.845090628E-2,-1.641029418E-1
1.336950177E2,1.266479492E-3,-1.258057356E-2,3.092473745E-2
1.341950177E2,2.085685730E-3,-3.192007542E-3,1.045545936E-2
1.346950177E2,1.818656921E-3,-5.425512791E-3,-4.630982876E-3
1.351950177E2,-6.308555603E-3,6.794333458E-3,5.856424570E-2
1.356950177E2,6.448745728E-3,3.346735239E-2,5.560317636E-2
1.361950177E2,-1.618480682E-2,-4.863566160E-2,2.837987542E-1
1.366950177E2,-1.368713379E-2,4.911923409E-2,2.186568975E-1
1.371950177E2,-6.351470947E-4,-4.093050957E-4,-1.442033052E-2
1.376950177E2,1.275539398E-2,-3.678196669E-2,-8.112668991E-3
1.381950177E2,-5.538940430E-3,1.181095839E-2,5.787861347E-2
1.386950177E2,-5.457878113E-3,3.041327000E-3,3.372418880E-2
1.391950177E2,-2.143859863E-3,-6.821751595E-4,-2.241539955E-2
1.396950177E2,3.515243530E-3,-5.477726460E-3,9.307980537E-3
1.401950177E2,3.031730652E-3,4.164576530E-4,-4.120826721E-3
1.406950177E2,1.134014130E-2,-5.271732807E-3,-2.314090729E-3
1.411950177E2,3.917694092E-3,-1.565265656E-2,9.414792061E-3
1.416950177E2,-1.097583771E-2,9.964287281E-3,2.922689915E-2
1.421950177E2,3.117561340E-3,1.442909241E-3,9.378910065E-3
1.426950177E2,5.786895752E-3,1.121813059E-2,-3.016233444E-3
1.431950177E2,-1.127147675E-2,-1.295787096E-2,9.143352509E-4
1.436950177E2,-1.555442810E-3,-3.431022167E-3,2.005088329E-2
1.441950177E2,1.072883606E-3,2.942681313E-4,1.830828190E-2
1.446950177E2,-8.685112000E-3,9.434044361E-3,-1.275932789E-2
1.451950177E2,-2.844905853E-2,6.357729435E-3,2.748477459E-2
1.456950177E2,-2.048015594E-2,-2.047008276E-2,3.617668152E-2
1.461950177E2,2.202033997E-3,3.100079298E-2,1.362359524E-2
1.466950177E2,-1.083278656E-2,-3.851431608E-2,-3.043293953E-3
1.471950177E2,-1.323509216E-2,4.879415035E-3,-6.599664688E-3
1.476950177E2,-6.860733032E-3,-1.093292236E-2,-1.342022419E-2
1.481950177E2,-7.999420166E-3,7.789194584E-3,-3.633272648E-2
1.486950177E2,8.359909058E-3,-2.688592672E-2,-2.935326099E-2
1.491950177E2,5.665779114E-3,4.327368736E-2,-5.826711655E-3
1.496950177E2,-2.490997314E-3,-3.195124865E-2,-5.529534817E-2
1.501950177E2,-4.588127136E-3,3.877824545E-2,2.216446400E-2
1.506950177E2,2.801322937E-2,-3.115671873E-2,7.219076157E-3
1.511950177E2,3.470325470E-2,7.402652502E-2,-2.653563023E-2
1.516950177E2,7.235527039E-3,-2.701187134E-2,-8.630394936E-3
1.521950177E2,2.765750885E-2,3.613448143E-2,4.043483734E-2
1.526950177E2,4.508018494E-3,2.603876591E-2,-1.291906834E-2
1.531950177E2,2.571392059E-2,6.384700537E-2,6.173491478E-3
1.536950177E2,7.712364197E-3,1.614201069E-2,7.247924805E-4
1.541950177E2,7.447242737E-3,2.266424894E-2,-1.789772511E-2
1.546950177E2,5.395030975E-2,4.499852657E-2,-1.387488842E-2
1.551950177E2,-2.765369415E-2,-6.823581457E-2,1.679241657E-2
1.556950177E2,-3.127765656E-2,-1.110105515E-1,-9.801316261E-2
1.561950177E2,2.992153168E-2,-6.446999311E-2,-1.366198063E-2
1.566950177E2,1.078748703E-1,-8.580857515E-2,-1.105296612E-2
1.571950177E2,5.384445190E-2,6.049633026E-3,-5.722445250E-2
1.576950177E2,3.241062164E-2,-2.710413933E-2,-1.912832260E-3
1.581950177E2,1.276779175E-2,1.281833649E-2,-1.485621929E-2
1.586950177E2,5.513191223E-3,2.116149664E-2,-2.031247020E-1
1.591950177E2,2.355480194E-2,2.930939198E-3,-1.080551744E-1
1.596950177E2,-3.844547272E-2,-4.699110985E-3,-8.276051283E-2
1.601950177E2,-8.646583557E-2,2.199345827E-2,2.314565182E-1
1.606950177E2,-9.415626526E-3,1.461619139E-2,1.028136015E-1
1.611950177E2,-5.735874176E-2,5.103617907E-2,5.673003197E-2
1.616950177E2,2.187156677E-2,-1.177431345E-1,9.686350822E-3
1.621950177E2,-2.248287201E-2,-1.287502050E-1,-1.634240150E-2
1.626950177E2,5.352878571E-2,1.897138357E-2,-1.645672321E-2
1.631950177E2,-6.612110138E-2,-6.502109766E-2,8.417844772E-3
1.636950177E2,8.148670197E-2,1.019084454E-1,2.888381481E-2
1.641950177E2,-2.302169800E-2,-2.355462313E-1,1.037740707E-2
1.646950177E2,1.962375641E-2,1.764098406E-1,-8.447939754E-1
1.651950177E2,-7.993698120E-3,-7.708656788E-2,-3.176730871E-2
1.656950177E2,-1.133546829E-1,1.011850834E-1,-3.616666794E-2
1.661950177E2,-1.050662994E-2,-9.361410141E-2,5.477666855E-5
1.666950177E2,3.093242645E-2,5.601370335E-2,-3.013557196E-2
1.671950177E2,1.463432312E-1,-1.051384211E-1,-1.820921898E-4
1.676950177E2,1.123046875E-2,2.927899361E-3,2.545720339E-2
1.681950177E2,-1.331138611E-2,-4.259145260E-2,2.231270075E-2
1.686950177E2,2.330970764E-2,8.623552322E-2,1.069295406E-2
1.691950177E2,1.126289368E-2,-6.672775745E-2,1.569509506E-2
1.696950177E2,2.575874329E-3,1.046475172E-1,-1.418715715E-2
1.701950177E2,2.555274963E-2,-3.545320034E-2,9.941399097E-3
1.706950177E2,5.198287964E-2,5.268466473E-2,-2.837479115E-3
1.711950177E2,-2.186393738E-2,-3.720891476E-2,-8.510887623E-3
1.716950177E2,-2.090740204E-2,1.085424423E-1,-3.342121840E-2
1.721950177E2,8.054256439E-2,1.430785656E-2,-5.133688450E-3
1.726950177E2,1.061220169E-1,-4.969799519E-2,3.433364630E-2
1.731950177E2,-3.017234802E-2,3.348517418E-2,-7.307529449E-5
1.736950177E2,-1.071357727E-2,-6.491184235E-3,-2.811264992E-2
1.741950177E2,2.005577087E-3,3.451263905E-2,2.848130465E-2
1.746950177E2,5.682945251E-3,8.249652386E-2,2.286159992E-2
1.751950177E2,-7.963180542E-3,-8.871078491E-3,-2.026620507E-2
1.756950177E2,-2.489662170E-2,1.092168093E-1,2.980139852E-2
1.761950177E2,6.604194641E-3,9.438395500E-3,-2.475768328E-3
1.766950177E2,-5.253887177E-2,1.125812531E-2,1.244005561E-2
1.771950177E2,1.083564758E-2,-1.513671875E-1,1.852926612E-2
1.776950177E2,-1.523780823E-2,1.231319904E-1,-8.156511188E-2
1.781950177E2,-2.352714539E-3,-1.505023241E-1,-1.474493742E-2
1.786950177E2,-2.674007416E-2,5.105471611E-2,7.709109783E-2
1.791950177E2,-4.088878632E-2,1.077852249E-1,1.369291544E-2
1.796950177E2,-3.639507294E-2,-3.780460358E-2,-4.322558641E-2
1.801950177E2,-9.263229370E-2,4.115498066E-2,7.432779670E-2
1.806950177E2,6.966590881E-3,-8.363604546E-3,-4.972374439E-2
1.811950177E2,7.617568970E-2,1.871550083E-2,2.082809806E-2
1.816950177E2,1.057348251E-1,4.265534878E-2,-4.791375995E-2
1.821950177E2,6.669521332E-2,-1.011538506E-2,5.729863048E-2
1.826950177E2,8.792781830E-2,4.690659046E-2,3.807914257E-2
1.831950177E2,1.830196381E-2,1.386450529E-1,2.222588658E-2
1.836950177E2,-6.875514984E-2,-1.868218184E-1,-2.963644266E-2
1.841950177E2,-6.462764740E-2,4.051733017E-2,1.177695394E-2
1.846950177E2,7.104492188E-2,-2.048218250E-2,-3.932544589E-2
1.851950177E2,1.771831512E-2,9.441733360E-2,6.721842289E-2
1.856950177E2,1.993370056E-2,-8.814013004E-2,-4.201889038E-2
1.861950177E2,6.433200836E-2,-8.261084557E-3,-6.257760525E-2
1.866950177E2,-6.901645660E-2,1.151692867E-2,1.867431402E-2
1.871950177E2,-6.918907166E-2,2.164494991E-2,2.008029819E-2
1.876950177E2,4.914569855E-2,1.729214191E-2,-6.747370958E-2
1.881950177E2,2.692890167E-2,6.849801540E-2,8.185476065E-3
1.886950177E2,4.016017914E-2,-3.492534161E-2,-9.433627129E-3
1.891950177E2,5.864429474E-2,1.729011536E-2,5.912065506E-3
1.896950177E2,-2.717304230E-2,5.232810974E-2,-9.355545044E-3
1.901950177E2,-1.268386841E-2,2.792978287E-2,-4.081088305E-2
1.906950177E2,6.941795349E-2,-4.449486732E-2,4.718679190E-2
1.911950177E2,2.633190155E-2,-3.088307381E-2,-5.796632171E-2
1.916950177E2,1.988697052E-2,2.624428272E-2,-5.831199884E-2
1.921950177E2,-9.806346893E-2,3.551244736E-3,1.178854704E-2
1.926950177E2,-6.159782410E-3,1.361169815E-1,1.093984246E-1
1.931950177E2,3.280925751E-2,-1.177210808E-1,-4.764482379E-2
1.936950177E2,4.415607452E-2,-3.246605396E-2,-6.372499466E-2
1.941950177E2,8.688163757E-2,-3.514289856E-3,2.023532987E-2
1.946950177E2,-4.889488220E-3,-2.972209454E-2,8.913427591E-3
1.951950177E2,6.982612610E-2,5.656886101E-2,-1.053601503E-2
1.956950177E2,4.585361481E-2,-6.670498848E-2,3.482002020E-2
1.961950177E2,-6.471729279E-2,6.970643997E-3,1.286672652E-1
1.966950177E2,-4.799957275E-1,-6.424373984E-1,-3.544345498E-1
1.971950177E2,1.880292892E-1,-4.471567571E-1,-6.525483727E-2
1.976950177E2,1.606140137E-1,-3.782216311E-1,-1.131849885E-1
1.981950177E2,-6.536483765E-3,2.286704779E-1,2.643983960E-1
1.986950177E2,1.215553284E-2,2.477496862E-1,6.940484047E-2
1.991950177E2,-8.563041687E-3,3.953146935E-2,8.095365763E-2
1.996950177E2,-2.627372742E-2,3.564119339E-2,1.742339134E-2
2.001950177E2,3.685283661E-2,-5.222082138E-3,5.916488171E-2
2.006950177E2,-9.862136841E-2,-4.237532616E-3,1.182818413E-2
2.011950177E2,-5.811786652E-2,8.524346352E-2,1.812636256E-1
2.016950177E2,-2.354621887E-2,5.647194386E-2,-3.492867649E-1
2.021950177E2,7.050609589E-2,-1.105475426E-1,-9.172682464E-2
2.026950177E2,-1.409530640E-3,2.929234505E-2,1.322212517E-1
2.031950177E2,5.651855469E-2,-6.585478783E-3,1.625035405E-1
2.036950177E2,6.620407104E-2,-1.242259741E-1,1.006146669E-1
2.041950177E2,8.324527740E-2,-1.386348009E-1,8.528357744E-2
2.046950177E2,5.369186401E-4,-7.740712166E-2,-4.830282927E-2
2.051950177E2,4.481029510E-2,-1.255497932E-1,1.988953352E-2
2.056950177E2,3.637790680E-2,-4.915249348E-2,4.947626591E-2
2.061950177E2,-4.299831390E-2,3.649485111E-2,-5.037909746E-2
2.066950177E2,2.919864655E-2,-2.501094341E-2,-2.418738604E-2
2.071950177E2,-8.267879486E-2,1.189618111E-1,7.456004620E-3
2.076950177E2,5.512237549E-2,7.349860668E-2,3.934502602E-4
2.081950177E2,6.178569794E-2,5.577552319E-2,-4.811221361E-2
2.086950177E2,4.340171814E-3,1.268947124E-2,-5.789995193E-4
2.091950177E2,8.481693268E-2,-5.637168884E-2,-1.967090368E-2
2.096950177E2,-4.048633575E-2,7.288885117E-2,-5.701863766E-2
2.101950177E2,-2.816200256E-3,-8.215188980E-3,-3.024327755E-2
2.106950177E2,1.512050629E-2,1.429057121E-2,-4.855412245E-2
2.111950177E2,4.608345032E-2,-1.238714457E-1,-1.193904877E-2
2.116950177E2,-6.473922729E-2,-3.192925453E-2,-2.954244614E-3
2.121950177E2,-9.238243103E-3,-4.669547081E-3,-3.296566010E-2
2.126950177E2,-1.360607147E-2,-9.021687508E-2,-1.830899715E-2
2.131950177E2,-2.665424347E-2,1.523864269E-2,-9.175425768E-2
2.136950177E2,3.792381287E-2,-2.664661407E-2,-5.210661888E-2
2.141950177E2,5.101203918E-3,5.338358879E-2,-5.662250519E-2
2.146950177E2,1.355171204E-3,-1.368033886E-2,-3.774505854E-2
2.151950177E2,3.171825409E-2,2.554202080E-2,-4.398822784E-4
2.156950177E2,3.446388245E-2,2.393460274E-2,-4.853725433E-3
2.161950177E2,7.033538818E-2,7.471084595E-3,-4.528105259E-3
2.166950177E2,4.051113129E-2,-1.228094101E-3,-2.521997690E-2
2.171950177E2,-5.268859863E-2,3.364825249E-2,-4.027301073E-2
2.176950177E2,-4.384326935E-2,2.005338669E-2,-2.586656809E-2
2.181950177E2,-1.180362701E-2,5.075979233E-2,-8.723914623E-3
2.186950177E2,1.943588257E-3,4.297447205E-2,-3.252142668E-2
2.191950177E2,1.456546783E-2,-3.749799728E-2,-7.362461090E-2
2.196950177E2,-7.195377350E-2,8.784556389E-2,-4.325312376E-2
2.201950177E2,-6.842613220E-3,-7.838535309E-2,-1.661002636E-3
2.206950177E2,-3.644371033E-2,5.508303642E-2,3.420954943E-2
2.211950177E2,-6.353282928E-2,-9.652590752E-2,2.377223969E-2
2.216950177E2,-3.487586975E-3,8.672952652E-3,-3.551125526E-3
2.221950177E2,-5.181789398E-2,-7.095360756E-2,8.816891909E-2
2.226950177E2,2.673625946E-2,5.293035507E-2,4.785406590E-2
2.231950177E2,-3.875064850E-2,6.910085678E-3,3.480350971E-2
2.236950177E2,2.498626709E-4,3.839850426E-2,1.140582561E-2
2.241950177E2,-2.080440521E-2,2.559494972E-2,-8.609890938E-4
2.246950177E2,-2.314567566E-2,-1.826357841E-2,2.739542723E-2
2.251950177E2,-1.917839050E-3,6.960105896E-2,-1.501703262E-2
2.256950177E2,9.679031372E-2,5.018925667E-2,5.130052567E-3
2.261950177E2,-1.418590546E-2,-2.027153969E-2,-6.285905838E-3
2.266950177E2,4.949569702E-3,2.963590622E-2,2.755248547E-2
2.271950177E2,2.633762360E-2,2.128052711E-2,4.392266273E-3
2.276950177E2,-1.247882843E-2,-2.763533592E-2,1.487553120E-2
2.281950177E2,1.248836517E-2,2.594876289E-2,1.640558243E-2
2.286950177E2,1.016330719E-2,-7.173776627E-3,-6.846427917E-3
2.291950177E2,-7.509231567E-3,-1.913428307E-2,1.374065876E-2
2.296950177E2,4.607200623E-3,-5.204439163E-3,-3.775560856E-2
2.301950177E2,-1.110553741E-2,5.959272385E-3,-3.651440144E-3
2.306950177E2,6.937026978E-3,-1.785039902E-2,6.970167160E-4
2.311950177E2,1.030921936E-3,1.332759857E-2,-1.092481613E-2
2.316950177E2,-5.904197693E-3,-4.932165146E-3,1.460242271E-2
2.321950177E2,-7.006645203E-3,2.509832382E-3,1.807796955E-2
2.326950177E2,-8.103370667E-3,1.156830788E-2,2.476572990E-2
2.331950177E2,4.640579224E-3,-2.563238144E-3,7.760047913E-3
2.336950177E2,3.261566162E-4,1.676011086E-2,3.009510040E-2
2.341950177E2,7.780075073E-3,-3.299403191E-2,2.836346626E-3
2.346950177E2,3.267288208E-3,1.667022705E-3,-5.359905958E-2
2.351950177E2,1.394271851E-2,-1.541686058E-2,-1.438062191E-1
2.356950177E2,1.223278046E-2,-3.996849060E-3,-1.258451939E-1
2.361950177E2,-3.176689148E-3,4.302501678E-3,-1.523578167E-2
2.366950177E2,8.316040039E-4,3.859996796E-4,-4.971027374E-5
2.371950177E2,1.955986023E-3,3.098964691E-3,-9.169638157E-3
2.376950177E2,-6.905555725E-3,-3.405332565E-3,3.032147884E-3
2.381950177E2,-2.908706665E-4,-7.293224335E-4,3.621459007E-3
2.386950177E2,1.536369324E-3,5.295276642E-4,-3.969311714E-3
2.391950177E2,3.386497498E-3,-2.881765366E-3,-5.213481188E-2
2.396950177E2,9.572029114E-3,1.182794571E-3,-1.165693998E-2
2.401950177E2,3.255844116E-3,3.719806671E-3,-8.930236101E-3
2.406950177E2,9.217262268E-3,-2.381086349E-3,-4.205694795E-2
2.411950177E2,-1.141262054E-2,-1.444816589E-3,1.239534020E-1
2.416950177E2,5.284309387E-3,-2.310514450E-3,4.250532389E-2
2.421950177E2,-2.334594727E-2,1.329779625E-2,2.237635851E-1
2.426950177E2,-2.550888062E-2,2.745318413E-2,1.717572212E-1
2.431950177E2,8.213043213E-3,-3.734064102E-2,2.985715866E-2
2.436950177E2,-2.156448364E-2,6.201505661E-3,8.476483822E-2
2.441950177E2,-8.977890015E-3,1.835823059E-5,3.322505951E-2
2.446950177E2,4.170417786E-3,4.819869995E-3,3.946542740E-3
2.451950177E2,-6.638526917E-3,-3.129720688E-3,1.032078266E-2
2.456950177E2,6.880760193E-3,1.388072968E-3,-1.963376999E-4
2.461950177E2,-1.502037048E-3,-6.544351578E-3,-1.017212868E-3
2.466950177E2,-3.379821777E-3,-5.921125412E-3,2.681136131E-3
2.471950177E2,-1.086235046E-3,5.224943161E-3,9.539127350E-4
2.476950177E2,4.176139832E-3,2.059125900E-2,-4.687309265E-4
2.481950177E2,-1.489925385E-2,-1.925754547E-2,-6.974577904E-3
2.486950177E2,1.017189026E-2,2.600097656E-2,2.339243889E-3
2.491950177E2,1.118755341E-2,-1.483488083E-2,-4.094839096E-4
2.496950177E2,-2.643585205E-3,9.407281876E-3,-7.737994194E-3
2.501950177E2,2.238273621E-3,-3.402233124E-4,-4.677057266E-3
2.506950177E2,-1.470565796E-3,1.716613770E-3,1.250386238E-3
2.511950177E2,-4.692077637E-4,6.238222122E-3,1.945495605E-4
2.516950177E2,2.910614014E-3,1.685905457E-2,5.503892899E-4
2.521950177E2,2.122020721E-2,5.094766617E-3,4.576563835E-3
2.526950177E2,2.193450928E-3,-4.742860794E-3,-3.558993340E-3
2.531950177E2,3.749847412E-3,1.134610176E-2,6.777048111E-4
2.536950177E2,9.072303772E-3,-1.189970970E-2,6.370306015E-3
2.541950177E2,7.306098938E-3,2.463817596E-3,4.627704620E-4
2.546950177E2,-8.176803589E-3,7.292509079E-3,4.395604134E-3
2.551950177E2,-7.678985596E-3,-1.328921318E-2,5.208492279E-3
2.556950177E2,-1.666069031E-3,8.279800415E-3,-1.373767853E-2
2.561950177E2,3.825187683E-3,5.769252777E-3,-3.840923309E-4
2.566950177E2,9.472846985E-3,-2.454280853E-3,-4.650354385E-4
2.571950177E2,1.163482666E-4,-1.028847694E-2,1.451969147E-3
2.576950177E2,6.881713867E-3,5.132913589E-3,7.644891739E-4
2.581950177E2,3.384590149E-3,-8.580207825E-3,4.142642021E-3
2.586950177E2,-5.584716797E-3,7.097005844E-3,-2.066016197E-3
2.591950177E2,-8.828163147E-3,-1.068520546E-2,-4.456281662E-3
2.596950177E2,2.747535706E-3,4.959106445E-3,6.565332413E-3
2.601950177E2,3.445625305E-3,-1.924276352E-3,-9.272098541E-4
2.606950177E2,3.848075867E-3,5.081892014E-3,2.184879780E-2
2.611950177E2,-5.953788757E-3,-5.027055740E-3,2.401041985E-2
2.616950177E2,-3.630638123E-3,-1.645565033E-3,2.563452721E-2
2.621950177E2,4.917144775E-3,-3.027915955E-4,-2.976012230E-2
2.626950177E2,4.467964172E-3,-3.948450089E-3,-4.905891418E-2
2.631950177E2,2.319335938E-3,-1.353502274E-3,-2.077853680E-2
2.636950177E2,-2.472877502E-3,2.125978470E-3,3.270614147E-2
2.641950177E2,-4.929542542E-3,4.146337509E-3,4.520487785E-2
2.646950177E2,1.017284393E-2,-2.828598022E-3,-3.932607174E-2
2.651950177E2,3.171920776E-3,5.901336670E-3,1.027369499E-2
2.656950177E2,-2.541542053E-3,-3.460645676E-3,7.345557213E-3
2.661950177E2,2.750396729E-3,-3.243684769E-3,-5.360126495E-3
2.666950177E2,-2.996444702E-3,2.662897110E-3,6.604075432E-3
2.671950177E2,-2.649307251E-3,-1.617670059E-3,-3.585696220E-3
2.676950177E2,-1.896858215E-3,1.133203506E-3,-9.846091270E-3
2.681950177E2,6.467819214E-3,-8.016347885E-3,-1.226043701E-2
2.686950177E2,2.432823181E-3,-3.390073776E-3,7.999539375E-3
2.691950177E2,-8.087158203E-3,8.848190308E-3,5.656158924E-2
2.696950177E2,1.208305359E-2,-8.689880371E-3,-1.459968090E-2
2.701950177E2,8.481025696E-3,-3.808498383E-3,-7.919049263E-2
2.706950177E2,7.734298706E-4,5.308389664E-3,-1.291406155E-2
2.711950177E2,-2.096176147E-3,-1.520156860E-3,2.015626431E-2
2.716950177E2,-3.065109253E-3,-4.504919052E-3,1.136732101E-2
2.721950177E2,-6.475448608E-4,-1.608133316E-3,7.384777069E-3
2.726950177E2,2.555847168E-3,-2.636432648E-3,2.026796341E-3
2.731950177E2,1.573562622E-4,3.187656403E-4,1.427650452E-3
2.736950177E2,5.547523499E-3,4.233360291E-3,7.998943329E-5
2.741950177E2,-4.308700562E-3,-2.687454224E-3,-1.242995262E-3
2.746950177E2,-6.095886230E-3,-3.421306610E-4,3.390073776E-3
2.751950177E2,5.447387695E-3,2.196073532E-3,7.018208504E-3
2.756950177E2,2.593040466E-3,-3.096342087E-3,4.457116127E-3
2.761950177E2,-1.088142395E-3,-1.381158829E-3,1.755321026E-2
2.766950177E2,-1.867771149E-2,1.184487343E-2,9.461140633E-2
2.771950177E2,-4.719066620E-2,-2.156162262E-2,2.184007168E-1
2.776950177E2,-3.920364380E-2,9.199619293E-3,1.622014046E-1
2.781950177E2,-6.415367126E-3,-1.246690750E-3,6.839346886E-2
2.786950177E2,-1.296424866E-2,-9.078979492E-4,4.579758644E-2
2.791950177E2,-6.268501282E-3,-4.643678665E-3,8.428096771E-4
2.796950177E2,-9.113311768E-3,4.398822784E-4,2.462387085E-3
2.801950177E2,-4.777908325E-4,-6.826162338E-3,-5.269527435E-3
2.806950177E2,-2.534103394E-2,4.977941513E-3,9.032177925E-2
2.811950177E2,-8.507728577E-3,-2.195596695E-3,2.843570709E-2
2.816950177E2,-3.901481628E-3,-7.541179657E-4,-1.873254776E-3
2.821950177E2,6.358146667E-3,4.699230194E-3,-1.344680786E-4
2.826950177E2,-2.418518066E-3,5.393028259E-4,2.789497375E-4
2.831950177E2,5.826950073E-3,-7.835626602E-3,-1.536846161E-3
2.836950177E2,1.500129700E-3,-4.127025604E-4,1.431703568E-3
2.841950177E2,-2.252578735E-3,5.396604538E-3,4.426717758E-3
2.846950177E2,-4.832267761E-3,-1.462149620E-2,-5.137920380E-4
2.851950177E2,3.365516663E-3,8.133649826E-3,-1.947641373E-3
2.856950177E2,1.899814606E-2,7.357835770E-3,2.167725563E-2
2.861950177E2,-1.915645599E-1,1.103146076E-1,2.642400265E-1
2.866950177E2,1.123628616E-1,-1.049888134E-1,-2.054321766E-1
2.871950177E2,-1.535320282E-1,3.809949160E-1,5.981540680E-1
2.876950177E2,9.299316406E-1,1.042874098E0,-1.460833907E0
2.881950177E2,-2.351970673E-1,-5.608750582E-1,-4.894549847E-1
2.886950177E2,-1.194143295E-1,-4.044566453E-1,7.063336372E-1
2.891950177E2,2.286090851E-1,-1.322845459E0,-4.440480173E-1
2.896950177E2,4.455366135E-1,-1.020457506E0,-8.855437040E-1
2.901950177E2,2.137546539E-1,-5.452225208E-1,-5.525400043E-1
2.906950177E2,1.150217056E-1,-1.805123091E-1,-3.685755134E-1
2.911950177E2,3.888320923E-2,-5.194628239E-2,-1.567881703E-1
2.916950177E2,5.332851410E-2,-2.654790878E-3,-8.476197720E-2
2.921950177E2,-5.785846710E-2,-1.115962267E-1,-7.626891136E-3
2.926950177E2,-5.200672150E-2,2.452969551E-3,-2.086818814E-1
2.931950177E2,-1.029205322E-2,-4.466772079E-4,-9.537696838E-3
2.936950177E2,6.848335266E-2,-5.261659622E-2,7.120933533E-1
2.941950177E2,-5.251407623E-2,-4.234313965E-3,3.146902323E-1
2.946950177E2,-1.207160950E-2,1.896167994E-1,-1.296901703E-2
2.951950177E2,3.645229340E-2,4.017150402E-2,-1.430652142E-1
2.956950177E2,5.318355560E-2,1.457805634E-1,-2.277817130E-1
2.961950177E2,-1.852798462E-2,2.302265167E-2,-1.442679465E-1
2.966950177E2,-2.108955383E-2,-2.850723267E-2,6.481528282E-3
2.971950177E2,2.104282379E-2,-5.764722824E-3,-6.242156029E-3
2.976950177E2,-9.490966797E-3,-1.121994257E-1,2.042341232E-2
2.981950177E2,5.253505707E-2,8.125543594E-2,1.382750869E-1
2.986950177E2,8.372116089E-2,1.591444016E-1,-6.365755200E-2
2.991950177E2,-1.693058014E-2,5.944561958E-2,-2.141934633E-2
2.996950177E2,-7.983875275E-2,1.699709892E-2,-4.258763790E-2
3.001950177E2,-3.270626068E-2,2.641773224E-2,4.000020027E-2
3.006950177E2,2.904129028E-2,2.360558510E-2,2.879679203E-2
3.011950177E2,-2.291107178E-2,6.403636932E-2,5.879968405E-2
3.016950177E2,-1.044654846E-2,3.597092628E-2,-2.772403061E-1
3.021950177E2,-5.586147308E-2,4.958891869E-2,-9.283168614E-2
3.026950177E2,3.035354614E-2,3.625416756E-2,-2.449926734E-2
3.031950177E2,8.360385895E-2,3.713011742E-2,-3.235019743E-2
3.036950177E2,-1.014232635E-2,-1.260025501E-1,1.345276833E-4
3.041950177E2,-3.590583801E-3,-8.470892906E-2,9.621828794E-3
3.046950177E2,5.707836151E-2,-1.316154003E-1,-1.294264197E-2
3.051950177E2,1.929378510E-2,-1.444284916E-1,-3.699059784E-2
3.056950177E2,-8.459091187E-3,-6.228256226E-2,-1.640833914E-2
3.061950177E2,-8.401489258E-2,-2.460823059E-1,3.437709808E-2
3.066950177E2,4.384613037E-2,1.096662283E-1,-1.916155219E-3
3.071950177E2,1.561279297E-1,-3.839346170E-1,-1.536398828E-1
3.076950177E2,1.128826141E-1,-2.293574810E-2,-1.011342779E-1
3.081950177E2,9.474277496E-2,-1.267480850E-1,2.834604681E-2
3.086950177E2,8.916378021E-2,-2.115734816E-1,1.122591645E-2
3.091950177E2,2.282238007E-2,-6.531167030E-2,1.044654250E-1
3.096950177E2,-5.742740631E-2,-5.566096306E-2,4.178780317E-2
3.101950177E2,8.353233337E-3,7.132637501E-2,5.862188339E-2
3.106950177E2,1.819801331E-2,-1.688683033E-2,2.465289831E-2
3.111950177E2,-4.932498932E-2,1.609855890E-1,-2.033931017E-2
3.116950177E2,-5.781841278E-2,8.236563206E-2,-3.253251314E-2
3.121950177E2,-3.180503845E-3,1.643512249E-1,-6.439089775E-4
3.126950177E2,-1.836395264E-2,1.166034937E-1,-1.710212231E-2
3.131950177E2,-9.469890594E-2,1.424077749E-1,-9.325242043E-2
3.136950177E2,-4.205799103E-2,1.146876812E-1,-6.094038486E-2
3.141950177E2,-1.277351379E-2,-3.634214401E-3,-5.193197727E-2
3.146950177E2,2.945041656E-2,-6.333231926E-2,2.021329403E-1
3.151950177E2,-1.441001892E-2,2.423405647E-2,-2.276518345E-1
3.156950177E2,5.072021484E-2,-2.897238731E-2,4.409539700E-2
3.161950177E2,-3.754997253E-2,-8.026838303E-2,4.401862621E-3
3.166950177E2,-5.075073242E-2,1.803343296E-1,7.108449936E-3
3.171950177E2,-1.938819885E-3,-1.123929024E-1,1.452726126E-2
3.176950177E2,3.570270538E-2,7.646107674E-2,-8.578360081E-3
3.181950177E2,-3.229808807E-2,-2.082920074E-2,-4.902780056E-3
3.186950177E2,-3.525733948E-3,2.385210991E-2,-1.557976007E-2
3.191950177E2,-1.288795471E-2,-6.029605865E-3,5.329430103E-3
3.196950177E2,9.775161743E-4,2.736806870E-2,-8.844375610E-3
3.201950177E2,5.645751953E-4,-1.552176476E-2,-1.301270723E-2
3.206950177E2,1.021385193E-3,-1.475310326E-2,-7.216334343E-3
3.211950177E2,6.053924561E-3,-4.341125488E-3,-7.726252079E-3
3.216950177E2,-7.633209229E-3,1.725387573E-2,1.457035542E-2
3.221950177E2,1.859664917E-2,-2.735161781E-2,5.588352680E-3
3.226950177E2,-1.004219055E-3,-1.719427109E-2,-1.195323467E-2
3.231950177E2,-1.054096222E-2,3.039407730E-2,-5.758047104E-3
3.236950177E2,-1.595306396E-2,-1.797366142E-2,-5.452632904E-4
3.241950177E2,4.699707031E-3,2.537488937E-3,-4.093825817E-3
3.246950177E2,2.324008942E-2,-1.978206635E-2,-2.692043781E-3
3.251950177E2,1.250267029E-3,1.151633263E-2,-6.608784199E-3
3.256950177E2,-4.074954987E-2,-1.672337055E-1,-5.082094669E-2
3.261950177E2,4.453945160E-2,5.299639702E-2,3.271460533E-3
3.266950177E2,-6.688117981E-3,-2.806823254E-1,-1.122921705E-2
3.271950177E2,1.239395142E-2,-1.369936466E-1,-2.552688122E-3
3.276950177E2,6.547355652E-2,-1.563696861E-1,5.632758141E-3
3.281950177E2,5.906295776E-2,-9.632778168E-2,4.491746426E-3
3.286950177E2,6.484127045E-2,-1.617391109E-1,-2.175450325E-2
3.291950177E2,3.691291809E-2,-2.460503578E-2,-2.378857136E-2
3.296950177E2,2.456665039E-3,-4.584336281E-2,-1.666903496E-2
3.301950177E2,-1.023483276E-2,-1.020121574E-2,-2.654474974E-2
3.306950177E2,-1.692676544E-2,5.848181248E-2,-4.547572136E-2
3.311950177E2,-3.279781342E-2,4.836082458E-2,-5.012506247E-2
3.316950177E2,-1.710605621E-2,-6.046259403E-2,-2.646559477E-2
3.321950177E2,2.520847321E-2,2.627134323E-3,-3.866952658E-2
3.326950177E2,-9.314537048E-3,-2.888405323E-2,-4.616087675E-2
3.331950177E2,1.935100555E-2,-5.696582794E-2,-6.178945303E-2
3.336950177E2,3.928184509E-2,7.617509365E-2,-3.182274103E-2
3.341950177E2,-2.485179901E-2,9.413003922E-2,-1.599815488E-1
3.346950177E2,-7.057189941E-4,1.057798862E-1,-1.445741057E-1
3.351950177E2,1.972866058E-2,1.237900257E-1,-2.766603231E-2
3.356950177E2,-2.764415741E-2,1.807193756E-1,-6.651431322E-2
3.361950177E2,-4.092788696E-2,1.855597496E-1,-4.729586840E-2
3.366950177E2,-3.552150726E-2,1.270649433E-1,-7.376790047E-2
3.371950177E2,-6.503105164E-2,1.091988087E-1,-8.656620979E-2
3.376950177E2,-2.910804749E-2,3.255319595E-2,-1.007236540E-1
3.381950177E2,-1.550674438E-3,6.026482582E-2,-4.744416475E-2
3.386950177E2,-4.646682739E-2,-1.036560535E-1,-1.087930799E-2
3.391950177E2,4.399299622E-3,4.332947731E-2,-3.234991431E-2
3.396950177E2,1.383686066E-2,-1.310062408E-2,-1.658925414E-2
3.401950177E2,-5.416011810E-2,6.284499168E-2,3.189116716E-3
3.406950177E2,-4.511642456E-2,2.409458160E-2,3.510302305E-2
3.411950177E2,-3.407764435E-2,-4.838061333E-2,5.828186870E-2
3.416950177E2,-6.426334381E-2,1.137673855E-1,3.227002919E-1
3.421950177E2,8.430480957E-4,-1.778054237E-2,-3.558760285E-1
3.426950177E2,3.431034088E-2,1.553797722E-2,-3.982047737E-2
3.431950177E2,2.973461151E-2,-3.193628788E-2,-8.337308466E-2
3.436950177E2,3.794288635E-2,-1.403272152E-2,1.011174321E-1
3.441950177E2,1.676750183E-2,-2.954721451E-3,5.275666714E-3
3.446950177E2,-2.840423584E-2,1.076149940E-2,1.600303054E-1
3.451950177E2,-1.523685455E-2,2.513241768E-2,7.304626703E-2
3.456950177E2,-9.421348572E-3,1.471114159E-2,2.148002386E-2
3.461950177E2,2.595424652E-2,1.517653465E-2,1.875674725E-2
3.466950177E2,1.623439789E-2,3.101491928E-2,-4.374909401E-2
3.471950177E2,2.280426025E-2,-1.712822914E-2,-1.109545827E-1
3.476950177E2,2.369785309E-2,2.019095421E-2,-5.551791191E-2
3.481950177E2,1.530456543E-2,-6.296408176E-2,2.046835423E-2
3.486950177E2,7.513999939E-3,-5.524539948E-2,9.903311729E-2
3.491950177E2,-6.476402283E-2,1.611557007E-1,1.307862401E-1
3.496950177E2,3.676223755E-2,-6.498193741E-2,-2.078333497E-1
3.501950177E2,-1.993751526E-2,1.455426216E-2,9.912073612E-2
3.506950177E2,1.204490662E-3,-4.088068008E-2,4.269468784E-2
3.511950177E2,-2.713203430E-3,2.609086037E-2,9.494900703E-3
3.516950177E2,-3.394126892E-3,-8.853435516E-3,3.969597816E-2
3.521950177E2,1.340770721E-2,1.394891739E-2,-7.878828049E-2
3.526950177E2,1.965236664E-2,-1.847362518E-2,-1.220642328E-1
3.531950177E2,1.330089569E-2,9.863138199E-3,-5.019712448E-2
3.536950177E2,-4.348754883E-3,-1.277136803E-2,1.864355803E-2
3.541950177E2,6.235122681E-3,-3.226518631E-3,-7.096886635E-3
3.546950177E2,-8.745193481E-4,-8.635520935E-4,7.836759090E-3
3.551950177E2,-2.292633057E-3,6.201267242E-3,1.235741377E-2
3.556950177E2,1.935958862E-4,-1.874566078E-2,1.739156246E-2
3.561950177E2,-9.942054749E-3,1.906394958E-2,8.819150925E-2
3.566950177E2,1.977443695E-2,2.489829063E-2,-9.122198820E-2
3.571950177E2,-9.878158569E-3,6.232261658E-2,-7.289022207E-2
3.576950177E2,4.062557220E-2,-1.143524647E-1,-6.171855330E-2
3.581950177E2,-2.565574646E-2,9.312081337E-2,-2.215245366E-2
3.586950177E2,6.247520447E-3,-3.141093254E-2,-2.118845284E-1
3.591950177E2,-3.365516663E-3,-1.015400887E-2,-8.252143860E-3
3.596950177E2,-5.448341370E-3,-3.013563156E-2,2.452991307E-1
3.601950177E2,7.284164429E-3,-6.159782410E-3,-2.025282383E-2
3.606950177E2,-8.282661438E-3,2.892613411E-2,-8.376359940E-3
3.611950177E2,-8.278846741E-3,-1.200985909E-2,9.924054146E-2
3.616950177E2,-1.478481293E-2,1.526689529E-2,1.074007154E-1
3.621950177E2,-2.569198608E-3,-5.334615707E-2,2.212008238E-1
3.626950177E2,-7.552146912E-2,1.512930393E-1,5.923308134E-1
3.631950177E2,2.371501923E-2,-2.128958702E-2,5.014249682E-2
3.636950177E2,1.593875885E-2,-3.004765511E-2,-1.904660165E-1
3.641950177E2,1.718807220E-2,-2.366006374E-2,-5.814909935E-2
3.646950177E2,7.279396057E-3,-9.148597717E-3,-1.640993357E-2
3.651950177E2,6.789207458E-3,-3.481030464E-3,-7.376670837E-3
3.656950177E2,5.774497986E-3,-1.497864723E-3,-1.045167446E-3
3.661950177E2,-3.017425537E-3,-1.863718033E-3,-3.462016582E-3
3.666950177E2,-2.675056458E-3,-1.556932926E-2,4.469931126E-3
3.671950177E2,-1.039695740E-2,4.247307777E-3,-5.695343018E-3
3.676950177E2,1.204490662E-3,-9.496808052E-3,-2.577960491E-3
3.681950177E2,-6.233215332E-3,-5.905151367E-3,1.165449619E-3
3.686950177E2,-1.899719238E-3,6.133317947E-3,-6.133317947E-3
3.691950177E2,-5.237579346E-3,-1.018667221E-2,6.804049015E-3
3.696950177E2,6.571769714E-3,1.408028603E-2,6.847739220E-3
3.701950177E2,1.801204681E-2,1.203775406E-3,5.180239677E-3
3.706950177E2,-2.326011658E-3,4.314899445E-3,-3.860592842E-4
3.711950177E2,-2.095222473E-3,-1.077461243E-2,-2.696931362E-3
3.716950177E2,4.718780518E-3,1.357889175E-2,-5.591511726E-4
3.721950177E2,-6.017684937E-4,-4.610300064E-3,-1.136660576E-3
3.726950177E2,5.312919617E-3,-1.391887665E-3,-1.478374004E-3
3.731950177E2,5.301475525E-3,1.063585281E-3,2.603113651E-3
3.736950177E2,-6.037712097E-3,-1.010894775E-4,-1.046955585E-3
3.741950177E2,8.125305176E-4,1.546359062E-2,8.565247059E-3
3.746950177E2,7.584571838E-3,-1.298618317E-2,-7.453978062E-3
3.751950177E2,5.477905273E-3,-9.295940399E-3,-2.987593412E-2
3.756950177E2,1.124858856E-2,-3.076291084E-2,3.726065159E-3
3.761950177E2,-7.439613342E-3,5.410909653E-3,1.097005606E-2
3.766950177E2,1.358985901E-3,-9.718179703E-3,-2.676606178E-3
3.771950177E2,-8.339881897E-3,2.999377251E-2,4.019325972E-2
3.776950177E2,4.801750183E-3,-1.563382149E-2,-2.051597834E-2
3.781950177E2,3.614425659E-4,-1.400804520E-2,-8.675158024E-3
3.786950177E2,-1.208305359E-3,4.112482071E-3,5.097627640E-3
3.791950177E2,5.826950073E-4,2.916812897E-3,1.194447279E-2
3.796950177E2,2.314472198E-2,-7.454752922E-3,-4.280194640E-2
3.801950177E2,-1.440334320E-2,5.809271336E-2,-3.126561642E-3
3.806950177E2,2.732086182E-2,-7.242441177E-2,1.443332434E-2
3.811950177E2,1.007080078E-3,-9.222149849E-3,-2.180716395E-2
3.816950177E2,3.333663940E-2,-1.877928972E-1,2.653977275E-1
3.821950177E2,-3.605747223E-2,2.130749226E-1,-3.521386981E-1
3.826950177E2,1.244926453E-2,1.422882080E-2,3.310114145E-3
3.831950177E2,2.373695374E-3,-1.559972763E-3,1.095098257E-2
3.836950177E2,-1.772880554E-3,-3.253936768E-3,8.110404015E-4
3.841950177E2,-1.175880432E-3,2.214670181E-3,2.936273813E-3
3.846950177E2,4.111289978E-3,1.571416855E-3,2.240240574E-4
3.851950177E2,-2.734184265E-3,1.312255859E-3,-1.969933510E-5
3.856950177E2,1.629829407E-3,-2.427577972E-3,2.256929874E-4
3.861950177E2,8.087158203E-4,-3.327608109E-3,1.389354467E-3
3.866950177E2,-2.130508423E-3,6.479263306E-3,-1.789629459E-4
3.871950177E2,-2.678871155E-3,2.962112427E-3,-7.191300392E-5
3.876950177E2,2.964973450E-3,-7.102727890E-3,2.013236284E-3
3.881950177E2,-8.630752563E-4,1.534223557E-3,-3.089964390E-3
3.886950177E2,2.696990967E-3,-5.409955978E-3,-3.950685263E-3
3.891950177E2,-3.538131714E-4,2.480268478E-3,-3.662407398E-4
3.896950177E2,-1.441001892E-3,-2.223253250E-3,1.092106104E-3
3.901950177E2,-6.713867188E-4,-3.583431244E-3,1.008808613E-3
3.906950177E2,-1.194953918E-3,1.967215538E-2,7.229286432E-2
3.911950177E2,2.658843994E-3,-1.097083092E-2,1.480752230E-1
3.916950177E2,-2.493858337E-2,2.436089516E-2,2.461122274E-1
3.921950177E2,-2.050304413E-2,3.920197487E-2,2.083156109E-1
3.926950177E2,-2.316474915E-3,-2.508640289E-3,7.800197601E-2
3.931950177E2,2.031326294E-4,8.116960526E-3,2.551543713E-2
3.936950177E2,-2.821922302E-3,1.967668533E-3,6.529569626E-3
3.941950177E2,5.299568176E-3,-2.682447433E-3,-3.052127361E-2
3.946950177E2,4.449844360E-3,-4.273653030E-3,-3.237628937E-2
3.951950177E2,1.049995422E-3,-4.209518433E-3,-3.618121147E-3
3.956950177E2,-4.080772400E-3,-3.545284271E-3,4.822731018E-3
3.961950177E2,-8.678436279E-5,-5.082607269E-3,-4.902124405E-3
3.966950177E2,6.782531738E-3,3.521680832E-3,-4.109263420E-3
3.971950177E2,-1.990318298E-3,6.699323654E-3,4.588961601E-3
3.976950177E2,-1.292228699E-3,-1.997709274E-3,6.984591484E-3
3.981950177E2,-3.982543945E-3,-1.037478447E-2,5.683422089E-3
3.986950177E2,-2.106952667E-2,1.850843430E-3,1.166498661E-2
3.991950177E2,-1.410198212E-2,-6.022691727E-3,6.716609001E-3
3.996950177E2,3.404617310E-3,-3.736591339E-2,3.702998161E-3
4.001950177E2,-9.857177734E-3,1.533484459E-2,-4.259943962E-3
4.006950177E2,-2.188587189E-2,-2.183699608E-2,1.503658295E-2
4.011950177E2,-9.395599365E-3,-1.802182198E-2,3.320693970E-3
4.016950177E2,1.344490051E-2,-7.500529289E-2,7.936835289E-3
4.021950177E2,2.808475494E-2,-2.960991859E-2,3.445625305E-3
4.026950177E2,-2.532291412E-2,-4.789853096E-2,4.589796066E-3
4.031950177E2,-1.665306091E-2,-1.004550457E-1,-1.370370388E-2
4.036950177E2,3.065204620E-2,-9.733200073E-3,-3.571248055E-2
4.041950177E2,4.336357117E-3,-2.068445683E-1,-1.074965596E-1
4.046950177E2,3.883457184E-2,3.608560562E-2,-1.617573500E-1
4.051950177E2,6.934452057E-2,-1.182253361E-1,-2.629613280E-1
4.056950177E2,6.956100464E-2,7.357478142E-2,-1.520190202E-2
4.061950177E2,7.040691376E-2,-1.843920946E-1,-1.609877348E-1
4.066950177E2,1.035385132E-1,-1.257462502E-1,-4.934251308E-3
4.071950177E2,1.083927155E-1,3.917193413E-2,-5.251392126E-1
4.076950177E2,-1.046218872E-1,-7.486295700E-2,5.705797672E-1
4.081950177E2,2.026367188E-2,-2.180075645E-2,9.243845940E-3
4.086950177E2,1.381587982E-2,3.929054737E-2,-1.054792404E-1
4.091950177E2,1.183891296E-2,-2.670598030E-2,-3.312110901E-3
4.096950177E2,2.362632751E-2,2.573978901E-2,8.989465237E-2
4.101950177E2,-5.076122284E-2,2.089241743E-1,-1.289522648E-2
4.106950177E2,8.637428284E-3,5.309820175E-3,7.501220703E-2
4.111950177E2,-2.275848389E-2,7.019162178E-3,9.118199348E-3
4.116950177E2,-1.244068146E-2,9.584057331E-2,-3.281116486E-3
4.121950177E2,-3.584861755E-3,7.034587860E-2,4.324674606E-3
4.126950177E2,-2.238941193E-2,8.695673943E-2,2.168536186E-2
4.131950177E2,2.829360962E-2,4.994916916E-2,-3.032425642E-1
4.136950177E2,-4.834079742E-2,1.723246574E-1,-7.705879211E-2
4.141950177E2,-4.290390015E-2,4.417538643E-3,-1.549100876E-2
4.146950177E2,-1.324329376E-1,2.080373764E-1,1.094985008E-2
4.151950177E2,4.949569702E-3,-8.416771889E-3,9.278059006E-3
4.156950177E2,-1.242542267E-2,4.331970215E-2,-2.785587311E-2
4.161950177E2,-3.266525269E-2,9.998726845E-2,-8.283376694E-3
4.166950177E2,-3.599452972E-2,1.042616367E-1,-4.897022247E-2
4.171950177E2,-3.095817566E-2,1.315038204E-1,-9.211301804E-3
4.176950177E2,3.371238708E-3,9.706258774E-2,-5.938529968E-3
4.181950177E2,-7.664680481E-3,1.229832172E-1,-3.894448280E-2
4.186950177E2,1.125621796E-2,1.122353077E-1,2.848410606E-2
4.191950177E2,-2.341842651E-2,9.063315392E-2,-2.363204956E-3
4.196950177E2,3.172016144E-2,9.103012085E-2,-3.845071793E-2
4.201950177E2,2.560043335E-2,-1.265072823E-2,-3.734397888E-2
4.206950177E2,4.924869537E-2,6.664013863E-2,-8.467388153E-2
4.211950177E2,4.139709473E-2,-1.784348488E-2,-2.225160599E-2
4.216950177E2,5.459117889E-2,4.382205009E-2,-3.758597374E-2
4.221950177E2,4.221916199E-2,-8.387541771E-2,-2.356719971E-2
4.226950177E2,-3.974056244E-2,-2.186536789E-3,-6.706547737E-2
4.231950177E2,2.375316620E-2,-5.609107018E-2,-4.005765915E-2
4.236950177E2,1.018047333E-2,-3.472399712E-2,-6.158232689E-2
4.241950177E2,-1.797676086E-3,-4.278659821E-2,-3.095316887E-2
4.246950177E2,3.168201447E-2,-1.485772133E-1,-2.926683426E-2
4.251950177E2,3.748798370E-2,-9.367156029E-2,2.988100052E-3
4.256950177E2,3.579425812E-2,-1.939642429E-1,-3.198599815E-2
4.261950177E2,-4.179286957E-2,-8.275198936E-2,-4.801177979E-2
4.266950177E2,1.976108551E-2,-1.178491116E-1,-1.121926308E-2
4.271950177E2,1.121807098E-2,-7.544922829E-2,-1.803064346E-2
4.276950177E2,-3.595352173E-4,-3.781104088E-2,-1.193642616E-2
4.281950177E2,-3.294849396E-2,1.678919792E-2,1.580166817E-2
4.286950177E2,-3.431415558E-2,-1.061153412E-2,3.697156906E-3
4.291950177E2,-9.878158569E-3,9.333848953E-3,-1.553392410E-2
4.296950177E2,-1.883602142E-2,4.661297798E-2,1.470232010E-2
4.301950177E2,-5.176544189E-3,-1.273632050E-3,3.238177299E-2
4.306950177E2,-9.563446045E-3,-2.426362038E-2,1.140754223E-1
4.311950177E2,2.388191223E-2,-5.563187599E-2,-1.142661572E-1
4.316950177E2,5.868625641E-2,-3.503012657E-2,-1.421327591E-1
4.321950177E2,2.833366394E-3,-7.800126076E-2,3.927135468E-2
4.326950177E2,6.312370300E-3,6.752252579E-2,1.880955696E-2
4.331950177E2,5.655288696E-4,-7.376599312E-2,2.761363983E-3
4.336950177E2,2.281856537E-2,5.852007866E-2,3.707647324E-3
4.341950177E2,5.756473541E-2,5.951404572E-2,2.642583847E-2
4.346950177E2,1.471519470E-3,-4.088687897E-2,5.292892456E-5
4.351950177E2,-1.101493835E-3,2.685856819E-2,4.197263718E-2
4.356950177E2,6.337165833E-3,-1.240122318E-1,1.921660900E-1
4.361950177E2,-1.647472382E-2,7.598924637E-2,1.264843941E-1
4.366950177E2,-1.680374146E-3,-7.762908936E-2,9.201288223E-3
4.371950177E2,1.533603668E-2,3.541469574E-3,8.957624435E-3
4.376950177E2,-4.902839661E-3,9.276866913E-4,1.089334488E-3
4.381950177E2,1.712799072E-3,4.744315147E-2,5.216121674E-3
4.386950177E2,1.497650146E-2,-2.434015274E-3,9.339809418E-3
4.391950177E2,-1.465129852E-2,5.566358566E-3,-2.534389496E-4
4.396950177E2,-2.153778076E-2,-1.192688942E-2,-6.401300430E-3
4.401950177E2,4.097557068E-2,-1.569819450E-2,2.240085602E-2
4.406950177E2,2.031612396E-2,-1.222681999E-2,-3.055095673E-2
4.411950177E2,5.133628845E-3,-1.883029938E-3,-1.968407631E-2
4.416950177E2,1.411151886E-2,9.470701218E-3,-8.390188217E-3
4.421950177E2,3.060722351E-2,-1.398420334E-2,1.651048660E-3
4.426950177E2,-6.365776062E-3,3.088951111E-3,4.021644592E-3
4.431950177E2,-7.009506226E-4,1.723694801E-2,-3.270506859E-2
4.436950177E2,7.932281494E-2,1.439452171E-2,-1.895520687E-1
4.441950177E2,1.965141296E-2,-1.676654816E-2,-8.959770203E-2
4.446950177E2,1.359844208E-2,2.289080620E-2,-2.195858955E-2
4.451950177E2,3.151130676E-2,1.127696037E-2,-1.481604576E-2
4.456950177E2,-2.127265930E-2,-2.537441254E-2,5.494832993E-3
4.461950177E2,-1.802349091E-2,3.013634682E-2,6.294965744E-3
4.466950177E2,-3.737449646E-3,-2.946686745E-2,-1.454830170E-3
4.471950177E2,4.414558411E-3,2.047681808E-2,-8.570432663E-3
4.476950177E2,-4.594802856E-3,-1.333332062E-2,-7.618665695E-3
4.481950177E2,-2.449989319E-3,8.161783218E-3,-9.706258774E-3
4.486950177E2,1.598453522E-2,-5.446672440E-3,-5.778312683E-3
4.491950177E2,2.341651917E-2,1.638054848E-2,-1.425743103E-4
4.496950177E2,3.560352325E-2,2.406978607E-2,2.845525742E-3
4.501950177E2,2.732753754E-2,-1.914572716E-2,-1.052212715E-2
4.506950177E2,-5.457878113E-3,1.584267616E-2,-1.293659210E-3
4.511950177E2,7.472991943E-3,5.780291557E-2,-3.957271576E-3
4.516950177E2,2.303123474E-3,-3.430199623E-2,-2.265238762E-2
4.521950177E2,2.346897125E-2,1.754522324E-3,-1.598405838E-2
4.526950177E2,-1.610755920E-3,-4.032731056E-2,-2.063488960E-2
4.531950177E2,-2.798366547E-2,2.943301201E-2,-1.713395119E-2
4.536950177E2,-8.395195007E-3,-1.320743561E-2,-1.511001587E-2
4.541950177E2,2.540588379E-3,3.214097023E-2,-7.494211197E-3
4.546950177E2,1.070785522E-2,7.644152641E-2,-2.082085609E-2
4.551950177E2,-3.811454773E-2,7.204747200E-2,-2.697062492E-2
4.556950177E2,-8.420944214E-4,-4.278898239E-3,-1.786088943E-2
4.561950177E2,-7.672309875E-3,2.427268028E-2,-1.401352882E-2
4.566950177E2,-3.183841705E-2,-2.632617950E-3,-2.086377144E-2
4.571950177E2,-7.495594025E-2,-7.898998260E-2,2.551786900E-1
4.576950177E2,2.290058136E-2,4.857110977E-2,-5.673217773E-2
4.581950177E2,8.214950562E-3,-9.560608864E-2,-1.835319996E-1
4.586950177E2,8.721351624E-3,-5.151557922E-2,-6.942784786E-2
4.591950177E2,1.697540283E-2,-2.715516090E-2,-2.376556396E-2
4.596950177E2,1.023292542E-3,3.654885292E-2,-1.527905464E-3
4.601950177E2,6.752014160E-3,-2.403664589E-2,-2.084279060E-2
4.606950177E2,7.441234589E-2,1.980185509E-2,-9.649538994E-2
4.611950177E2,8.594894409E-2,-1.421284676E-2,4.693007469E-2
4.616950177E2,-6.503105164E-3,-6.132125854E-2,2.620458603E-2
4.621950177E2,-4.601287842E-2,3.522300720E-2,1.324796677E-2
4.626950177E2,8.781433105E-3,1.047661304E-1,1.019883156E-2
4.631950177E2,-2.880096436E-3,-7.073473930E-2,-1.980146170E-1
4.636950177E2,5.407810211E-2,3.386998177E-2,-1.262391806E-1
4.641950177E2,4.539775848E-2,-6.378436089E-2,-3.729116917E-2
4.646950177E2,1.751041412E-2,-9.024143219E-3,-1.291835308E-2
4.651950177E2,7.483959198E-2,4.424929619E-2,-1.439069510E-1
4.656950177E2,2.764701843E-2,-2.155256271E-2,-1.365959644E-2
4.661950177E2,3.901386261E-2,5.383896828E-2,1.234281063E-2
4.666950177E2,1.529121399E-2,-5.611157417E-2,4.388785362E-2
4.671950177E2,2.765941620E-2,-6.461620331E-3,4.556012154E-2
4.676950177E2,2.230644226E-3,1.111960411E-2,-2.133846283E-3
4.681950177E2,1.553916931E-2,-6.862998009E-2,5.386233330E-3
4.686950177E2,5.340576172E-5,2.057361603E-2,9.838366508E-2
4.691950177E2,1.020431519E-3,-1.955604553E-2,4.419088364E-2
4.696950177E2,5.154609680E-3,2.039551735E-2,2.206277847E-2
4.701950177E2,-6.912231445E-3,-1.284193993E-2,1.162934303E-2
4.706950177E2,-1.868534088E-2,3.164172173E-2,6.134986877E-3
4.711950177E2,3.185272217E-3,-1.991248131E-2,-3.757476807E-4
4.716950177E2,-1.096916199E-2,4.568576813E-2,-6.287217140E-3
4.721950177E2,-2.168369293E-2,1.602077484E-2,4.792463779E-2
4.726950177E2,9.093284607E-3,-3.747272491E-2,1.361310482E-2
4.731950177E2,-1.320266724E-2,2.425026894E-2,2.299308777E-2
4.736950177E2,4.841327667E-2,-1.980137825E-2,-1.901379824E-1
4.741950177E2,3.347396851E-4,1.715445518E-2,-4.729950428E-2
4.746950177E2,-2.712154388E-2,4.589819908E-2,8.485436440E-3
4.751950177E2,4.909515381E-3,3.066301346E-3,-3.274786472E-2
4.756950177E2,5.684852600E-3,-1.473450661E-2,-2.146208286E-2
4.761950177E2,-1.688957214E-3,2.322006226E-2,9.108304977E-3
4.766950177E2,4.444122314E-4,4.108858109E-2,-6.282496452E-2
4.771950177E2,2.956390381E-3,-4.177713394E-2,7.131755352E-2
4.776950177E2,8.820533752E-3,-3.773593903E-2,-6.501674652E-4
4.781950177E2,9.127616882E-3,5.608773232E-2,-1.778296828E-1
4.786950177E2,2.662849426E-2,-2.429318428E-2,-1.200400591E-1
4.791950177E2,-1.070022583E-3,6.924867630E-3,-2.872484922E-2
4.796950177E2,-1.856803894E-2,3.096389771E-2,-1.146262884E-2
4.801950177E2,3.381538391E-2,-1.598761082E-1,7.589519024E-2
4.806950177E2,-1.430797577E-2,-3.143191338E-2,1.461759806E-1
4.811950177E2,-5.034446716E-3,1.246190071E-2,1.378452778E-2
4.816950177E2,-9.107589722E-4,7.985591888E-3,3.990638256E-2
4.821950177E2,-1.928997040E-2,3.468036652E-3,9.217691422E-2
4.826950177E2,-4.011535645E-2,-4.033684731E-2,2.774686813E-1
4.831950177E2,-4.551601410E-2,1.840353012E-3,2.522335052E-1
4.836950177E2,-1.353168488E-2,-5.235671997E-4,5.684018135E-2
4.841950177E2,-6.548881531E-3,-1.032829285E-3,2.900624275E-2
4.846950177E2,-6.163597107E-3,5.768060684E-3,7.680654526E-3
4.851950177E2,5.229949951E-3,-5.563020706E-3,-1.035451889E-3
4.856950177E2,-3.158569336E-3,-8.885860443E-4,1.314687729E-2
4.861950177E2,7.609367371E-3,-9.059906006E-5,-3.061294556E-4
4.866950177E2,6.389617920E-4,-5.073785782E-3,-2.111673355E-3
4.871950177E2,6.402969360E-3,1.013255119E-2,3.139495850E-3
4.876950177E2,-1.543521881E-2,-4.228830338E-3,2.522706985E-3
4.881950177E2,-4.124546051E-2,6.575226784E-2,8.085083961E-2
4.886950177E2,1.642704010E-2,-1.639342308E-2,-8.165740967E-2
4.891950177E2,-7.556915283E-3,-9.652137756E-3,-1.980328560E-2
4.896950177E2,-5.266189575E-3,2.699851990E-3,-3.485918045E-3
4.901950177E2,-3.296852112E-3,-8.107900620E-3,6.566047668E-4
4.906950177E2,-2.103519440E-2,2.434968948E-3,6.110501289E-2
4.911950177E2,1.065254211E-3,-6.626605988E-3,1.017475128E-2
4.916950177E2,3.852462769E-2,4.404950142E-2,-1.060781479E-1
4.921950177E2,6.453514099E-3,-4.058432579E-2,-3.846168518E-3
4.926950177E2,1.681327820E-3,-7.249832153E-3,5.453824997E-3
4.931950177E2,-4.682540894E-4,-3.306865692E-3,2.512693405E-3
4.936950177E2,-2.364158630E-3,2.817869186E-3,1.484560966E-2
4.941950177E2,3.962516785E-3,-1.563596725E-2,-5.972146988E-3
4.946950177E2,-3.926277161E-3,1.206398010E-4,9.901404381E-3
4.951950177E2,-2.916336060E-3,-1.496148109E-2,9.107708931E-3
4.956950177E2,-2.508831024E-2,2.690958977E-2,-4.332900047E-2
4.961950177E2,-5.996704102E-3,-1.082301140E-2,5.320096016E-2
4.966950177E2,1.218748093E-1,1.430392265E-2,4.172194004E-2
4.971950177E2,8.842945099E-2,-1.340445280E-1,-7.548689842E-2
4.976950177E2,1.267719269E-2,-5.444145203E-2,4.592406750E-2
4.981950177E2,-1.151809692E-1,1.896238327E-2,3.052723408E-2
4.986950177E2,-2.128791809E-2,-8.135724068E-2,2.736616135E-2
4.991950177E2,5.656375885E-1,-2.249937057E-1,-5.723505020E-1
4.996950177E2,2.201738358E-1,-3.413450718E-1,-6.795180440E-1
5.001950177E2,-1.780319214E-2,1.016038656E-1,9.112993479E-1
5.006950177E2,3.426551819E-2,3.757154942E-2,-1.679329276E-1
5.011950177E2,1.179695129E-3,1.869666576E-2,6.779968739E-2
5.016950177E2,3.079414368E-3,7.120966911E-3,1.300215721E-2
5.021950177E2,2.558708191E-3,-2.000355721E-2,2.159625292E-2
5.026950177E2,-4.329299927E-2,1.025974751E-1,3.860492706E-1
5.031950177E2,6.806468964E-2,5.212804675E-1,1.260199070E0
5.036950177E2,2.694110870E-1,-4.260314107E-1,-3.025357246E0
5.041950177E2,2.526578903E-1,-6.274371147E-1,-7.093782425E-1
5.046950177E2,-8.306312561E-2,-5.915483236E-1,-1.478795767E0
5.051950177E2,2.103061676E-1,-3.974130750E-1,-5.457521677E-1
5.056950177E2,9.708881378E-2,-2.347618043E-1,-1.462981701E-1
5.061950177E2,3.322696686E-2,-3.620963395E-1,1.740989685E-1
5.066950177E2,-8.084297180E-2,-1.837664843E-1,5.389150977E-1
5.071950177E2,7.850933075E-2,2.342087030E-1,-6.325213313E-1
5.076950177E2,-9.991168976E-2,1.639885902E-1,-3.349900842E-1
5.081950177E2,-8.192062378E-3,2.023236752E-1,-2.984315753E-1
5.086950177E2,1.516342163E-2,2.272558212E-2,-2.401506901E-2
5.091950177E2,-2.248954773E-2,2.985870838E-2,1.046084166E-1
5.096950177E2,6.689071655E-3,-2.849411964E-2,3.333342075E-2
5.101950177E2,2.206230164E-2,-6.576311588E-2,1.246690750E-3
5.106950177E2,-8.103370667E-3,-9.948849678E-3,3.832626343E-2
5.111950177E2,4.466056824E-3,-2.270638943E-2,1.587116718E-2
5.116950177E2,-3.524875641E-2,-2.845883369E-3,2.337784767E-1
5.121950177E2,3.929615021E-2,-5.856156349E-3,-2.564401627E-1
5.126950177E2,-2.668762207E-2,2.388358116E-3,2.637189627E-1
5.131950177E2,1.838493347E-2,-9.034037590E-3,-2.222654223E-1
5.136950177E2,1.628875732E-3,-6.616115570E-5,-3.985762596E-3
5.141950177E2,5.314826965E-3,-1.566052437E-3,-3.389626741E-2
5.146950177E2,-6.798744202E-3,-5.305409431E-3,1.002234221E-2
5.151950177E2,-4.067420959E-3,8.274793625E-3,1.056288481E-1
5.156950177E2,1.080513000E-3,2.633810043E-3,2.015888691E-2
5.161950177E2,-5.080032349E-2,8.574962616E-3,3.488329649E-1
5.166950177E2,-1.074886322E-2,-6.065368652E-4,8.389878273E-2
5.171950177E2,-5.424499512E-3,3.387689590E-3,4.855012894E-2
5.176950177E2,-2.663612366E-3,-3.828048706E-3,2.828621864E-2
5.181950177E2,-5.457878113E-3,4.897236824E-3,5.642867088E-2
5.186950177E2,-4.356384277E-3,-2.016663551E-3,2.248740196E-2
5.191950177E2,1.527786255E-3,-4.925727844E-4,5.598068237E-3
5.196950177E2,-5.283355713E-4,-2.328515053E-3,-3.469705582E-3
5.201950177E2,2.349853516E-3,-6.215572357E-4,-5.721807480E-3
5.206950177E2,6.020545959E-3,-1.747488976E-3,-1.023793221E-2
5.211950177E2,-2.028465271E-3,-4.123449326E-3,3.120899200E-4
5.216950177E2,-1.016616821E-3,5.723714828E-3,-1.334667206E-3
5.221950177E2,-2.849578857E-3,-2.884030342E-3,-3.369331360E-3
5.226950177E2,9.183883667E-4,5.515336990E-3,6.845951080E-3
5.231950177E2,-3.540039062E-3,-5.886554718E-4,4.881858826E-3
5.236950177E2,1.236724854E-2,-4.106760025E-3,2.211093903E-3
5.241950177E2,-1.173782349E-2,1.041173935E-3,-3.055810928E-3
5.246950177E2,-8.077621460E-3,2.148628235E-3,1.369690895E-2
5.251950177E2,-1.414394379E-2,-1.715075970E-2,5.211114883E-3
5.256950177E2,-1.679897308E-2,-4.040360451E-3,4.779338837E-3
5.261950177E2,-2.038478851E-2,-1.338040829E-2,-2.953052521E-3
5.266950177E2,3.975868225E-3,7.247567177E-3,-1.426553726E-2
5.271950177E2,2.772808075E-2,-2.080357075E-2,-1.319503784E-2
5.276950177E2,1.001358032E-3,1.044869423E-3,-1.919674873E-2
5.281950177E2,4.815101624E-3,8.068084717E-3,-1.074051857E-2
5.286950177E2,7.447242737E-3,-2.342462540E-4,-1.668953896E-2
5.291950177E2,-2.268886566E-2,1.162517071E-2,-1.199483871E-3
5.296950177E2,1.222610474E-3,4.877448082E-3,-1.876592636E-3
5.301950177E2,3.944110870E-2,-8.836627007E-3,-1.106071472E-2
5.306950177E2,1.938915253E-2,1.751720905E-2,-1.631045341E-2
5.311950177E2,2.620792389E-2,-5.051028728E-2,-4.447937012E-3
5.316950177E2,2.315902710E-2,1.246082783E-2,2.894639969E-3
5.321950177E2,1.683139801E-2,-5.346155167E-2,-5.219221115E-3
5.326950177E2,-4.682540894E-4,2.060234547E-2,-7.857537270E-2
5.331950177E2,7.908535004E-2,-1.156474352E-1,-3.528137207E-1
5.336950177E2,5.062294006E-2,-4.912137985E-3,-1.032410860E-1
5.341950177E2,-1.527976990E-2,-3.884768486E-2,-2.415716648E-2
5.346950177E2,1.768112183E-2,-1.102793217E-2,-3.002762794E-3
5.351950177E2,1.566028595E-2,9.891510010E-3,5.930149555E-2
5.356950177E2,6.414413452E-3,1.809239388E-2,-9.887331724E-2
5.361950177E2,1.033496857E-2,-2.490580082E-2,1.115376949E-1
5.366950177E2,6.421089172E-3,1.736245155E-1,3.088915348E-2
5.371950177E2,5.333709717E-2,-2.419523597E-1,-9.454518557E-2
5.376950177E2,-2.326679230E-2,3.564155102E-2,4.975736141E-2
5.381950177E2,5.782413483E-2,2.841627598E-2,-1.405302286E-1
5.386950177E2,5.292892456E-4,9.922385216E-2,1.408680081E-1
5.391950177E2,-2.316856384E-2,6.078255177E-2,-3.394565880E-1
5.396950177E2,1.149559021E-2,-3.996622562E-2,8.312630653E-2
5.401950177E2,1.885318756E-2,4.456818104E-2,5.858445168E-2
5.406950177E2,-1.058292389E-2,9.291172028E-4,-4.090094566E-2
5.411950177E2,-2.492809296E-2,-1.337015629E-2,-1.332044601E-3
5.416950177E2,-3.470516205E-2,-2.730202675E-2,-1.330256462E-2
5.421950177E2,-8.072853088E-3,1.291835308E-2,-1.605701447E-2
5.426950177E2,3.875541687E-2,1.103842258E-2,-1.281309128E-2
5.431950177E2,2.833747864E-2,-2.829015255E-2,5.548834801E-3
5.436950177E2,-1.633167267E-2,5.227243900E-2,-2.895104885E-2
5.441950177E2,1.736164093E-2,1.412618160E-2,-1.841533184E-2
5.446950177E2,1.882743835E-2,4.790425301E-3,3.732085228E-3
5.451950177E2,-3.152179718E-2,7.636308670E-3,-5.931019783E-3
5.456950177E2,8.067131042E-3,-3.635287285E-3,-6.620883942E-4
5.461950177E2,3.229141235E-3,9.682178497E-4,-1.083242893E-2
5.466950177E2,-5.731582642E-4,-2.109348774E-2,-1.525783539E-2
5.471950177E2,1.560211182E-3,-8.891701698E-3,-6.381154060E-3
5.476950177E2,3.160953522E-2,-4.498124123E-3,1.160919666E-2
5.481950177E2,1.653194427E-2,-4.604864120E-2,-1.831305027E-2
5.486950177E2,2.337741852E-2,-4.255723953E-2,8.362174034E-3
5.491950177E2,6.333351135E-2,-2.237957716E-1,-3.099548817E-2
5.496950177E2,-1.420974731E-4,-6.825757027E-2,1.735138893E-2
5.501950177E2,5.381584167E-3,-7.690286636E-2,1.011967659E-2
5.506950177E2,1.848602295E-2,-9.044182301E-2,5.120277405E-3
5.511950177E2,2.052974701E-2,-1.073783040E-1,-1.180875301E-2
5.516950177E2,2.507209778E-2,-3.109395504E-2,-2.653694153E-2
5.521950177E2,-1.359558105E-2,-8.870935440E-2,-2.094006538E-2
5.526950177E2,2.262115479E-3,1.408588886E-2,-1.889014244E-2
5.531950177E2,4.345893860E-2,4.023396969E-2,-2.692916989E-1
5.536950177E2,4.034137726E-2,-4.533302784E-2,-6.725180149E-2
5.541950177E2,-2.195358276E-2,1.754474640E-2,-2.031981945E-2
5.546950177E2,-4.235172272E-2,-1.462972164E-2,-1.803505421E-2
5.551950177E2,-1.709461212E-2,-1.526117325E-3,-5.119347572E-2
5.556950177E2,1.605033875E-3,-3.691780567E-2,-1.063072681E-2
5.561950177E2,2.283096313E-3,1.162244081E-1,-4.113674164E-2
5.566950177E2,-4.182720184E-2,1.097790003E-1,-3.927969933E-2
5.571950177E2,-4.836940765E-2,1.992241144E-1,-7.241940498E-2
5.576950177E2,-3.886222839E-3,1.134022474E-1,4.646182060E-4
5.581950177E2,3.309059143E-2,5.332601070E-2,-1.048009396E-1
5.586950177E2,-3.956699371E-2,4.509270191E-2,-4.005438089E-2
5.591950177E2,-3.012371063E-2,6.569540501E-2,-2.685135603E-2
5.596950177E2,-9.873390198E-3,-1.979398727E-2,3.755813837E-2
5.601950177E2,-3.047275543E-2,1.517844200E-2,8.648496866E-2
5.606950177E2,-8.364677429E-3,2.679836750E-2,3.544896841E-2
5.611950177E2,6.382942200E-3,-1.228272915E-2,7.535451651E-2
5.616950177E2,1.897430420E-2,-5.579113960E-3,6.582844257E-2
5.621950177E2,-1.473426819E-3,-1.388919353E-2,7.376730442E-2
5.626950177E2,5.934715271E-3,2.639174461E-3,-5.392909050E-3
5.631950177E2,2.360343933E-3,-5.457758904E-3,-1.102209091E-2
5.636950177E2,-6.188392639E-3,-3.069674969E-2,1.408624649E-2
5.641950177E2,1.510524750E-2,-8.009552956E-3,1.361340284E-2
5.646950177E2,4.903793335E-2,2.292215824E-2,1.014369726E-2
5.651950177E2,5.188941956E-3,-3.360986710E-3,1.413387060E-2
5.656950177E2,3.600120544E-3,2.047264576E-2,8.933007717E-3
5.661950177E2,-7.952690125E-3,5.830407143E-3,1.044565439E-2
5.666950177E2,1.303768158E-2,-9.337782860E-3,7.858335972E-3
5.671950177E2,1.489543915E-2,-7.080554962E-3,-7.925504446E-2
5.676950177E2,8.484840393E-3,1.827597618E-3,-8.476763964E-2
5.681950177E2,1.315784454E-2,-2.010715008E-2,-2.416253090E-2
5.686950177E2,-1.001644135E-2,2.468347549E-2,-2.241551876E-3
5.691950177E2,4.570960999E-3,-1.053488255E-2,-4.827439785E-3
5.696950177E2,-2.219200134E-3,-6.112933159E-3,-1.294189692E-2
5.701950177E2,2.050399780E-4,-7.496118546E-3,-5.201786757E-2
5.706950177E2,3.256797791E-3,2.730488777E-3,-3.350102901E-2
5.711950177E2,1.838684082E-3,-3.801465034E-3,-1.937341690E-2
5.716950177E2,7.123947144E-3,6.536245346E-4,2.763211727E-3
5.721950177E2,3.638267517E-3,8.336305618E-4,1.987811923E-2
5.726950177E2,7.893562317E-3,-1.210296154E-2,-1.335141510E-1
5.731950177E2,6.663322449E-3,-3.623604774E-3,-6.559835374E-2
5.736950177E2,4.828453064E-3,1.004815102E-3,-5.094607174E-2
5.741950177E2,-5.318641663E-3,1.920580864E-3,5.333727598E-2
5.746950177E2,4.113197327E-3,2.265930176E-3,7.697421312E-2
5.751950177E2,7.366180420E-3,-1.150166988E-2,-1.453302056E-1
5.756950177E2,-1.024246216E-3,9.728312492E-3,2.567099035E-2
5.761950177E2,-1.063346863E-3,-4.957795143E-3,2.910584211E-3
5.766950177E2,1.050949097E-3,-3.587961197E-3,-9.170770645E-4
5.771950177E2,-3.048896790E-3,-4.013299942E-3,-9.268596768E-4
5.776950177E2,1.498222351E-3,-4.655361176E-3,-9.751842171E-2
5.781950177E2,-1.092147827E-2,7.026314735E-3,7.746335864E-2
5.786950177E2,-7.046699524E-3,-2.392292023E-3,5.531114340E-2
5.791950177E2,-8.274078369E-3,3.316998482E-3,9.117591381E-2
5.796950177E2,-2.558898926E-2,3.603100777E-3,1.573735476E-1
5.801950177E2,-4.676055908E-2,5.068659782E-3,2.650750875E-1
5.806950177E2,-3.521251678E-2,2.927422523E-3,1.867450476E-1
5.811950177E2,-3.138542175E-3,2.041220665E-3,3.426587582E-2
5.816950177E2,-1.742649078E-2,-5.102157593E-5,9.355115891E-2
5.821950177E2,-5.027770996E-3,-1.606941223E-3,2.274715900E-2
5.826950177E2,2.224636078E-2,-1.287138462E-2,-1.073218584E-1
5.831950177E2,-7.472038269E-3,-4.619836807E-3,4.015147686E-2
5.836950177E2,-1.292228699E-3,4.614591599E-4,5.249738693E-3
5.841950177E2,-5.251884460E-3,-1.225352287E-3,8.453369141E-3
5.846950177E2,-2.838134766E-3,2.134323120E-3,1.419544220E-3
5.851950177E2,-1.354408264E-2,5.006194115E-3,9.339094162E-3
5.856950177E2,-1.425647736E-2,5.973577499E-4,1.845479012E-3
5.861950177E2,3.336906433E-3,-4.035830498E-3,7.532835007E-4
5.866950177E2,1.030826569E-2,-1.074433327E-3,-9.872913361E-4
5.871950177E2,5.178451538E-4,-6.709456444E-3,1.367926598E-3
5.876950177E2,4.900932312E-3,3.134608269E-3,-8.008480072E-4
5.881950177E2,-2.061843872E-3,-1.024365425E-3,-1.528859138E-3
5.886950177E2,-9.970664978E-3,1.827836037E-3,-2.645134926E-3
5.891950177E2,-3.080368042E-4,-8.141636848E-3,1.793742180E-3
5.896950177E2,1.043319702E-3,-1.357197762E-3,-9.044408798E-4
5.901950177E2,-4.506111145E-3,-3.673672676E-3,-7.217884064E-3
5.906950177E2,3.339767456E-3,-5.740046501E-3,-6.374835968E-3
5.911950177E2,1.679325104E-2,5.720853806E-4,-1.673460007E-3
5.916950177E2,-6.083488464E-3,-3.786444664E-3,1.546740532E-3
5.921950177E2,3.087043762E-3,5.143046379E-3,5.273818970E-4
5.926950177E2,6.357192993E-3,-3.574728966E-3,6.578087807E-3
5.931950177E2,-4.982948303E-3,-1.781702042E-3,3.999114037E-3
5.936950177E2,-2.937316895E-3,-4.082083702E-3,-5.853414536E-3
5.941950177E2,-2.243041992E-3,-1.692891121E-3,-1.282811165E-3
5.946950177E2,-1.673603058E-2,-7.808089256E-3,1.329898834E-3
5.951950177E2,-1.022338867E-2,-1.359939575E-3,8.223056793E-4
5.956950177E2,4.208564758E-3,-6.172180176E-3,2.168059349E-3
5.961950177E2,-2.469062805E-3,-3.870368004E-3,2.467632294E-5
5.966950177E2,7.915496826E-4,-6.614923477E-4,-6.101131439E-4
5.971950177E2,-5.245208740E-5,-3.008604050E-3,2.180337906E-4
5.976950177E2,1.013755798E-3,-9.495019913E-4,2.392888069E-3
5.981950177E2,1.492500305E-3,-4.107952118E-4,-2.066969872E-3
5.986950177E2,1.677513123E-3,-2.239704132E-3,-6.508827209E-5
5.991950177E2,3.600120544E-3,9.688138962E-4,-8.865594864E-4
5.996950177E2,-1.770973206E-3,-6.811141968E-3,1.128196716E-3
6.001950177E2,-5.312919617E-3,-4.903078079E-3,1.320481300E-3
6.006950177E2,-2.703666687E-3,4.289507866E-3,-2.263426781E-3
6.011950177E2,-8.611679077E-4,-1.242280006E-3,-1.405358315E-3
6.016950177E2,7.963180542E-4,-1.301169395E-3,1.180529594E-3
6.021950177E2,-1.899719238E-3,1.338481903E-3,8.118152618E-5
6.026950177E2,2.770423889E-3,-4.478693008E-4,6.437301636E-5
6.031950177E2,4.773139954E-3,5.718469620E-4,-4.770755768E-4
6.036950177E2,-1.878738403E-4,-2.916932106E-3,2.856254578E-4
6.041950177E2,-8.764266968E-4,-6.760716438E-3,3.491640091E-4
6.046950177E2,-2.093315125E-3,-4.126548767E-3,-1.828670502E-4
6.051950177E2,-3.979682922E-3,-3.549695015E-3,2.427339554E-3
6.056950177E2,-4.448890686E-3,-1.527190208E-3,-1.295328140E-3
6.061950177E2,2.800941467E-3,6.953477859E-4,1.492738724E-3
6.066950177E2,-5.769729614E-4,2.003908157E-4,6.573200226E-4
6.071950177E2,-1.343727112E-3,-1.835227013E-3,-3.518342972E-3
6.076950177E2,1.207351685E-3,7.121562958E-4,8.726119995E-4
6.081950177E2,1.984596252E-3,1.295566559E-3,1.407623291E-3
6.086950177E2,-7.562637329E-4,-8.934736252E-4,-2.997398376E-3
6.091950177E2,-1.089096069E-3,-1.374483109E-4,2.979993820E-3
6.096950177E2,-5.635261536E-3,7.846355438E-4,4.048347473E-3
6.101950177E2,6.675720215E-5,-2.192616463E-3,3.451347351E-3
6.106950177E2,5.044937134E-4,-1.824259758E-3,-3.541707993E-3
6.111950177E2,2.409934998E-3,1.215457916E-3,-4.007816315E-4
6.116950177E2,-8.153915405E-4,-2.616763115E-3,2.366065979E-3
6.121950177E2,-1.804351807E-3,1.035571098E-3,4.463434219E-3
6.126950177E2,-6.378173828E-3,-1.170039177E-3,2.418279648E-3
6.131950177E2,-1.234054565E-3,-7.867813110E-4,-1.971960068E-3
6.136950177E2,5.922317505E-4,2.075076103E-3,-2.201080322E-3
6.141950177E2,-2.269744873E-4,-3.068327904E-3,-3.697156906E-3
6.146950177E2,-2.994537354E-4,-6.783008575E-5,-1.264333725E-3
6.151950177E2,-9.574890137E-4,4.750490189E-4,3.576517105E-3
6.156950177E2,-1.463890076E-3,-2.654194832E-3,9.186267853E-4
6.161950177E2,-3.889083862E-3,-9.843111038E-4,-5.851507187E-3
6.166950177E2,-2.851486206E-3,1.413226128E-3,2.264189720E-2
6.171950177E2,8.780479431E-3,-1.083493233E-3,-1.748728752E-2
6.176950177E2,-2.193450928E-3,7.222890854E-4,-2.022504807E-3
6.181950177E2,-1.983642578E-4,-3.024339676E-4,-4.619359970E-3
6.186950177E2,9.104728699E-3,-1.233220100E-3,-1.020455360E-2
6.191950177E2,-2.133369446E-3,1.920461655E-4,7.004261017E-3
6.196950177E2,-3.663063049E-3,-1.760363579E-3,9.830236435E-3
6.201950177E2,-1.235008240E-3,-1.053690910E-3,6.432771683E-3
6.206950177E2,-1.576423645E-3,-6.759166718E-5,2.244472504E-3
6.211950177E2,9.164810181E-4,-8.162260056E-4,-2.647876740E-3
6.216950177E2,1.296043396E-3,-1.391649246E-3,-4.293203354E-3
6.221950177E2,-1.755714417E-3,-9.099245071E-4,1.008510590E-3
6.226950177E2,1.236915588E-3,1.437067986E-3,4.192352295E-3
6.231950177E2,-1.974105835E-4,1.465797424E-3,1.306772232E-3
6.236950177E2,-3.900527954E-4,-1.351714134E-3,1.585483551E-3
6.241950177E2,6.866455078E-4,-2.690553665E-4,4.994869232E-4
6.246950177E2,-9.059906006E-5,-2.678632736E-4,-5.771875381E-3
6.251950177E2,1.987457275E-3,-1.502871513E-3,-3.247261047E-3
6.256950177E2,-1.985549927E-3,-1.379966736E-3,1.589632034E-2
6.261950177E2,-4.835128784E-4,-7.295608521E-5,-4.373788834E-3
6.266950177E2,7.219314575E-4,-1.122951508E-4,-4.707336426E-3
6.271950177E2,1.317977905E-3,9.119510651E-4,-1.928806305E-4
6.276950177E2,1.678466797E-3,1.289486885E-3,-1.456737518E-4
6.281950177E2,7.371902466E-4,-1.451969147E-4,-2.057552338E-3
6.286950177E2,2.908706665E-4,-2.240300179E-3,-5.649089813E-3
6.291950177E2,5.617141724E-4,-9.559392929E-4,4.677772522E-4
6.296950177E2,-1.784324646E-3,2.366304398E-4,1.742601395E-3
6.301950177E2,5.664825439E-4,9.196996689E-4,2.430677414E-3
6.306950177E2,-4.224777222E-4,-2.213716507E-4,1.697301865E-3
6.311950177E2,7.162094116E-4,3.792047501E-4,1.407384872E-3
6.316950177E2,-8.392333984E-5,-2.213239670E-3,-1.125335693E-4
6.321950177E2,1.830101013E-3,6.881952286E-4,-1.955032349E-3
6.326950177E2,1.755714417E-3,-4.881620407E-4,-1.559019089E-3
6.331950177E2,-7.972717285E-4,-6.604194641E-5,9.634494781E-4
6.336950177E2,-4.291534424E-4,-3.172397614E-3,1.514434814E-3
6.341950177E2,3.862380981E-4,-1.965761185E-4,1.202583313E-3
6.346950177E2,-1.986503601E-3,4.917383194E-4,3.518342972E-3
6.351950177E2,-1.735687256E-4,-1.743078232E-3,1.738786697E-3
6.356950177E2,4.572868347E-3,-1.937150955E-3,-9.885549545E-3
6.361950177E2,-2.856254578E-3,-3.408193588E-4,1.008272171E-3
6.366950177E2,-5.216598511E-4,-2.024292946E-3,-1.144170761E-3
6.371950177E2,-1.043319702E-3,-3.950595856E-4,-1.988649368E-3
6.376950177E2,-2.388954163E-3,-3.163576126E-3,8.993148804E-4
6.381950177E2,3.728866577E-4,3.386735916E-4,2.289533615E-3
6.386950177E2,5.369186401E-4,-5.370378494E-4,-3.445148468E-4
6.391950177E2,-3.967285156E-4,1.680850983E-5,-5.714893341E-4
6.396950177E2,5.064010620E-4,5.451440811E-4,4.894733429E-4
6.401950177E2,2.404212952E-3,-1.029372215E-3,-4.498958588E-4
6.406950177E2,-9.317398071E-4,-1.391172409E-4,-2.624750137E-3
6.411950177E2,3.198623657E-3,6.285905838E-4,-6.887912750E-4
6.416950177E2,-3.490447998E-4,-1.298308372E-3,1.651287079E-3
6.421950177E2,-2.640724182E-3,-2.274990082E-3,-1.059293747E-3
6.426950177E2,2.194404602E-3,4.843473434E-4,2.462863922E-4
6.431950177E2,8.802413940E-4,-3.427743912E-3,-1.320123672E-3
6.436950177E2,-2.163887024E-3,-1.819133759E-4,5.087852478E-4
6.441950177E2,-1.778602600E-3,-1.130104065E-3,-2.810955048E-4
6.446950177E2,-1.564979553E-3,-3.990411758E-3,3.406047821E-3
6.451950177E2,7.104873657E-4,-1.539707184E-3,2.380371094E-3
6.456950177E2,2.660751343E-4,-1.830220222E-3,1.649141312E-3
6.461950177E2,-1.646041870E-3,-2.530932426E-3,-3.473520279E-3
6.466950177E2,4.634857178E-4,-2.757310867E-4,-1.683950424E-3
6.471950177E2,7.429122925E-4,1.246094704E-3,-3.431558609E-3
6.476950177E2,-2.148628235E-3,-1.727223396E-3,1.473259926E-2
6.481950177E2,1.741981506E-2,-3.437876701E-3,-3.662991524E-2
6.486950177E2,-2.863883972E-3,1.488924026E-4,-2.148151398E-4
6.491950177E2,6.246566772E-4,-8.833408356E-5,5.499124527E-3
6.496950177E2,2.837181091E-3,-5.184412003E-4,-5.470514297E-3
6.501950177E2,-1.309394836E-3,-6.208419800E-4,1.537561417E-3
6.506950177E2,1.742362976E-3,-1.059532166E-3,7.612705231E-4
6.511950177E2,1.764297485E-4,2.487897873E-4,1.931190491E-3
6.516950177E2,-1.805305481E-3,1.015186310E-3,3.612041473E-4
6.521950177E2,3.499984741E-4,-2.120137215E-3,-1.366138458E-4
6.526950177E2,2.844810486E-3,-1.331448555E-3,-2.838134766E-3
6.531950177E2,2.107620239E-4,-1.605987549E-3,-1.317501068E-3
6.536950177E2,1.536369324E-3,2.834796906E-4,-5.645751953E-4
6.541950177E2,-9.021759033E-4,-7.227659225E-4,-7.300376892E-4
6.546950177E2,1.746177673E-3,2.363920212E-4,-2.339601517E-3
6.551950177E2,6.570816040E-4,-4.235506058E-4,-8.866786957E-4
6.556950177E2,-5.273818970E-4,8.201599121E-4,3.533363342E-4
6.561950177E2,1.241683960E-3,-1.215934753E-4,1.092433929E-3
6.566950177E2,-3.623962402E-5,-2.528548241E-3,1.004934311E-3
6.571950177E2,-5.437850952E-3,1.439690590E-3,8.951425552E-3
6.576950177E2,1.428590775E0,4.678244591E-1,-9.203426838E-1
6.581950177E2,9.683170319E-1,-2.838814259E-1,-8.841202259E-1
6.586950177E2,2.864389420E-1,1.180930138E-1,-4.672384262E-1
6.591950177E2,1.085643768E-1,6.840288639E-2,-4.334335327E-1
6.596950177E2,7.687950134E-2,2.270902395E-1,-3.424077034E-1
6.601950177E2,7.809352875E-2,-4.772186279E-3,-3.063917160E-2
6.606950177E2,5.318641663E-3,-6.763386726E-2,1.218934059E-1
6.611950177E2,-3.093719482E-2,-1.984024048E-2,5.086660385E-2
6.616950177E2,-8.204555511E-2,-6.073874235E-2,1.357026100E-1
6.621950177E2,1.287473679E0,-6.338036060E-1,1.909427643E-1
6.626950177E2,7.617163658E-1,4.949383736E-1,-9.620466232E-1
6.631950177E2,1.150064468E-1,5.458552837E-1,-4.227471352E-1
6.636950177E2,3.885650635E-2,2.357628345E-1,-1.247153282E-1
6.641950177E2,5.086898804E-2,1.027634144E-1,-7.365942001E-2
6.646950177E2,-1.927232742E-2,5.691170692E-2,-1.121330261E-2
6.651950177E2,-5.367126465E-1,1.262892604E0,2.845859528E0
6.656950177E2,1.345329285E-1,-3.539502621E-3,-8.832362890E-1
6.661950177E2,-4.025268555E-2,-7.865511179E-1,-1.930251479E0
6.666950177E2,1.875848770E-1,-8.342838287E-1,-4.594558775E-1
6.671950177E2,4.901685715E-1,-5.800380707E-1,-6.434344053E-1
6.676950177E2,2.017688751E-2,-1.681727767E-1,8.426839113E-2
6.681950177E2,-3.130817413E-2,4.501299858E-1,-4.534439743E-2
6.686950177E2,-1.949310303E-3,3.123378754E-2,-1.243174970E-1
6.691950177E2,-2.563476562E-2,2.664887905E-2,-1.610507965E-1
6.696950177E2,-5.124092102E-2,8.040177822E-2,-3.809974790E-1
6.701950177E2,6.497383118E-3,5.832433701E-3,8.280569315E-2
6.706950177E2,-9.535789490E-3,5.947351456E-4,-3.133624792E-2
6.711950177E2,3.135681152E-3,1.803517342E-3,1.333689690E-2
6.716950177E2,2.657890320E-3,1.690983772E-3,1.069068909E-2
6.721950177E2,-1.459121704E-3,-1.289486885E-3,-1.986819506E-2
6.726950177E2,-3.757476807E-4,-1.061439514E-3,-2.499222755E-4
6.731950177E2,1.177787781E-3,-1.639127731E-4,1.991808414E-3
6.736950177E2,-7.791519165E-4,4.458427429E-5,1.997768879E-3
6.741950177E2,9.126663208E-4,1.951456070E-4,5.783319473E-3
6.746950177E2,2.388000488E-3,1.308798790E-3,6.461441517E-3
6.751950177E2,1.306533813E-3,-1.014351845E-3,-1.190245152E-3
6.756950177E2,-1.532554626E-3,-2.284884453E-3,-8.165836334E-6
6.761950177E2,1.631736755E-3,-1.479983330E-3,-5.260109901E-4
6.766950177E2,2.422332764E-4,-1.439571381E-3,3.203332424E-3
6.771950177E2,-1.182556152E-3,-1.743912697E-3,7.546544075E-4
6.776950177E2,1.458168030E-3,-2.275705338E-4,3.669857979E-3
6.781950177E2,-6.008148193E-4,-3.746747971E-4,1.687228680E-3
6.786950177E2,1.420974731E-4,2.533078194E-3,4.144549370E-3
6.791950177E2,7.829666138E-4,2.514123917E-4,2.398908138E-3
6.796950177E2,7.934570312E-4,-2.569317818E-3,-3.357231617E-3
6.801950177E2,6.923675537E-4,2.226829529E-4,1.824080944E-3
6.806950177E2,-2.155303955E-4,-1.375317574E-3,1.186192036E-3
6.811950177E2,1.181602478E-3,1.077890396E-3,6.697773933E-4
6.816950177E2,-3.169059753E-3,4.041194916E-5,-9.620189667E-5
6.821950177E2,1.926422119E-4,-2.768158913E-3,-2.422153950E-3
6.826950177E2,2.320289612E-3,-1.301884651E-3,-5.628466606E-4
6.831950177E2,-3.900527954E-4,-4.510283470E-3,-2.370357513E-2
6.836950177E2,1.189517975E-2,8.820533752E-3,-2.052256465E-2
6.841950177E2,-7.364273071E-3,-7.897377014E-3,1.019890606E-1
6.846950177E2,1.650142670E-2,1.670324802E-2,2.312532663E-1
6.851950177E2,1.530647278E-2,2.011299133E-3,2.962017953E-1
6.856950177E2,5.124092102E-3,-1.529455185E-4,1.375724077E-1
6.861950177E2,-6.723403931E-4,1.606106758E-3,4.855871201E-2
6.866950177E2,7.848739624E-4,-4.615664482E-3,1.809114218E-2
6.871950177E2,4.895210266E-3,1.740336418E-3,-4.965484142E-3
6.876950177E2,6.986618042E-3,-7.811069489E-3,-3.110826015E-3
6.881950177E2,-8.640289307E-4,3.206610680E-3,-7.666349411E-3
6.886950177E2,-2.049446106E-3,-7.770419121E-3,-1.142990589E-2
6.891950177E2,1.070880890E-2,1.775979996E-3,4.923343658E-5
6.896950177E2,6.398200989E-3,4.146933556E-3,6.727635860E-3
6.901950177E2,-1.396846771E-2,8.317232132E-3,-6.245434284E-3
6.906950177E2,-5.511283875E-3,2.054929733E-3,-2.780908346E-2
6.911950177E2,7.052421570E-3,2.666401863E-2,-9.364491701E-2
6.916950177E2,1.357078552E-2,-1.390337944E-3,2.337372303E-2
6.921950177E2,-1.665782928E-2,9.739279747E-3,-1.389744282E-1
6.926950177E2,-1.893234253E-2,-4.323244095E-3,2.926433086E-2
6.931950177E2,-2.003002167E-2,4.458069801E-3,6.439685822E-4
6.936950177E2,8.557319641E-3,1.270890236E-3,-2.385163307E-2
6.941950177E2,-1.835918427E-2,-5.390048027E-3,-2.256488800E-2
6.946950177E2,-9.929656982E-3,1.785409451E-2,-3.193438053E-2
6.951950177E2,-3.009605408E-2,-2.094757557E-2,-3.219395876E-2
6.956950177E2,-1.089382172E-2,4.735362530E-2,-2.507901192E-2
6.961950177E2,-4.778766632E-2,-5.908048153E-2,3.686547279E-3
6.966950177E2,3.908348083E-2,3.145444393E-2,-2.163779736E-2
6.971950177E2,-6.044292450E-2,1.199591160E-2,-4.245221615E-3
6.976950177E2,1.181602478E-3,3.673171997E-2,-3.559589386E-4
6.981950177E2,5.496025085E-3,1.392412186E-2,-1.618337631E-2
6.986950177E2,2.660846710E-2,7.794201374E-2,-2.535206079E-2
6.991950177E2,2.805423737E-2,6.958127022E-2,-1.945489645E-2
6.996950177E2,-3.220558167E-3,9.592866898E-2,-1.070046425E-2
7.001950177E2,-8.496284485E-3,6.917834282E-3,-3.133416176E-4
7.006950177E2,9.221076965E-3,6.933236122E-2,-3.650248051E-3
7.011950177E2,-1.750087738E-2,6.495428085E-2,7.164597511E-2
7.016950177E2,-1.720142365E-2,2.386462688E-2,-3.607674837E-1
7.021950177E2,-1.709842682E-2,5.440962315E-2,-1.417650580E-1
7.026950177E2,1.352405548E-2,5.220043659E-2,-4.705788195E-2
7.031950177E2,2.394008636E-2,1.003766060E-2,-2.801026404E-2
7.036950177E2,2.993392944E-2,-1.204168797E-2,-1.352010667E-2
7.041950177E2,1.829814911E-2,-4.520463943E-2,-4.756584764E-3
7.046950177E2,1.144695282E-2,-1.015126705E-1,1.844748855E-3
7.051950177E2,6.385040283E-2,-4.196250439E-2,-1.484219730E-2
7.056950177E2,2.985668182E-2,-8.285939693E-2,-1.872571558E-2
7.061950177E2,-9.235382080E-3,-6.543064117E-2,-2.078042179E-2
7.066950177E2,1.146411896E-2,-2.029764652E-2,-1.127615571E-2
7.071950177E2,1.001739502E-2,-1.384925842E-2,-1.921606436E-2
7.076950177E2,-5.960464478E-3,1.366221905E-2,-1.391379442E-2
7.081950177E2,-2.149868011E-2,-2.686369419E-2,-8.783506230E-3
7.086950177E2,-3.694438934E-2,2.845871449E-2,-2.266174182E-3
7.091950177E2,1.618480682E-2,-1.461172104E-2,-2.494474500E-2
7.096950177E2,6.958007812E-3,1.927137375E-2,-2.048268914E-2
7.101950177E2,5.286216736E-3,9.810125828E-2,-1.766414195E-2
7.106950177E2,1.814842224E-3,1.362624168E-1,5.976393819E-3
7.111950177E2,3.284454346E-3,9.159708023E-2,-1.363924146E-2
7.116950177E2,-3.375244141E-2,1.254110336E-1,-5.346760154E-4
7.121950177E2,-3.932476044E-2,8.330929279E-2,5.730137229E-3
7.126950177E2,-1.113700867E-2,-2.551841736E-2,-1.110519469E-2
7.131950177E2,-3.489208221E-2,-1.266205311E-2,-7.605969906E-3
7.136950177E2,1.528739929E-3,-2.652287483E-3,-6.060905755E-3
7.141950177E2,-7.157325745E-3,-4.656243324E-2,-2.441853285E-3
7.146950177E2,2.464771271E-2,-8.455348015E-2,-1.586536318E-2
7.151950177E2,2.666759491E-2,-4.650235176E-2,-1.088110358E-2
7.156950177E2,-8.646011353E-3,-9.145009518E-2,-1.051197201E-2
7.161950177E2,-2.265739441E-2,-7.171571255E-2,-1.072245836E-2
7.166950177E2,3.787040710E-3,-3.468883038E-2,5.498252809E-3
7.171950177E2,9.200096130E-3,-9.976506233E-3,-3.818109632E-3
7.176950177E2,2.278327942E-3,-2.791297436E-2,1.137707382E-2
7.181950177E2,4.223823547E-3,1.417052746E-2,1.941092312E-3
7.186950177E2,1.976203918E-2,-3.170454502E-2,-8.365839720E-3
7.191950177E2,-1.104259491E-2,1.218926907E-2,-6.753496826E-3
7.196950177E2,3.510475159E-2,-4.737854004E-3,-1.509398222E-2
7.201950177E2,6.030368805E-2,9.887576103E-3,-4.661925137E-3
7.206950177E2,1.256179810E-2,-1.344025135E-2,-2.287544310E-3
7.211950177E2,-1.348972321E-2,2.980470657E-3,7.086485624E-2
7.216950177E2,9.263038635E-3,3.088593483E-3,9.352825582E-3
7.221950177E2,7.392883301E-3,1.604914665E-2,3.060257435E-2
7.226950177E2,-7.983207703E-3,1.201033592E-3,3.915697336E-2
7.231950177E2,-5.204200745E-3,5.644679070E-3,1.317581534E-2
7.236950177E2,8.029937744E-4,-1.130139828E-2,-6.978005171E-3
7.241950177E2,1.565837860E-2,-6.737828255E-3,-1.369532943E-2
7.246950177E2,3.683090210E-3,-2.301812172E-3,-2.032965422E-2
7.251950177E2,-4.310989380E-2,2.394104004E-2,4.970827699E-2
7.256950177E2,-2.970790863E-2,-7.838606834E-3,9.254246950E-3
7.261950177E2,3.561973572E-3,-1.519405842E-2,-1.893723011E-2
7.266950177E2,-7.480621338E-3,2.102088928E-2,-3.891617060E-3
7.271950177E2,-3.674507141E-3,1.490902901E-2,-7.610976696E-3
7.276950177E2,-1.661586761E-2,4.298746586E-2,3.056064248E-2
7.281950177E2,-3.754615784E-3,-1.399672031E-2,1.668602228E-2
7.286950177E2,1.249027252E-2,-1.684260368E-2,-6.905019283E-3
7.291950177E2,1.232337952E-2,2.889978886E-2,-3.860563040E-3
7.296950177E2,-5.669593811E-3,-2.407562733E-2,2.145403624E-2
7.301950177E2,-2.383232117E-3,-1.447641850E-2,7.272869349E-3
7.306950177E2,2.204895020E-2,-1.777529716E-2,6.349444389E-3
7.311950177E2,-6.437301636E-4,4.365670681E-2,1.955229044E-2
7.316950177E2,-9.455680847E-3,-2.002298832E-2,-5.856633186E-3
7.321950177E2,-3.001689911E-2,3.126263618E-3,-2.379822731E-2
7.326950177E2,3.152656555E-2,1.124370098E-2,-3.910154104E-3
7.331950177E2,7.199287415E-3,7.555365562E-3,3.296226263E-3
7.336950177E2,-2.116680145E-2,-5.966186523E-3,5.048722029E-3
7.341950177E2,1.415061951E-2,-2.021801472E-2,4.172712564E-3
7.346950177E2,-3.428077698E-2,-1.954901218E-2,-8.836099505E-2
7.351950177E2,5.732536316E-3,-1.540851593E-2,-3.063052893E-2
7.356950177E2,4.779720306E-2,-2.761483192E-3,-7.012397051E-3
7.361950177E2,2.288246155E-2,-4.813790321E-3,-1.658955216E-2
7.366950177E2,5.370140076E-3,-2.685034275E-2,-4.063338041E-3
7.371950177E2,-6.113052368E-4,-8.416175842E-4,-8.530527353E-3
7.376950177E2,1.841640472E-2,1.133787632E-2,2.402961254E-4
7.381950177E2,5.960464478E-4,9.277462959E-3,-1.063530445E-1
7.386950177E2,3.417015076E-3,7.098627090E-2,-1.382078528E-1
7.391950177E2,6.042766571E-2,-7.717692852E-2,1.485547423E-1
7.396950177E2,-2.149868011E-2,2.396285534E-2,-1.587314755E-1
7.401950177E2,-2.062892914E-2,8.504033089E-2,4.869935811E-1
7.406950177E2,2.374649048E-4,1.038637161E-1,-4.660272598E-2
7.411950177E2,9.335517883E-3,-5.750977993E-2,2.310077846E-1
7.416950177E2,-4.936218262E-3,8.436751366E-2,-4.595063627E-2
7.421950177E2,-1.503181458E-2,-5.094540119E-2,-7.003572583E-2
7.426950177E2,-8.385658264E-3,4.100167751E-2,3.588264342E-3
7.431950177E2,1.179790497E-2,-5.921137333E-2,5.603187717E-3
7.436950177E2,1.044368744E-2,5.774021149E-2,-5.836691707E-5
7.441950177E2,1.391315460E-2,-5.305957794E-2,2.363508940E-2
7.446950177E2,6.455421448E-3,-8.803164959E-2,1.173342019E-2
7.451950177E2,1.980113983E-2,-1.912701130E-2,2.907135338E-2
7.456950177E2,7.724761963E-3,-1.178086996E-1,-1.312039047E-2
7.461950177E2,-4.684448242E-3,-8.639061451E-2,-7.915422320E-4
7.466950177E2,1.653480530E-2,-1.187134981E-1,5.625687540E-3
7.471950177E2,2.470302582E-2,-5.143201351E-2,-2.095772326E-2
7.476950177E2,2.384281158E-2,-1.203482151E-1,3.929145634E-3
7.481950177E2,3.443431854E-2,-2.651888132E-2,-3.542795777E-2
7.486950177E2,-1.742649078E-2,6.698620319E-2,4.510357976E-3
7.491950177E2,-6.418228149E-3,3.551650047E-2,-2.240911126E-3
7.496950177E2,-6.302833557E-2,9.245681763E-2,1.319211721E-2
7.501950177E2,7.601737976E-3,6.263959408E-2,7.150188088E-3
7.506950177E2,4.317092896E-2,6.732380390E-2,-3.658574820E-2
7.511950177E2,-8.705139160E-3,5.663096905E-2,-8.740589023E-3
7.516950177E2,-1.908493042E-2,1.021797657E-1,1.338046789E-2
7.521950177E2,-4.630565643E-2,8.862817287E-2,2.912898362E-2
7.526950177E2,-1.066684723E-2,9.290838242E-2,2.307493985E-2
7.531950177E2,2.419567108E-2,2.103173733E-2,1.825180650E-2
7.536950177E2,3.854465485E-2,-5.117714405E-2,-1.302143186E-2
7.541950177E2,-1.484203339E-2,5.837416649E-2,4.682408273E-2
7.546950177E2,-1.405048370E-2,-8.543300629E-2,-2.622970939E-1
7.551950177E2,2.844810486E-3,6.451606750E-3,-1.295467615E-1
7.556950177E2,-1.006603241E-2,-1.671409607E-2,-1.103857160E-2
7.561950177E2,-2.592468262E-2,-3.936409950E-3,-1.460039616E-2
7.566950177E2,2.018451691E-2,9.060740471E-3,-6.957352161E-3
7.571950177E2,1.014804840E-2,2.236378193E-2,2.591797709E-2
7.576950177E2,-1.809120178E-3,4.797208309E-2,-2.015829086E-4
7.581950177E2,-3.778362274E-2,-4.684579372E-2,-4.645258188E-2
7.586950177E2,1.727380753E-1,-3.120076656E-2,-1.866894960E-2
7.591950177E2,-5.336093903E-2,-2.636098862E-2,-2.048152685E-2
7.596950177E2,-1.111888885E-2,3.050839901E-2,2.158761024E-3
7.601950177E2,1.668930054E-3,-1.323652267E-2,3.826200962E-3
7.606950177E2,-1.400566101E-2,8.166861534E-2,-1.765894890E-2
7.611950177E2,2.538681030E-3,-8.707761765E-2,-3.418779373E-2
7.616950177E2,-3.454494476E-2,1.324295998E-2,-1.032084227E-2
7.621950177E2,1.905441284E-3,-1.235342026E-2,3.391230106E-2
7.626950177E2,-6.911277771E-3,4.029643536E-2,1.710784435E-2
7.631950177E2,-1.376628876E-2,-2.209436893E-2,2.798497677E-2
7.636950177E2,-2.105236053E-2,5.298459530E-2,1.440382004E-2
7.641950177E2,3.586101532E-2,-6.148457527E-3,2.421915531E-2
7.646950177E2,1.601886749E-2,8.650541306E-3,-1.794099808E-3
7.651950177E2,1.056385040E-2,-1.743149757E-2,-5.619132519E-2
7.656950177E2,4.449844360E-3,4.351973534E-3,-1.600050926E-2
7.661950177E2,1.297664642E-2,3.313064575E-3,-1.272428036E-2
7.666950177E2,1.738548279E-3,-4.445314407E-4,-2.232289314E-2
7.671950177E2,3.070068359E-2,2.163469791E-2,-5.360639095E-2
7.676950177E2,-1.192378998E-2,3.335106373E-2,-1.412645578E-1
7.681950177E2,1.037120819E-2,-2.890706062E-3,-2.926826477E-2
7.686950177E2,9.572982788E-3,2.415037155E-2,7.342576981E-3
7.691950177E2,1.392936707E-2,1.101016998E-2,1.349449158E-4
7.696950177E2,9.053230286E-3,1.196110249E-2,-3.441107273E-2
7.701950177E2,-1.242256165E-2,-2.999675274E-2,2.224600315E-2
7.706950177E2,-6.450653076E-3,2.184355259E-2,-4.740273952E-2
7.711950177E2,2.966785431E-2,2.541065216E-2,1.565599442E-1
7.716950177E2,1.777553558E-2,-8.422493935E-3,7.811152935E-2
7.721950177E2,-1.759529114E-3,1.800644398E-2,1.725029945E-2
7.726950177E2,-7.782936096E-3,-1.547729969E-2,1.012229919E-2
7.731950177E2,2.942085266E-3,1.170170307E-2,5.252492428E-2
7.736950177E2,-4.807472229E-3,-1.645922661E-3,1.415121555E-2
7.741950177E2,-2.787590027E-3,-1.317012310E-2,6.447196007E-3
7.746950177E2,-5.757331848E-3,2.482295036E-3,-1.432299614E-3
7.751950177E2,-4.231452942E-3,-2.677559853E-3,-1.776337624E-3
7.756950177E2,7.178306580E-3,1.106679440E-2,1.101130247E-1
7.761950177E2,-7.918357849E-3,-2.083420753E-3,4.827916622E-2
7.766950177E2,-1.078319550E-2,8.755326271E-3,-3.211891651E-2
7.771950177E2,-4.763603210E-3,-2.234351635E-2,-1.161181927E-2
7.776950177E2,-6.546974182E-3,-4.487490654E-2,-6.760764718E-1
7.781950177E2,-9.918212891E-5,7.836496830E-2,4.469123483E-1
7.786950177E2,-9.207725525E-3,1.502645016E-2,5.238554478E-1
7.791950177E2,4.863739014E-4,3.297889233E-2,2.798520327E-1
7.796950177E2,1.082706451E-2,6.805658340E-4,-6.245785952E-2
7.801950177E2,1.053905487E-2,-5.031943321E-3,-3.468927741E-2
7.806950177E2,-7.377624512E-3,7.407784462E-3,3.237864375E-2
7.811950177E2,-1.727104187E-3,-8.450388908E-3,-3.381341696E-3
7.816950177E2,-8.217811584E-3,6.820011139E-2,4.975834191E-1
7.821950177E2,1.222324371E-2,-8.916652203E-2,-2.935958505E-1
7.826950177E2,-2.860069275E-3,2.294778824E-3,-7.693701982E-2
7.831950177E2,-5.508422852E-3,2.488613129E-3,9.853792936E-2
7.836950177E2,1.427650452E-3,-2.590656281E-3,9.489875287E-2
7.841950177E2,-4.180908203E-3,-2.287030220E-3,7.315934449E-2
7.846950177E2,-2.183914185E-4,1.087820530E-2,2.827079594E-2
7.851950177E2,1.552581787E-2,-1.151263714E-2,-2.399989367E-1
7.856950177E2,-1.794815063E-2,2.377426624E-2,2.630956173E-1
7.861950177E2,4.503250122E-3,-5.386590958E-3,-3.551998734E-2
7.866950177E2,4.896163940E-3,4.889488220E-3,2.035334706E-2
7.871950177E2,3.922462463E-3,-6.385087967E-3,-1.191851497E-2
7.876950177E2,-7.705688477E-4,-2.976655960E-3,-5.775809288E-3
7.881950177E2,9.183883667E-4,-1.103758812E-3,1.016259193E-4
7.886950177E2,-2.246856689E-3,-1.301527023E-3,5.446285009E-3
7.891950177E2,-9.625434875E-3,-4.741430283E-3,-3.265887499E-3
7.896950177E2,-7.047653198E-4,7.911443710E-3,5.861788988E-3
7.901950177E2,2.464294434E-3,-2.474904060E-3,-6.178617477E-4
7.906950177E2,-6.692886353E-3,5.625605583E-3,-2.213150263E-3
7.911950177E2,3.939628601E-3,3.790855408E-5,-1.997470856E-3
7.916950177E2,3.071784973E-3,-5.235671997E-4,1.226991415E-3
7.921950177E2,-1.015567780E-2,1.465082169E-3,2.695024014E-4
7.926950177E2,6.647109985E-4,-3.228545189E-3,-2.617537975E-4
7.931950177E2,7.219314575E-4,5.806326866E-3,-3.653466702E-4
7.936950177E2,-8.268356323E-4,5.747079849E-4,-7.392466068E-4
7.941950177E2,2.832412720E-4,8.076429367E-4,2.434223890E-3
7.946950177E2,3.615379333E-3,6.777048111E-4,2.425909042E-5
7.951950177E2,9.965896606E-4,4.284024239E-3,3.700852394E-4
7.956950177E2,5.426406860E-4,-3.476738930E-3,1.532882452E-3
7.961950177E2,2.785682678E-3,2.198100090E-3,-6.502270699E-4
7.966950177E2,7.390975952E-4,-1.220226288E-3,7.524788380E-4
7.971950177E2,2.765655518E-5,-3.137946129E-3,7.306933403E-4
7.976950177E2,-4.959106445E-4,2.042412758E-3,-5.739331245E-4
7.981950177E2,-8.525848389E-4,-3.344774246E-3,-5.229711533E-3
7.986950177E2,-1.458168030E-3,1.699328423E-3,3.019183874E-3
7.991950177E2,4.961967468E-3,-2.377629280E-3,-2.294063568E-3
7.996950177E2,-3.067016602E-3,6.763577461E-3,1.774191856E-3
8.001950177E2,-1.159954071E-2,-9.604215622E-3,8.605688810E-3
8.006950177E2,-8.688926697E-3,-1.072251797E-2,3.644225001E-2
8.011950177E2,-5.618095398E-3,1.247930527E-2,7.308155298E-3
8.016950177E2,-1.561260223E-2,-7.770419121E-3,1.942592859E-2
8.021950177E2,-1.011848450E-3,6.964445114E-3,-1.109766960E-2
8.026950177E2,-7.505416870E-4,2.407550812E-3,-1.072996855E-2
8.031950177E2,1.864433289E-3,-4.068613052E-4,7.619827986E-3
8.036950177E2,-1.865386963E-3,2.725243568E-3,-6.119012833E-4
8.041950177E2,3.257751465E-3,-1.180171967E-4,2.182781696E-3
8.046950177E2,3.939628601E-3,4.051327705E-3,-6.688892841E-3
8.051950177E2,1.058578491E-4,-5.824565887E-4,-7.785856724E-4
8.056950177E2,1.715660095E-3,-4.370093346E-3,2.617835999E-3
8.061950177E2,4.377365112E-4,8.330345154E-4,1.734584570E-3
8.066950177E2,-2.412796021E-4,-1.821637154E-3,-2.124309540E-3
8.071950177E2,2.346038818E-4,-7.736682892E-5,5.737692118E-3
8.076950177E2,1.208305359E-3,-2.942085266E-4,2.629548311E-3
8.081950177E2,-8.239746094E-4,5.614757538E-5,6.365180016E-4
8.086950177E2,2.508163452E-4,-9.127855301E-4,1.611083746E-3
8.091950177E2,2.880096436E-4,9.179115295E-5,3.152489662E-4
8.096950177E2,5.273818970E-4,8.621215820E-4,-3.680586815E-5
8.101950177E2,-8.678436279E-4,-3.350973129E-4,2.067476511E-3
8.106950177E2,-8.058547974E-4,-5.823373795E-4,1.539736986E-3
8.111950177E2,-5.064010620E-4,1.142621040E-3,3.988474607E-3
8.116950177E2,-5.731582642E-4,-4.023313522E-4,2.212822437E-4
8.121950177E2,1.585006714E-3,-3.723263741E-3,-1.056739688E-2
8.126950177E2,-6.904602051E-4,-2.758622169E-3,-4.944056273E-3
8.131950177E2,-8.268356323E-4,-4.798173904E-4,1.045942307E-3
8.136950177E2,1.220703125E-4,-6.624460220E-4,2.927333117E-3
8.141950177E2,-3.623962402E-5,2.515912056E-3,1.333594322E-3
8.146950177E2,-1.030921936E-3,-1.446366310E-3,3.640919924E-3
8.151950177E2,-2.756118774E-4,2.612352371E-3,1.660808921E-2
8.156950177E2,1.239776611E-5,-1.363158226E-3,5.558133125E-3
8.161950177E2,-9.975433350E-4,-2.190947533E-3,8.247494698E-4
8.166950177E2,1.180648804E-3,5.857944489E-4,2.796143293E-3
8.171950177E2,-1.907348633E-4,-6.275177002E-4,2.560764551E-3
8.176950177E2,1.525878906E-4,-1.036763191E-3,7.596611977E-4
8.181950177E2,-3.519058228E-4,-7.445812225E-4,3.402322531E-3
8.186950177E2,-1.910209656E-3,-1.970410347E-3,1.274138689E-3
8.191950177E2,-8.335113525E-4,-1.760601997E-3,3.226101398E-4
8.196950177E2,7.886886597E-4,-2.483129501E-4,7.505416870E-4
8.201950177E2,9.584426880E-4,-4.523992538E-4,-2.455800772E-3
8.206950177E2,-1.472473145E-3,-2.894878387E-3,-1.199930906E-3
8.211950177E2,5.350112915E-4,-9.179115295E-6,1.170933247E-4
8.216950177E2,8.554458618E-4,-8.528232574E-4,-4.312694073E-4
8.221950177E2,-1.283645630E-3,1.835823059E-5,-1.590549946E-4
8.226950177E2,7.295608521E-4,6.915330887E-4,1.387566328E-3
8.231950177E2,4.272460938E-4,-7.619857788E-4,-1.531064510E-3
8.236950177E2,-4.243850708E-4,9.307861328E-4,-3.111481667E-3
8.241950177E2,-6.675720215E-6,-1.369714737E-4,-1.609444618E-3
8.246950177E2,1.764297485E-3,-1.199603081E-3,-3.097534180E-3
8.251950177E2,-3.042221069E-4,9.959936142E-4,-2.323120832E-3
8.256950177E2,2.532005310E-3,7.864236832E-4,-1.365542412E-4
8.261950177E2,-1.134872437E-3,1.208662987E-3,6.932318211E-4
8.266950177E2,1.854896545E-3,3.737211227E-4,5.659162998E-4
8.271950177E2,-8.411407471E-4,-1.155257225E-3,-4.306435585E-5
8.276950177E2,2.317428589E-4,-1.101016998E-3,1.419186592E-3
8.281950177E2,-1.125335693E-4,6.419420242E-4,1.375585794E-3
8.286950177E2,6.523132324E-4,-2.480745316E-4,2.052068710E-3
8.291950177E2,-1.001358032E-4,2.590417862E-4,3.625154495E-4
8.296950177E2,9.546279907E-4,4.668235779E-4,6.765127182E-6
8.301950177E2,2.546310425E-4,-3.362894058E-4,-3.760457039E-4
8.306950177E2,1.764297485E-4,9.248256683E-4,-2.844631672E-4
8.311950177E2,-8.211135864E-4,-1.058220863E-3,1.330375671E-4
8.316950177E2,-2.222061157E-4,-9.387731552E-4,9.154677391E-4
8.321950177E2,1.334190369E-3,1.498460770E-4,1.289248466E-4
8.326950177E2,-2.574920654E-4,-2.830028534E-4,1.313090324E-3
8.331950177E2,7.162094116E-4,-1.119494438E-3,1.553982496E-3
8.336950177E2,1.491546631E-3,-1.979947090E-3,-3.351569176E-3
8.341950177E2,-1.647949219E-3,4.636049271E-4,2.596557140E-3
8.346950177E2,-1.702308655E-3,1.960992813E-4,1.193910837E-3
8.351950177E2,1.401901245E-4,-7.992982864E-4,-3.472268581E-4
8.356950177E2,2.145767212E-4,-9.182691574E-4,1.037210226E-3
8.361950177E2,-9.651184082E-4,3.658533096E-4,1.707106829E-3
8.366950177E2,-2.018928528E-3,-3.186464310E-4,5.860805511E-3
8.371950177E2,1.117706299E-3,-8.630752563E-5,-1.060068607E-4
8.376950177E2,-2.587318420E-3,-6.390810013E-4,2.853363752E-3
8.381950177E2,-4.987716675E-4,5.460977554E-4,1.340240240E-3
8.386950177E2,9.508132935E-4,5.749464035E-4,-2.083837986E-3
8.391950177E2,-1.765251160E-3,1.637339592E-3,1.353323460E-4
8.396950177E2,7.534027100E-5,4.124641418E-4,5.421638489E-4
8.401950177E2,-8.039474487E-4,-1.557826996E-3,-1.539170742E-3
8.406950177E2,8.878707886E-4,1.251935959E-3,3.254413605E-5
8.411950177E2,3.614425659E-4,1.101255417E-3,2.267777920E-3
8.416950177E2,8.821487427E-4,5.590915680E-5,-6.579756737E-4
8.421950177E2,6.723403931E-4,7.458925247E-4,1.359313726E-3
8.426950177E2,1.621246338E-5,1.083970070E-3,3.033667803E-3
8.431950177E2,2.079963684E-3,-5.810260773E-4,-3.983110189E-3
8.436950177E2,4.053115845E-4,1.298189163E-4,-2.909064293E-3
8.441950177E2,-4.768371582E-4,-1.410841942E-3,1.720786095E-4
8.446950177E2,-1.583099365E-4,1.287102699E-3,2.622306347E-4
8.451950177E2,-1.232147217E-3,-6.307363510E-4,5.306303501E-4
8.456950177E2,-1.391410828E-3,2.145648003E-3,1.776665449E-3
8.461950177E2,9.679794312E-4,9.306669235E-4,2.277046442E-3
8.466950177E2,-1.452445984E-3,-1.542568207E-3,-1.908987761E-3
8.471950177E2,5.178451538E-4,-1.427412033E-3,2.935230732E-4
8.476950177E2,-1.668930054E-4,2.769231796E-4,6.991326809E-4
8.481950177E2,-9.689331055E-4,-9.077787399E-4,2.208679914E-3
8.486950177E2,3.191947937E-3,-2.280473709E-4,7.589459419E-4
8.491950177E2,1.075744629E-3,2.817034721E-3,2.449899912E-3
8.496950177E2,1.360893250E-3,6.834268570E-4,-1.091718674E-3
8.501950177E2,-6.847381592E-4,3.557205200E-4,-4.397034645E-4
8.506950177E2,3.652572632E-4,5.439519882E-4,7.200539112E-4
8.511950177E2,-2.178192139E-3,-6.583929062E-4,7.970571518E-3
8.516950177E2,1.907348633E-6,1.183748245E-4,-3.042697906E-3
8.521950177E2,2.012252808E-4,-2.440094948E-3,5.880385637E-3
8.526950177E2,-2.546310425E-4,3.259658813E-3,3.661155701E-3
8.531950177E2,1.469612122E-3,-8.810162544E-3,-2.097231150E-2
8.536950177E2,1.194000244E-3,-1.160383224E-3,-3.770709038E-3
8.541950177E2,-1.224517822E-3,-3.732442856E-4,3.734529018E-4
8.546950177E2,-2.200126648E-3,2.511143684E-3,5.663812160E-3
8.551950177E2,2.316474915E-3,-1.555085182E-3,6.136596203E-4
8.556950177E2,1.096725464E-3,8.701086044E-4,5.558490753E-3
8.561950177E2,-1.279830933E-3,-6.444454193E-4,1.312345266E-3
8.566950177E2,2.288818359E-4,-1.295447350E-3,6.130039692E-4
8.571950177E2,1.627922058E-3,1.366734505E-3,-2.140402794E-4
8.576950177E2,-2.474784851E-3,-6.643533707E-4,3.158691525E-2
8.581950177E2,-6.017684937E-4,-1.746416092E-4,-1.577338576E-2
8.586950177E2,-3.576278687E-4,-9.877681732E-4,4.002451897E-3
8.591950177E2,-3.006935120E-3,-2.597808838E-3,6.762292981E-2
8.596950177E2,-9.088516235E-4,-1.092159748E-2,-1.569364965E-2
8.601950177E2,1.507759094E-3,2.577543259E-3,-2.630151808E-2
8.606950177E2,1.287460327E-4,2.303242683E-3,-5.354285240E-3
8.611950177E2,-1.011848450E-3,1.411914825E-3,2.534464002E-3
8.616950177E2,6.570816040E-4,-9.371042252E-4,-1.431271434E-3
8.621950177E2,-5.865097046E-4,4.541873932E-5,-6.012156606E-3
8.626950177E2,-2.050399780E-4,-1.677274704E-4,-1.006022096E-3
8.631950177E2,7.190704346E-4,-3.602504730E-4,-1.449853182E-3
8.636950177E2,-6.990432739E-4,-2.565979958E-3,2.386897802E-3
8.641950177E2,-5.826950073E-4,9.690523148E-4,1.877486706E-3
8.646950177E2,-3.061294556E-4,-4.686117172E-4,2.330139279E-3
8.651950177E2,-8.878707886E-4,2.814531326E-4,2.530902624E-3
8.656950177E2,-3.910064697E-5,-2.526044846E-4,2.324238420E-3
8.661950177E2,-4.892349243E-4,7.567405701E-4,-1.603901386E-3
8.666950177E2,-3.557205200E-4,-8.654594421E-4,3.745704889E-4
8.671950177E2,8.859634399E-4,-1.439332962E-3,2.010703087E-3
8.676950177E2,-6.179809570E-4,1.509428024E-3,2.551123500E-3
8.681950177E2,2.574920654E-5,4.009008408E-4,1.847356558E-3
8.686950177E2,-1.667976379E-3,-1.978874207E-4,2.697214484E-3
8.691950177E2,-7.190704346E-4,8.577108383E-4,2.144604921E-3
8.696950177E2,-1.661300659E-3,-2.011418343E-3,-9.752362967E-4
8.701950177E2,2.066612244E-3,2.845287323E-3,-3.415480256E-3
8.706950177E2,-3.604888916E-4,-6.160736084E-4,2.668350935E-3
8.711950177E2,1.811981201E-5,9.599924088E-4,1.012846828E-3
8.716950177E2,-1.130104065E-3,-9.224414825E-4,1.780286431E-3
8.721950177E2,5.674362183E-4,-4.303455353E-5,1.545384526E-3
8.726950177E2,-1.067161560E-3,2.408981323E-3,7.617920637E-4
8.731950177E2,7.238388062E-4,-1.945853233E-3,-6.826788187E-3
8.736950177E2,1.889228821E-3,-1.733422279E-3,2.097383142E-3
8.741950177E2,-2.822875977E-4,-2.040863037E-4,4.439651966E-4
8.746950177E2,-6.618499756E-4,2.253055573E-5,1.341685653E-3
8.751950177E2,1.163482666E-4,-8.867979050E-4,8.879005909E-4
8.756950177E2,-1.678466797E-4,-2.038478851E-4,2.155065536E-3
8.761950177E2,2.546310425E-4,1.245856285E-3,2.928510308E-3
8.766950177E2,2.880096436E-4,1.021862030E-3,-1.064375043E-3
8.771950177E2,8.258819580E-4,-3.381967545E-4,-4.018336535E-3
8.776950177E2,5.435943604E-4,6.436109543E-4,2.351477742E-3
8.781950177E2,5.426406860E-4,-8.418560028E-4,5.179196596E-4
8.786950177E2,-5.092620850E-4,-4.013776779E-4,2.576306462E-3
8.791950177E2,-6.008148193E-5,-6.901025772E-4,-7.569789886E-5
8.796950177E2,-8.478164673E-4,7.572174072E-4,2.867549658E-3
8.801950177E2,4.291534424E-5,9.804964066E-4,-1.422497630E-2
8.806950177E2,1.749992371E-3,-3.761053085E-3,1.741930842E-3
8.811950177E2,-6.370544434E-4,-9.672641754E-4,1.362040639E-3
8.816950177E2,-5.111694336E-4,-1.181244850E-3,3.594398499E-3
8.821950177E2,-9.603500366E-4,5.971193314E-4,-9.501874447E-4
8.826950177E2,-2.212524414E-4,1.131653786E-3,1.100152731E-3
8.831950177E2,1.307487488E-3,6.457567215E-4,-9.671747684E-4
8.836950177E2,-4.320144653E-4,-1.413583755E-3,4.322230816E-4
8.841950177E2,2.775192261E-4,5.197525024E-5,-5.482584238E-4
8.846950177E2,-1.312255859E-3,-2.145528793E-3,-1.697927713E-3
8.851950177E2,-3.004074097E-4,4.593133926E-4,-1.794278622E-3
8.856950177E2,-1.459121704E-4,1.287698746E-3,-2.184584737E-3
8.861950177E2,-9.651184082E-4,-4.683732986E-4,1.688897610E-4
8.866950177E2,-6.275177002E-4,-4.465579987E-4,4.770681262E-3
8.871950177E2,8.459091187E-4,-7.427930832E-4,-1.523733139E-3
8.876950177E2,1.325607300E-4,-2.197146416E-3,-5.123704672E-3
8.881950177E2,2.393722534E-4,-7.845163345E-4,3.533810377E-4
8.886950177E2,2.450942993E-4,-5.234479904E-4,-4.944354296E-4
8.891950177E2,-9.250640869E-4,-3.405809402E-4,2.262383699E-3
8.896950177E2,5.245208740E-5,1.045465469E-3,2.593308687E-3
8.901950177E2,-7.133483887E-4,-9.958744049E-4,1.273185015E-3
8.906950177E2,-1.640319824E-4,-8.426904678E-4,9.929835796E-4
8.911950177E2,1.794815063E-3,-2.844452858E-3,-9.861439466E-4
8.916950177E2,-1.252174377E-3,1.348137856E-3,-6.654560566E-4
8.921950177E2,1.272201538E-3,1.691460609E-3,-3.823637962E-5
8.926950177E2,-2.307891846E-4,-2.356410027E-3,-8.793771267E-4
8.931950177E2,-5.464553833E-4,-7.630586624E-4,3.415346146E-4
8.936950177E2,-3.232955933E-4,3.830194473E-4,-1.744836569E-3
8.941950177E2,1.928329468E-3,1.240491867E-3,4.137128592E-3
8.946950177E2,-2.717971802E-4,-3.309011459E-3,-5.780145526E-3
8.951950177E2,-2.193450928E-5,-1.317262650E-4,-1.704692841E-4
8.956950177E2,-8.344650269E-4,-5.209445953E-4,6.508499384E-3
8.961950177E2,-8.096694946E-4,-4.847407341E-3,-9.905695915E-4
8.966950177E2,-2.220153809E-3,5.565881729E-4,-7.241964340E-6
8.971950177E2,1.711845398E-3,-2.241849899E-3,-2.173706889E-2
8.976950177E2,7.724761963E-4,1.086175442E-2,-2.571803331E-2
8.981950177E2,-6.268501282E-3,1.895189285E-3,1.966306567E-2
8.986950177E2,-2.861976624E-3,2.157807350E-3,1.169821620E-2
8.991950177E2,-2.070426941E-3,7.767081261E-3,-1.072230935E-2
8.996950177E2,-1.543045044E-3,2.841472626E-3,4.935890436E-3
9.001950177E2,-1.940727234E-3,-3.217458725E-3,-9.177625179E-4
9.006950177E2,6.658554077E-3,3.331661224E-3,-7.086396217E-3
9.011950177E2,-4.671096802E-3,-1.292085648E-2,4.193118215E-2
9.016950177E2,1.220703125E-4,5.777478218E-3,-2.254310250E-2
9.021950177E2,-3.000736237E-2,8.852362633E-3,1.836791635E-2
9.026950177E2,4.336357117E-3,-1.549720764E-6,3.345608711E-3
9.031950177E2,-4.014968872E-4,-1.067757607E-3,-3.853738308E-3
9.036950177E2,-1.430511475E-5,-1.018643379E-3,-2.736210823E-3
9.041950177E2,-1.122474670E-3,-2.135157585E-3,-1.031637192E-3
9.046950177E2,5.373954773E-3,2.284169197E-3,1.185864210E-3
9.051950177E2,-3.430366516E-3,4.091262817E-4,4.298537970E-3
9.056950177E2,1.207351685E-3,9.429454803E-5,-5.634158850E-3
9.061950177E2,4.034042358E-4,-1.751899719E-3,-3.261536360E-3
9.066950177E2,-1.568794250E-3,-1.234531403E-3,-2.717077732E-4
9.071950177E2,8.897781372E-4,-2.919077873E-3,3.638952971E-3
9.076950177E2,7.343292236E-5,1.408815384E-3,9.983778000E-4
9.081950177E2,-2.392768860E-3,-1.877188683E-3,-2.302229404E-4
9.086950177E2,-9.851455688E-4,-1.292586327E-3,-6.463825703E-4
9.091950177E2,1.122474670E-3,6.731748581E-4,2.706319094E-3
9.096950177E2,-1.434326172E-3,-1.478195190E-4,-4.387080669E-3
9.101950177E2,-1.347541809E-3,1.646637917E-3,2.182811499E-3
9.106950177E2,1.955032349E-3,7.506608963E-4,-3.892391920E-3
9.111950177E2,-1.292228699E-3,-2.139210701E-3,-2.144724131E-3
9.116950177E2,2.861022949E-5,-2.058386803E-3,-2.805292606E-4
9.121950177E2,7.133483887E-4,1.371741295E-3,4.153370857E-3
9.126950177E2,-9.012222290E-4,1.010298729E-3,1.085191965E-3
9.131950177E2,6.190299988E-3,-1.163876057E-2,1.513829827E-2
9.136950177E2,7.934570312E-4,2.696990967E-3,2.205500007E-2
9.141950177E2,7.534027100E-4,-2.542376518E-3,-7.140636444E-4
9.146950177E2,-1.887321472E-3,5.503892899E-4,-1.458257437E-3
9.151950177E2,-3.536224365E-3,-7.357597351E-4,-7.530301809E-3
9.156950177E2,-1.371383667E-3,5.301833153E-3,1.306673884E-2
9.161950177E2,9.822845459E-4,4.353404045E-3,-2.140372992E-3
9.166950177E2,-1.654624939E-3,1.101613045E-3,-3.989368677E-3
9.171950177E2,3.697395325E-3,-3.203153610E-4,-9.151995182E-4
9.176950177E2,1.082420349E-3,-3.074765205E-3,2.042442560E-3
9.181950177E2,-4.367828369E-4,-9.328126907E-4,2.052277327E-3
9.186950177E2,1.074790955E-3,-3.979206085E-4,-7.619082928E-3
9.191950177E2,1.041412354E-3,-2.479791641E-3,1.681268215E-3
9.196950177E2,4.630088806E-3,7.754564285E-4,2.130955458E-3
9.201950177E2,-6.294250488E-5,-9.926557541E-4,-4.647165537E-3
9.206950177E2,1.040458679E-3,-1.236319542E-3,-1.686960459E-3
9.211950177E2,6.675720215E-5,-1.693606377E-3,-2.882629633E-3
9.216950177E2,7.066726685E-4,2.110004425E-5,8.697211742E-4
9.221950177E2,9.346008301E-5,-4.976987839E-4,9.560883045E-4
9.226950177E2,7.076263428E-4,-1.011252403E-3,2.198219299E-4
9.231950177E2,3.890991211E-4,1.973509789E-3,-4.912167788E-3
9.236950177E2,3.271102905E-4,-7.590055466E-4,2.913743258E-3
9.241950177E2,6.895065308E-4,-2.650499344E-3,1.197785139E-3
9.246950177E2,-1.077651978E-4,2.416372299E-4,1.028865576E-3
9.251950177E2,-1.107215881E-3,4.373788834E-4,1.105517149E-3
9.256950177E2,-2.186775208E-3,-4.370212555E-4,-1.672744751E-3
9.261950177E2,2.121925354E-3,-1.656413078E-3,-1.958191395E-3
9.266950177E2,-3.690719604E-4,7.741451263E-4,1.595050097E-3
9.271950177E2,-3.452301025E-4,2.932548523E-5,6.890058517E-3
9.276950177E2,2.696037292E-3,2.452135086E-4,-2.314954996E-3
9.281950177E2,-1.990318298E-3,-1.819252968E-3,-1.064866781E-3
9.286950177E2,-3.391265869E-3,6.710648537E-3,7.231950760E-3
9.291950177E2,1.770973206E-3,1.030588150E-2,5.681663752E-3
9.296950177E2,-1.398086548E-3,2.283215523E-3,-5.583465099E-3
9.301950177E2,1.914024353E-3,-3.399372101E-3,2.104341984E-3
9.306950177E2,9.450912476E-4,3.443479538E-3,-1.115298271E-2
9.311950177E2,-1.420974731E-4,3.568410873E-3,8.293032646E-3
9.316950177E2,-2.614021301E-3,4.410624504E-3,-1.708894968E-3
9.321950177E2,1.980781555E-3,-5.084156990E-3,-2.923280001E-3
9.326950177E2,-1.376152039E-3,1.090526581E-3,3.225296736E-3
9.331950177E2,5.168914795E-4,1.828312874E-3,1.441836357E-3
9.336950177E2,-4.673004150E-5,1.191020012E-3,2.500712872E-4
9.341950177E2,-5.283355713E-4,1.537442207E-3,3.473401070E-3
9.346950177E2,1.190185547E-3,6.709098816E-4,2.065747976E-3
9.351950177E2,1.120567322E-3,-9.213685989E-4,-2.594262362E-3
9.356950177E2,-8.382797241E-4,5.915164948E-4,8.260607719E-4
9.361950177E2,4.768371582E-5,-2.336502075E-5,1.196861267E-4
9.366950177E2,3.862380981E-4,-5.261898041E-4,1.320391893E-3
9.371950177E2,-3.080368042E-4,-7.702112198E-4,-5.756318569E-4
9.376950177E2,-5.254745483E-4,-4.996061325E-4,-8.132159710E-4
9.381950177E2,1.673698425E-3,-4.073381424E-4,1.500040293E-3
9.386950177E2,-1.355171204E-3,-2.183914185E-4,-5.802214146E-4
9.391950177E2,6.809234619E-4,-5.782842636E-4,1.069873571E-3
9.396950177E2,-1.554489136E-4,-1.140832901E-4,2.847582102E-3
9.401950177E2,7.534027100E-5,-4.692077637E-4,-2.254396677E-3
9.406950177E2,-8.783340454E-4,-9.169578552E-4,-2.032279968E-3
9.411950177E2,1.401901245E-4,1.176714897E-3,3.310143948E-4
9.416950177E2,-8.831024170E-4,-1.268982887E-3,5.821883678E-4
9.421950177E2,8.678436279E-5,-1.605987549E-3,8.306801319E-4
9.426950177E2,-4.873275757E-4,-5.662441254E-5,2.983093262E-3
9.431950177E2,1.239776611E-5,-4.400014877E-4,-9.922087193E-4
9.436950177E2,-1.545906067E-3,-7.640123367E-4,1.791894436E-3
9.441950177E2,8.134841919E-4,8.890628815E-4,5.775392056E-4
9.446950177E2,-3.061294556E-4,2.456903458E-4,-2.008348703E-3
9.451950177E2,4.720687866E-4,-8.982419968E-4,-1.831293106E-3
9.456950177E2,8.468627930E-4,8.293390274E-4,-1.210063696E-3
9.461950177E2,6.065368652E-4,-7.401704788E-4,8.364021778E-4
9.466950177E2,-1.161575317E-3,5.662441254E-5,1.132130623E-3
9.471950177E2,-1.954078674E-3,-1.202106476E-3,1.974999905E-4
9.476950177E2,7.352828979E-4,-1.325964928E-3,-2.582907677E-3
9.481950177E2,-7.076263428E-4,-4.445314407E-4,-9.244680405E-5
9.486950177E2,9.670257568E-4,9.742975235E-4,6.845355034E-3
9.491950177E2,1.811981201E-4,-3.563165665E-4,-6.307661533E-3
9.496950177E2,-3.652572632E-4,1.846551895E-4,-1.462340355E-3
9.501950177E2,6.446838379E-4,-2.093672752E-3,-7.642209530E-4
9.506950177E2,2.057075500E-3,-1.550793648E-3,-1.266449690E-3
9.511950177E2,-1.317024231E-3,6.221532822E-4,2.988547087E-3
9.516950177E2,1.600265503E-3,-1.182198524E-3,3.959834576E-4
9.521950177E2,-1.642227173E-3,-9.527206421E-4,7.240474224E-4
9.526950177E2,1.399040222E-3,2.500176430E-3,-1.562535763E-4
9.531950177E2,-9.632110596E-4,4.065036774E-5,1.281410456E-3
9.536950177E2,-1.194953918E-3,-1.429915428E-3,-7.382929325E-4
9.541950177E2,1.970291138E-3,5.664825439E-4,-7.731020451E-4
9.546950177E2,5.207061768E-4,1.701951027E-3,3.609627485E-3
9.551950177E2,-1.432418823E-3,-1.335144043E-4,-4.305541515E-4
9.556950177E2,4.091262817E-4,-4.985332489E-4,-8.156001568E-4
9.561950177E2,1.902580261E-3,2.092242241E-3,2.544343472E-3
9.566950177E2,-1.591682434E-3,-4.754424095E-3,1.600533724E-3
9.571950177E2,-5.502700806E-4,3.304481506E-4,-4.099696875E-3
9.576950177E2,2.477645874E-3,-3.538250923E-3,-5.591303110E-3
9.581950177E2,9.431838989E-4,1.343727112E-3,4.705697298E-3
9.586950177E2,-3.023147583E-4,2.053856850E-3,3.699660301E-3
9.591950177E2,-4.281997681E-4,-4.622101784E-3,-2.016872168E-3
9.596950177E2,-1.796722412E-3,-6.351470947E-4,-6.300479174E-3
9.601950177E2,5.044937134E-4,1.129865646E-3,-7.130980492E-3
9.606950177E2,-9.088516235E-4,-1.693248749E-3,-2.146571875E-3
9.611950177E2,-2.107620239E-4,-1.236796379E-3,1.550614834E-4
9.616950177E2,2.889633179E-4,3.722906113E-4,4.704982042E-3
9.621950177E2,-2.994537354E-4,1.143097878E-3,2.057909966E-3
9.626950177E2,-1.115798950E-4,-4.804134369E-4,1.023143530E-3
9.631950177E2,-2.059936523E-4,3.838181496E-3,2.927243710E-3
9.636950177E2,-1.093864441E-3,-2.506494522E-3,1.059770584E-4
9.641950177E2,1.843452454E-3,-5.517363548E-3,3.224611282E-4
9.646950177E2,1.515388489E-3,4.676222801E-3,-1.649737358E-3
9.651950177E2,3.179550171E-3,4.933357239E-3,1.798897982E-3
9.656950177E2,-2.055168152E-3,-1.881837845E-3,4.183977842E-3
9.661950177E2,-1.640319824E-4,-3.937482834E-3,-4.019439220E-4
9.666950177E2,-1.057338715E-2,-3.591656685E-3,2.830770612E-2
9.671950177E2,-8.907318115E-4,4.531025887E-3,9.269085526E-2
9.676950177E2,-9.231567383E-3,-1.111900806E-2,1.681700349E-1
9.681950177E2,-1.512622833E-2,-9.357452393E-3,2.522391081E-1
9.686950177E2,-2.092361450E-3,-3.933548927E-3,5.869889259E-2
9.691950177E2,-1.917839050E-3,-7.901310921E-3,1.407845020E-1
9.696950177E2,2.965927124E-4,-2.523779869E-3,3.203260899E-2
9.701950177E2,-2.045631409E-3,5.735158920E-4,1.515793800E-2
9.706950177E2,1.795768738E-3,2.392530441E-4,1.505529881E-2
9.711950177E2,-4.618644714E-3,-3.147125244E-3,2.104043961E-3
9.716950177E2,-1.804351807E-3,-8.295774460E-4,-6.268978119E-3
9.721950177E2,-4.844665527E-4,2.499222755E-3,-3.824472427E-3
9.726950177E2,-7.769584656E-3,-5.217194557E-3,-3.660082817E-3
9.731950177E2,-4.849433899E-3,3.948569298E-3,-2.169013023E-3
9.736950177E2,-3.703117371E-3,-3.020167351E-3,-7.666349411E-4
9.741950177E2,-3.371238708E-3,5.336999893E-4,-2.191066742E-4
9.746950177E2,2.966880798E-3,-5.716085434E-4,4.674792290E-3
9.751950177E2,-2.343177795E-3,2.072691917E-3,-2.642035484E-3
9.756950177E2,1.685142517E-3,-1.124382019E-3,1.741838455E-2
9.761950177E2,7.725715637E-3,7.621407509E-3,-9.327769279E-3
9.766950177E2,1.055717468E-3,-9.895920753E-3,9.071707726E-3
9.771950177E2,1.176071167E-2,2.949070930E-2,-1.212741137E-1
9.776950177E2,2.105236053E-2,-9.546756744E-3,-5.973577499E-2
9.781950177E2,1.488399506E-2,2.964484692E-2,-2.458715439E-2
9.786950177E2,5.955696106E-3,2.460193634E-2,-5.973339081E-3
9.791950177E2,-1.789379120E-2,4.236114025E-2,-1.145533919E-1
9.796950177E2,1.674556732E-2,3.942465782E-2,-5.861431360E-2
9.801950177E2,-2.749443054E-3,5.095732212E-2,-1.940363646E-2
9.806950177E2,2.015113831E-3,5.312776566E-2,-4.847007990E-2
9.811950177E2,8.130073547E-3,5.263113976E-2,-2.721124887E-2
9.816950177E2,-1.843738556E-2,4.154276848E-2,-1.970833540E-2
9.821950177E2,1.174449921E-2,7.734966278E-2,-2.514469624E-2
9.826950177E2,-4.611587524E-2,3.117573261E-2,-3.944563866E-2
9.831950177E2,-1.440143585E-2,1.095973253E-1,-1.679337025E-2
9.836950177E2,-2.384090424E-2,7.417941093E-2,-1.775962114E-2
9.841950177E2,-1.086902618E-2,5.242180824E-2,-3.455227613E-2
9.846950177E2,-4.157066345E-3,6.351888180E-2,-3.444707394E-2
9.851950177E2,-3.870964050E-3,3.586661816E-2,-2.808403969E-2
9.856950177E2,4.050254822E-3,2.758800983E-2,-4.076474905E-2
9.861950177E2,-4.614734650E-2,5.343663692E-2,-3.463196754E-2
9.866950177E2,-8.687019348E-3,-1.585662365E-2,-3.603231907E-2
9.871950177E2,-7.720947266E-3,8.425784111E-2,1.214694977E-2
9.876950177E2,-8.378028870E-3,-1.566290855E-2,-7.235944271E-3
9.881950177E2,1.323604584E-2,8.111011982E-2,1.738399267E-2
9.886950177E2,-1.464653015E-2,7.145822048E-2,1.244938374E-2
9.891950177E2,2.252864838E-2,1.820242405E-2,-1.820033789E-2
9.896950177E2,1.094722748E-2,6.032979488E-2,-1.269876957E-3
