"Time (s)","Acceleration x (m/s^2)","Acceleration y (m/s^2)","Acceleration z (m/s^2)"
2.016578000E-3,-1.932204247E0,6.162714481E0,9.640084267E0
2.302392200E-2,-2.073380709E0,6.315257072E0,7.473981380E0
5.230239220E-1,-3.896711588E0,-4.666004330E-2,9.058030128E0
1.023023922E0,-6.754340172E0,-3.888336718E-1,1.019342422E1
1.523023922E0,7.378268719E0,-1.362772274E1,7.281957626E0
2.023023922E0,5.994618893E0,-1.428395462E1,6.065805554E-1
2.523023922E0,8.536394835E-1,-1.317607784E1,2.378465652E0
3.023023922E0,4.246662140E0,-1.050150013E1,-4.947160780E-1
3.523023922E0,9.619147182E-1,-1.247916794E1,-1.290927768E0
4.023023922E0,6.845267296E0,-8.765507698E0,-2.958725214E0
4.523023922E0,1.345962763E0,-1.250130177E1,-2.445464849E0
5.023023922E0,7.373483181E0,-7.433303356E0,-7.238288522E-1
5.523023922E0,4.762913704E0,-9.940981865E0,6.699903309E-2
6.023023922E0,7.545766354E0,-1.042612648E1,-1.097109199E0
6.523023922E0,1.878963947E0,-1.234875965E1,-2.059622049E0
7.023023922E0,6.490531445E0,-1.060319519E1,-8.213363886E-1
7.523023922E0,5.603990555E0,-6.984051228E0,4.199403822E-1
8.023023922E0,7.387241840E0,-1.025384331E1,8.823533654E-1
8.523023922E0,1.958525300E0,-9.595218658E0,-2.871387303E-1
9.023023922E0,5.468796253E0,-8.652446747E0,1.657029688E-1
9.523023922E0,4.250849247E0,-9.597013474E0,-3.714857101E-1
1.002302392E1,4.699503899E0,-7.770093441E0,-1.252642632E0
1.052302392E1,3.205185890E0,-7.574480057E0,-2.011167526E0
1.102302392E1,5.168497086E0,-6.586842537E0,-2.886940479E0
1.152302392E1,6.559923172E0,-1.209631634E1,-1.477568030E0
1.202302392E1,4.179663181E0,-9.493523598E0,-5.760720372E-1
1.252302392E1,4.601995945E0,-8.116454124E0,-1.392622828E0
1.302302392E1,2.649452925E0,-9.435498238E0,1.105484009E0
1.352302392E1,4.520640373E0,-8.043473244E0,-3.030509949E0
1.402302392E1,4.077369690E0,-9.073583603E0,2.209771633E0
1.452302392E1,4.426722050E0,-6.672386169E0,-4.057030678E0
1.502302392E1,4.037888050E0,-8.148757935E0,8.739784956E-1
1.552302392E1,7.905886173E0,-6.644270420E0,-2.017747641E0
1.602302392E1,8.050651550E0,-8.462217331E0,-7.770691514E-1
1.652302392E1,7.277172089E0,-9.188439369E0,-1.767697692E0
1.702302392E1,6.886543751E0,-7.600800991E0,-2.404786795E-1
1.752302392E1,3.504886866E0,-9.903294563E0,9.475577474E-1
1.802302392E1,7.197610378E0,-1.027956581E1,6.592226624E-1
1.852302392E1,3.698107481E0,-1.111525917E1,1.495514214E-1
1.902302392E1,5.289932728E0,-7.854440212E0,-1.274178028E0
1.952302392E1,2.823530674E0,-8.984451294E0,-2.991028316E-2
2.002302392E1,1.620539188E0,-1.030827999E1,-1.065404296E0
2.052302392E1,3.922434568E0,-9.521639824E0,-2.070987940E0
2.102302392E1,4.559523582E0,-1.015872860E1,1.092921734E0
2.152302392E1,3.594019651E0,-9.115457535E0,-4.151547253E-1
2.202302392E1,4.532006264E0,-8.553144455E0,-1.714457393E0
2.252302392E1,4.350151539E0,-8.382656097E0,-1.614557028E0
2.302302392E1,4.931009293E0,-8.508877754E0,-9.176474810E-1
2.352302392E1,5.727221012E0,-8.497511864E0,-8.255238086E-2
2.402302392E1,4.672584534E0,-8.029116631E0,-6.137589812E-1
2.452302392E1,5.034498692E0,-8.935996056E0,-1.094118118E0
2.502302392E1,4.516452789E0,-9.041280746E0,-1.113858938E0
2.552302392E1,4.645066738E0,-9.300303459E0,4.163511395E-1
2.602302392E1,4.599005222E0,-7.239484787E0,-3.649652719E0
2.652302392E1,4.645665169E0,-7.976474285E0,-2.279761791E0
2.702302392E1,4.581656933E0,-8.236095428E0,-2.096112728E0
2.752302392E1,3.789034605E0,-8.618947029E0,-2.234896421E0
2.802302392E1,5.077569485E0,-8.038089752E0,-1.590628862E0
2.852302392E1,4.686343193E0,-8.420941353E0,-1.198205948E0
2.902302392E1,5.197210789E0,-8.218149185E0,-1.375274777E0
2.952302392E1,4.900500774E0,-8.669795036E0,-9.158528447E-1
3.002302392E1,5.050650597E0,-8.156534195E0,-1.226919770E0
3.052302392E1,5.958128452E0,-7.725826263E0,-1.980060697E0
3.102302392E1,5.717051506E0,-7.928019524E0,-1.743171334E0
3.152302392E1,5.273781300E0,-7.840083599E0,-2.123630047E0
3.202302392E1,4.753342152E0,-7.921439171E0,-1.092323542E0
3.252302392E1,6.427121639E0,-8.626724243E0,-1.893919110E0
3.302302392E1,5.102694035E-1,-9.503094673E0,-3.053241730E0
3.352302392E1,1.019701385E1,-1.160818100E1,-2.606980324E0
3.402302392E1,5.876772404E0,-5.714060307E0,-1.695913076E0
3.452302392E1,4.605585575E0,-9.622735977E0,-7.387840152E-1
3.502302392E1,6.387042046E0,-6.331408501E0,-4.162314892E0
3.552302392E1,2.348555326E0,-8.991030693E0,-2.282752752E0
3.602302392E1,4.048655987E0,-7.457231998E0,1.016949639E-1
3.652302392E1,2.946761131E0,-7.229913712E0,-2.100898266E0
3.702302392E1,5.600401402E0,-1.001156998E1,1.668395638E0
3.752302392E1,3.265006542E0,-9.504291534E0,-1.287338614E0
3.802302392E1,5.225924492E0,-8.520243645E0,-9.894321561E-1
3.852302392E1,2.245664120E0,-7.737192154E0,-2.082952023E0
3.902302392E1,4.063013077E0,-7.866404533E0,-2.528615236E0
3.952302392E1,1.355534077E0,-7.454240799E0,-1.721037745E0
4.002302392E1,2.020738840E0,-7.515257835E0,-5.539384484E-1
4.052302392E1,3.619742393E0,-6.796812534E0,-5.551348329E-1
4.102302392E1,4.664807796E0,-5.152943611E0,-3.257827997E0
4.152302392E1,2.559123755E0,-8.557929993E0,-1.830509305E-1
4.202302392E1,5.487938881E0,-5.645267010E0,-8.518448472E-1
4.252302392E1,2.895315409E0,-7.151548862E0,1.009771109E0
4.302302392E1,4.255635262E0,-6.427121639E0,-2.156531334E0
4.352302392E1,5.631507874E0,-6.551548481E0,-2.664407969E0
4.402302392E1,1.450050473E0,-7.025327206E0,-3.960121572E-1
4.452302392E1,1.804188251E0,-6.246463299E0,-2.286342144E0
4.502302392E1,2.754737139E0,-6.591628075E0,-1.237687469E0
4.552302392E1,5.425725579E-1,-6.106483459E0,-1.127617717E0
4.602302392E1,2.633899450E0,-8.801998138E0,-1.064207911E0
4.652302392E1,1.317248821E0,-8.465806961E0,-6.143572330E-1
4.702302392E1,3.919443607E0,-6.997809887E0,-1.205982566E0
4.752302392E1,4.896911621E0,-8.801998138E0,-1.249053478E0
4.802302392E1,5.192425251E0,-1.048235798E1,-2.739782035E-1
4.852302392E1,2.241476536E0,-1.215673542E1,1.758724600E-1
4.902302392E1,7.071987152E0,-1.011685371E1,8.536394835E-1
4.952302392E1,7.256234884E-1,-1.123549843E1,7.974081635E-1
5.002302392E1,4.970490932E0,-8.574081421E0,-4.773681164E-1
5.052302392E1,4.472783566E0,-8.510671616E0,-1.247856975E0
5.102302392E1,7.531409264E0,-9.494720459E0,4.516452849E-1
5.152302392E1,4.945366383E0,-1.158425236E1,2.042274237E0
5.202302392E1,7.332805157E0,-1.224467182E1,-5.473581553E-1
5.252302392E1,5.704489231E0,-1.172124195E1,-1.896910191E0
5.302302392E1,6.946962357E0,-1.212383366E1,-1.213759303E0
5.352302392E1,6.025127411E0,-9.486345291E0,1.718046665E0
5.402302392E1,4.863411903E0,-9.223134995E0,-4.402793646E-1
5.452302392E1,6.352345943E0,-6.552744865E0,-2.471187592E0
5.502302392E1,5.677569866E0,-7.610372543E0,1.582253933E0
5.552302392E1,5.610570908E0,-6.248856544E0,-2.758326292E0
5.602302392E1,4.602594376E0,-6.823133945E0,2.702095032E0
5.652302392E1,5.320441246E0,-3.938585997E0,-2.635095835E0
5.702302392E1,1.877767563E0,-5.313262463E0,-2.488535494E-1
5.752302392E1,5.036891699E-1,-5.061418056E0,2.273181453E-2
5.802302392E1,2.764906645E0,-5.204987526E0,-1.817348838E0
5.852302392E1,3.463012457E0,-7.247261524E0,-9.655039310E-1
5.902302392E1,1.074975610E0,-8.011170387E0,-8.494520187E-2
5.952302392E1,1.125823021E0,-7.085746288E0,-2.525624275E0
6.002302392E1,3.930809498E0,-1.052243805E1,-1.825125456E0
6.052302392E1,5.514259815E0,-1.031127071E1,4.390829504E-1
6.102302392E1,2.486740828E0,-1.112961674E1,6.000002623E-1
6.152302392E1,6.282355785E0,-1.160519028E1,-1.386640668E0
6.202302392E1,4.922634602E0,-1.058764172E1,-1.855035782E0
6.252302392E1,7.513463020E0,-1.064148045E1,1.854437590E-1
6.302302392E1,6.494120598E0,-1.052961636E1,1.466202021E0
6.352302392E1,9.080163956E0,-8.526225090E0,-1.087537885E0
6.402302392E1,9.845269203E0,-8.024331093E0,1.366899967E0
6.452302392E1,5.358128071E0,-6.892525673E0,-4.564309120E-1
6.502302392E1,5.040481091E0,-1.295294762E1,-7.022934556E-1
6.552302392E1,5.057230473E0,-1.379881001E1,-3.724428415E0
6.602302392E1,6.990631580E0,-1.316710472E1,-4.279563427E0
6.652302392E1,1.006600666E1,-1.414995670E1,3.053241730E0
6.702302392E1,4.305884361E0,-1.094118118E1,-7.405785918E-1
6.752302392E1,3.831507206E0,-9.751350403E0,8.327022791E-1
6.802302392E1,3.888935089E0,-4.375276089E0,-5.066203594E0
6.852302392E1,1.560120344E0,-7.725826263E0,-1.280758262E0
6.902302392E1,4.119244099E0,-4.451846600E0,-3.222533941E0
6.952302392E1,2.544168711E0,-7.755736351E0,-6.580262445E-3
7.002302392E1,3.416950703E0,-5.112265587E0,-2.946761131E0
7.052302392E1,1.067198873E0,-9.023932457E0,-1.821536183E0
7.102302392E1,3.474378586E0,-7.816154957E0,-1.976471543E0
7.152302392E1,1.381256819E0,-1.011206818E1,-3.223730326E0
7.202302392E1,3.081955671E0,-1.059422207E1,-5.629115105E-1
7.252302392E1,1.039681435E0,-1.154596710E1,-9.858429432E-1
7.302302392E1,7.861618996E0,-1.229731369E1,-1.118046403E0
7.352302392E1,1.772483349E0,-1.210289669E1,-7.387840152E-1
7.402302392E1,8.075178146E0,-1.344168091E1,-1.850848317E0
7.452302392E1,7.834101200E0,-1.119721317E1,-2.466402054E0
7.502302392E1,8.062616348E0,-1.060319519E1,-5.951548100E0
7.552302392E1,6.307480335E0,-9.399007797E0,-4.827519894E0
7.602302392E1,7.878966808E0,-8.553742409E0,-6.951149702E-1
7.652302392E1,4.158725739E0,-5.133202553E0,-2.213959217E0
7.702302392E1,2.686541557E0,-7.586444378E0,7.112665176E-1
7.752302392E1,4.179663181E0,-5.052444935E0,-5.026721954E0
7.802302392E1,3.144168854E0,-6.166902065E0,-1.499701619E0
7.852302392E1,3.970290899E0,-5.140979290E0,-2.508874655E0
7.902302392E1,3.607180119E-1,-6.117849350E0,3.505485058E-1
7.952302392E1,2.486740828E0,-8.638090134E0,-1.933400750E0
8.002302392E1,4.798805714E0,-8.790034294E0,-3.199802160E0
8.052302392E1,7.495517135E-1,-1.104646587E1,6.185446382E-1
8.102302392E1,3.425325632E0,-1.064806080E1,-4.947160780E-1
8.152302392E1,5.423930645E0,-1.130249786E1,-6.807580590E-1
8.202302392E1,3.566502094E0,-1.262094307E1,-3.361915946E-1
8.252302392E1,5.909075737E0,-1.058285618E1,-1.942971945E0
8.302302392E1,3.495315790E0,-1.423071480E1,-3.139383316E0
8.352302392E1,6.119045734E0,-1.301396370E1,-5.189434052E0
8.402302392E1,3.372683525E0,-1.108475113E1,-6.059823632E-1
8.452302392E1,7.894520283E0,-1.027478027E1,-4.854438782E0
8.502302392E1,5.834897995E0,-9.309276581E0,-1.544566989E0
8.552302392E1,9.620343208E0,-8.958727837E0,-3.771088600E0
8.602302392E1,7.751548767E0,-7.979465485E0,-1.398604870E0
8.652302392E1,5.698507309E0,-7.797012806E0,-3.014956415E-1
8.702302392E1,6.119643688E0,-6.042475224E0,-2.480758905E0
8.752302392E1,4.089931965E0,-7.658228874E0,4.211367965E-1
8.802302392E1,3.592225075E0,-4.481158733E0,-5.224130154E0
8.852302392E1,4.152743816E0,-5.961717606E0,7.591229677E-1
8.902302392E1,3.480958700E0,-4.969294548E0,-3.381656647E0
8.952302392E1,2.042274237E0,-7.057032108E0,-1.517049551E0
9.002302392E1,2.806182861E0,-6.706483841E0,-2.076970100E0
9.052302392E1,3.265006542E0,-8.995817184E0,-8.913264275E-1
9.102302392E1,3.372085333E0,-9.162715912E0,-3.708875179E-2
9.152302392E1,5.742774159E-2,-1.292602825E1,2.403590441E0
9.202302392E1,4.871787071E0,-1.119182968E1,-6.161518097E-1
9.252302392E1,3.512663603E0,-1.162313557E1,5.084748268E-1
9.302302392E1,9.433703423E0,-9.433703423E0,-3.228515863E0
9.352302392E1,7.272984505E0,-9.651450157E0,-1.794617064E-2
9.402302392E1,8.458029747E0,-9.623932838E0,-5.377869010E-1
9.452302392E1,5.328217983E0,-6.302694798E0,-3.186043262E0
9.502302392E1,4.476373196E0,-6.860820770E0,6.909275651E-1
9.552302392E1,4.494917393E0,-4.717449665E0,-3.479164124E0
9.602302392E1,3.479164124E0,-7.481160164E0,-1.625923038E0
9.652302392E1,4.609772682E0,-5.016552448E0,-3.909872293E0
9.702302392E1,2.681157827E0,-8.668000221E0,-1.170688510E0
9.752302392E1,4.493721008E0,-6.623332977E0,-2.737389088E0
9.802302392E1,2.668595552E0,-9.009575844E0,-3.083750248E0
9.852302392E1,5.175076962E0,-1.003071213E1,-4.707878530E-1
9.902302392E1,2.977867842E0,-8.558527946E0,-1.255633712E0
9.952302392E1,5.665007591E0,-9.448060036E0,-2.787638307E-1
1.000230239E2,3.382254839E0,-1.053021431E1,-1.568495274E0
1.005230239E2,8.658429146E0,-1.142453194E1,-1.580459356E0
1.010230239E2,4.669593334E0,-1.072163963E1,-1.214357495E0
1.015230239E2,1.071685410E1,-1.072941685E1,6.765705943E-1
1.020230239E2,5.328217983E0,-1.062592697E1,-2.102094650E0
1.025230239E2,9.760921478E0,-9.408578873E0,-4.366302967E0
1.030230239E2,5.444269657E0,-1.190070343E1,-5.611169338E-1
1.035230239E2,6.455835342E0,-1.109910774E1,-3.080759048E-1
1.040230239E2,6.863811970E0,-9.431310654E0,-1.781456470E0
1.045230239E2,6.343971252E0,-9.253643036E0,4.899304509E-1
1.050230239E2,7.643871784E0,-7.057630539E0,-2.228316069E0
1.055230239E2,4.894518852E0,-9.174081802E0,2.041675806E0
1.060230239E2,6.430710793E0,-5.147559643E0,-3.945166349E0
1.065230239E2,4.861019135E0,-8.395816803E0,2.324028969E0
1.070230239E2,4.530211449E0,-5.216353416E0,-3.944568157E0
1.075230239E2,1.395613790E0,-6.296114445E0,-4.001995921E-1
1.080230239E2,3.064607620E0,-9.207581520E0,-7.052844763E-1
1.085230239E2,3.113660574E0,-8.801998138E0,1.808973908E0
1.090230239E2,3.912863255E0,-7.132406235E0,-2.153540403E-1
1.095230239E2,2.776870728E0,-8.730812073E0,-6.843472719E-1
1.100230239E2,3.617947817E0,-1.022871876E1,1.471585929E-1
1.105230239E2,3.343371391E0,-1.187139130E1,5.425725579E-1
1.110230239E2,5.609972477E0,-1.268973637E1,3.349951655E-2
1.115230239E2,3.915854216E0,-1.219083309E1,-3.912265003E-1
1.120230239E2,7.114459991E0,-1.299123192E1,7.956135273E-2
1.125230239E2,4.635495663E0,-1.239781189E1,-1.549352646E0
1.130230239E2,9.496515274E0,-1.106800079E1,-2.113460541E0
1.135230239E2,3.796213150E0,-1.131206894E1,-2.796611547E0
1.140230239E2,1.002473068E1,-9.922437668E0,-4.411168575E0
1.145230239E2,5.922834396E0,-9.566504478E0,-5.694918036E-1
1.150230239E2,9.228518486E0,-1.017787075E1,-1.590030670E0
1.155230239E2,8.727820396E0,-5.562116146E0,-3.812364578E0
1.160230239E2,6.044270039E0,-8.645866394E0,1.287338614E0
1.165230239E2,6.457630157E0,-3.707080364E0,-6.256034851E0
1.170230239E2,5.199005604E0,-6.665207386E0,4.187439755E-2
1.175230239E2,5.088935375E0,-4.524229527E0,-5.184648514E0
1.180230239E2,3.622733593E0,-6.460621357E0,-6.951149702E-1
1.185230239E2,3.725026608E0,-5.252843857E0,-3.932005882E0
1.190230239E2,2.684746981E0,-6.069993019E0,-4.426721856E-2
1.195230239E2,3.855435371E0,-4.923232555E0,-4.919643402E0
1.200230239E2,2.983251572E0,-5.994618893E0,-8.392825127E-1
1.205230239E2,3.122035265E0,-4.876572609E0,-3.370888948E0
1.210230239E2,2.203191519E0,-6.875177860E0,-1.601994753E0
1.215230239E2,2.989233732E0,-6.069394588E0,-1.959123492E0
1.220230239E2,2.574677229E0,-6.841678143E0,-1.869990945E0
1.225230239E2,3.340380430E0,-6.256034851E0,-2.093121529E0
1.230230239E2,1.661815286E0,-8.339585304E0,-2.070987940E0
1.235230239E2,2.849253654E0,-8.924032211E0,-6.580262631E-2
1.240230239E2,2.849253654E0,-1.001037312E1,-2.008774519E0
1.245230239E2,6.265605927E0,-9.985847473E0,-8.548358679E-1
1.250230239E2,3.632304668E0,-9.639486313E0,-1.624128342E0
1.255230239E2,6.501897335E0,-1.192702484E1,-5.102694035E-1
1.260230239E2,2.385046005E0,-1.152503014E1,-3.176472187E-1
1.265230239E2,6.866204739E0,-1.135633659E1,-1.183250785E0
1.270230239E2,3.021536827E0,-1.069113159E1,-7.495517135E-1
1.275230239E2,8.502895355E0,-1.270708466E1,-9.032905698E-1
1.280230239E2,3.116651535E0,-1.106142044E1,-3.018545866E0
1.285230239E2,8.888737679E0,-1.169731331E1,-3.915854216E0
1.290230239E2,5.721837044E0,-1.235653591E1,-1.091127157E0
1.295230239E2,9.081958771E0,-8.684749603E0,-3.549752474E0
1.300230239E2,7.186842918E0,-9.643074989E0,-1.645065546E-1
1.305230239E2,8.143373489E0,-8.492725372E0,-2.106880426E0
1.310230239E2,5.008776188E0,-9.598209381E0,-3.201596737E0
1.315230239E2,4.509872437E0,-8.176873207E0,-1.043270707E0
1.320230239E2,3.480360508E0,-5.841478348E0,-4.340580463E0
1.325230239E2,2.960519791E0,-7.165307522E0,-2.501696110E0
1.330230239E2,3.466003656E0,-4.462016106E0,-4.905286312E0
1.335230239E2,9.110672474E-1,-7.593622684E0,-1.305284739E0
1.340230239E2,4.504488468E0,-5.985645771E0,-1.789831281E0
1.345230239E2,1.202991605E0,-8.690732002E0,-1.729412556E0
1.350230239E2,5.246263504E0,-5.238486767E0,-2.487339020E0
1.355230239E2,1.999203324E0,-8.672785759E0,-2.338385820E0
1.360230239E2,5.739185333E0,-1.049372387E1,5.964110494E-1
1.365230239E2,2.041675806E0,-1.060319519E1,-3.192025423E0
1.370230239E2,7.610372543E0,-1.079342461E1,-4.007977992E-2
1.375230239E2,2.997608662E0,-1.082812023E1,-2.206182480E0
1.380230239E2,6.681957245E0,-1.129053402E1,3.302095234E-1
1.385230239E2,3.892524242E0,-1.099262714E1,-2.106880426E0
1.390230239E2,1.067019463E1,-1.049791145E1,-1.606182218E0
1.395230239E2,4.198805332E0,-1.234337521E1,-1.694118381E0
1.400230239E2,1.113260746E1,-9.297312737E0,-1.487139225E0
1.405230239E2,5.410770416E0,-1.379581928E1,-1.891526341E0
1.410230239E2,7.277172089E0,-9.885348320E0,-7.591229677E-1
1.415230239E2,6.736393929E0,-6.160321712E0,-3.390031576E0
1.420230239E2,3.640081406E0,-6.766902447E0,2.518445849E-1
1.425230239E2,4.029513359E0,-5.219344616E0,-6.265605927E0
1.430230239E2,4.542773724E0,-5.106283665E0,5.246263742E-1
1.435230239E2,4.326223373E0,-4.522434711E0,-3.772284985E0
1.440230239E2,3.735794306E0,-6.809973240E0,-1.592423439E0
1.445230239E2,3.865604877E0,-5.858826160E0,-3.413361549E0
1.450230239E2,4.047459602E0,-7.414160728E0,-2.110469580E0
1.455230239E2,2.997010469E0,-7.823333740E0,-1.476969719E0
1.460230239E2,2.606980324E0,-9.099306107E0,-2.233700037E0
1.465230239E2,6.505486488E0,-9.038289070E0,-2.470589429E-1
1.470230239E2,3.169891834E0,-1.065464115E1,-1.311266780E0
1.475230239E2,5.996413708E0,-1.116670513E1,1.369891018E-1
1.480230239E2,2.142174482E0,-1.123490047E1,-1.743171334E0
1.485230239E2,6.757331371E0,-1.137906837E1,3.361915946E-1
1.490230239E2,1.246062398E0,-1.350688553E1,9.714859724E-1
1.495230239E2,5.198407173E0,-1.001934624E1,6.807580590E-1
1.500230239E2,2.213959217E0,-1.142333508E1,-1.543370634E-1
1.505230239E2,7.021738052E0,-1.077607632E1,-5.276173949E-1
1.510230239E2,4.867001057E0,-1.292483139E1,-7.992027402E-1
1.515230239E2,7.520043373E0,-1.255573845E1,-1.879562140E0
1.520230239E2,3.676572084E0,-1.187438202E1,-7.022934556E-1
1.525230239E2,9.062815666E0,-8.593822479E0,-2.050050735E0
1.530230239E2,6.067001820E0,-9.774082184E0,-1.226321608E-1
1.535230239E2,9.594022751E0,-9.062217712E0,-1.697109461E0
1.540230239E2,7.295117855E0,-8.714659691E0,-9.320043921E-1
1.545230239E2,8.641080856E0,-7.373483181E0,9.870393574E-2
1.550230239E2,6.010770321E0,-6.328417778E0,-3.753740549E0
1.555230239E2,5.855835438E0,-8.711668968E0,-1.357926875E-1
1.560230239E2,5.207978249E0,-6.484549522E0,-4.545166492E0
1.565230239E2,4.364508629E0,-7.917252064E0,1.638485312E0
1.570230239E2,4.668995380E0,-4.344169617E0,-5.573482037E0
1.575230239E2,2.370688915E0,-6.452844620E0,-1.218544960E0
1.580230239E2,3.865604877E0,-4.222733974E0,-4.274777889E0
1.585230239E2,1.249053478E0,-7.775477409E0,-1.639681697E0
1.590230239E2,2.602194548E0,-7.837092400E0,-2.382055044E0
1.595230239E2,3.791427374E0,-8.152944565E0,-3.339184046E0
1.600230239E2,4.865804672E0,-8.206185341E0,-1.290329576E0
1.605230239E2,3.339184046E0,-9.180662155E0,-2.528615236E0
1.610230239E2,5.016552448E0,-8.867800713E0,2.297109663E-1
1.615230239E2,4.328018188E0,-9.164510727E0,-9.170492887E-1
1.620230239E2,4.533800602E0,-9.524630547E0,-8.117650747E-1
1.625230239E2,4.669593334E0,-9.428917885E0,-1.332203984E0
1.630230239E2,4.389633179E0,-1.053679466E1,7.537391037E-2
1.635230239E2,4.274777889E0,-9.915857315E0,-1.261615753E0
1.640230239E2,8.057829857E0,-1.073420238E1,6.855437160E-1
1.645230239E2,4.328018188E0,-1.064207840E1,-8.452646136E-1
1.650230239E2,8.611170769E0,-9.726225853E0,-2.045863420E-1
1.655230239E2,5.139782906E0,-1.068514919E1,-8.482556343E-1
1.660230239E2,9.038887978E0,-1.287817192E1,4.067798555E-1
1.665230239E2,5.318048477E0,-1.192702484E1,3.140579760E-1
1.670230239E2,1.040279675E1,-1.168056393E1,-6.592226624E-1
1.675230239E2,5.844469070E0,-1.064507008E1,-7.178468257E-2
1.680230239E2,8.581858635E0,-1.090648556E1,-1.167697430E0
1.685230239E2,4.171288013E0,-9.585647583E0,-5.347958803E-1
1.690230239E2,7.280761242E0,-1.019342422E1,-4.953142643E0
1.695230239E2,6.422336102E0,-1.080419254E1,1.944168359E-1
1.700230239E2,8.535796165E0,-8.464012146E0,-1.520040631E0
1.705230239E2,6.358926296E0,-7.377670288E0,-5.915057659E0
1.710230239E2,6.462415695E0,-9.679565430E0,6.448656917E-1
1.715230239E2,5.107480049E0,-6.390032768E0,-3.623929977E0
1.720230239E2,3.938585997E0,-7.761120319E0,2.715853751E-1
1.725230239E2,4.255635262E0,-4.193421841E0,-5.693123341E0
1.730230239E2,4.066003799E0,-6.879963398E0,8.979067206E-1
1.735230239E2,4.662415028E0,-5.487938881E0,-4.099503517E0
1.740230239E2,3.806382656E0,-7.121040344E0,1.438684583E0
1.745230239E2,6.320042610E0,-2.840878725E0,-4.256233215E0
1.750230239E2,4.619942188E0,-6.842276573E0,-5.425725579E-1
1.755230239E2,4.661218643E0,-5.246263504E0,-2.717050076E0
1.760230239E2,4.082155228E0,-8.414361000E0,1.992024779E-1
1.765230239E2,4.099503517E0,-4.572085857E0,-3.823730469E0
1.770230239E2,5.413761139E0,-6.716054916E0,8.027920127E-1
1.775230239E2,4.147958279E0,-4.167100430E0,-4.121636868E0
1.780230239E2,3.326023579E0,-7.353742123E0,-1.549352646E0
1.785230239E2,4.856233597E0,-4.945366383E0,-2.632104874E0
1.790230239E2,3.638286829E0,-7.639684677E0,1.241276741E0
1.795230239E2,4.997410297E0,-4.128217220E0,-3.921238184E0
1.800230239E2,2.982653379E0,-7.925028801E0,5.742774606E-1
1.805230239E2,5.566901684E0,-5.151148796E0,-2.207378864E0
1.810230239E2,2.644667149E0,-9.174081802E0,4.707878530E-1
1.815230239E2,3.401397467E0,-5.382654667E0,-4.573282242E0
1.820230239E2,3.965505362E0,-7.481758118E0,1.724028707E0
1.825230239E2,3.836891174E0,-5.213362217E0,-3.841676712E0
1.830230239E2,3.622733593E0,-8.455039024E0,-1.643270969E0
1.835230239E2,4.237090588E0,-5.548357487E0,-3.112463951E0
1.840230239E2,1.822134495E0,-9.562915802E0,-1.951346874E0
1.845230239E2,5.626124382E0,-9.994221687E0,-1.180259824E0
1.850230239E2,3.265006542E0,-1.083290672E1,-8.404789567E-1
1.855230239E2,4.999204636E0,-1.361157131E1,1.030708313E0
1.860230239E2,1.984248161E0,-1.200897884E1,-1.502692580E0
1.865230239E2,8.170292854E0,-9.208778381E0,4.366901219E-1
1.870230239E2,1.923829436E0,-1.145862961E1,-1.800599098E-1
1.875230239E2,1.007497978E1,-7.800601959E0,-2.523231506E0
1.880230239E2,5.717051506E0,-9.713065147E0,-1.737189293E0
1.885230239E2,8.365307808E0,-9.852447510E0,-6.687939167E-1
1.890230239E2,6.361319065E0,-9.091529846E0,-5.401797295E0
1.895230239E2,2.788236618E0,-8.293522835E0,-1.424327731E0
1.900230239E2,4.525425911E0,-4.595416069E0,-4.171886444E0
1.905230239E2,3.412165165E0,-6.304489613E0,-1.561316848E-1
1.910230239E2,1.596610904E0,-6.602993965E0,-2.085345030E0
1.915230239E2,3.032902718E0,-7.275975227E0,2.183450609E-1
1.920230239E2,2.123630047E0,-6.988836765E0,-1.496710539E0
1.925230239E2,1.461416483E0,-7.831110477E0,-1.176072359E0
1.930230239E2,3.212962627E0,-8.035098076E0,-1.064207911E0
1.935230239E2,4.526023865E0,-1.002891827E1,-1.017547846E0
1.940230239E2,5.989833355E0,-1.018744278E1,-1.130608693E-1
1.945230239E2,4.224528313E0,-1.042971611E1,-2.551945448E0
1.950230239E2,7.542177200E0,-1.029392338E1,-7.848458290E-1
1.955230239E2,2.383251429E0,-1.142692471E1,6.969096065E-1
1.960230239E2,7.919046402E0,-1.036929703E1,-1.861616015E0
1.965230239E2,5.620141983E0,-1.263589859E1,1.375873089E-1
1.970230239E2,7.586444378E0,-1.139940739E1,1.060618639E0
1.975230239E2,5.425725460E0,-1.042134094E1,-1.141974568E0
1.980230239E2,7.325626373E0,-1.073240757E1,-2.724228621E0
1.985230239E2,6.419344902E0,-1.035793114E1,-1.174277663E0
1.990230239E2,7.609176159E0,-9.347561836E0,-2.378465652E0
1.995230239E2,5.811567783E0,-1.018026352E1,-2.246262312E0
2.000230239E2,7.816753387E0,-7.557730198E0,-3.026322365E0
2.005230239E2,6.243472576E0,-6.631109715E0,-3.150749207E0
2.010230239E2,4.725226402E0,-8.733802795E0,-5.563312769E-1
2.015230239E2,4.998008251E0,-5.385645390E0,-3.461816072E0
2.020230239E2,2.383251429E0,-9.352347374E0,-1.111466169E0
2.025230239E2,3.833301783E0,-6.189633846E0,-4.585844517E0
2.030230239E2,1.523031592E0,-7.587042332E0,-7.788637877E-1
2.035230239E2,2.295913219E0,-4.705485821E0,-3.342175007E0
2.040230239E2,8.883354068E-1,-7.478168964E0,-3.954139352E-1
2.045230239E2,2.879761934E0,-4.935196877E0,-2.830111027E0
2.050230239E2,2.234896421E0,-7.669594765E0,-1.150349498E0
2.055230239E2,3.101098061E0,-8.377870560E0,-1.281356573E0
2.060230239E2,2.729612350E0,-8.583653450E0,1.435693651E-1
2.065230239E2,3.755535126E0,-8.039883614E0,2.279163599E-1
2.070230239E2,2.169093609E0,-8.455039024E0,-1.263410330E0
2.075230239E2,3.691527128E0,-8.267800331E0,-3.415754437E-1
2.080230239E2,3.499503136E0,-8.555537224E0,-1.134197950E0
2.085230239E2,3.547957659E0,-1.155912781E1,8.913264424E-2
2.090230239E2,3.576073408E0,-1.028913784E1,-2.224128723E0
2.095230239E2,5.550152302E0,-1.072642612E1,1.494317770E0
2.100230239E2,2.977867842E0,-9.654440880E0,-2.360519648E0
2.105230239E2,1.014437199E1,-8.286943436E0,-3.672982752E-1
2.110230239E2,5.739783287E0,-1.017308521E1,-1.789831281E0
2.115230239E2,8.435297966E0,-6.489335060E0,-1.829911113E0
2.120230239E2,6.212964058E0,-8.243872643E0,-1.978266120E0
2.125230239E2,1.054636574E1,-7.095317364E0,-2.858226538E0
2.130230239E2,5.204987526E0,-1.001276588E1,-1.400997639E0
2.135230239E2,8.647661209E0,-7.038487911E0,-4.630111754E-1
2.140230239E2,5.947360516E0,-6.149554253E0,-2.986242771E0
2.145230239E2,6.720242500E0,-7.618747234E0,1.841277003E0
2.150230239E2,5.815755367E0,-5.462215900E0,-4.543372154E0
2.155230239E2,5.767899036E0,-7.531409264E0,1.140778184E0
2.160230239E2,4.839483738E0,-5.221138954E0,-6.119045734E0
2.165230239E2,4.756931305E0,-7.406384468E0,9.535398483E-1
2.170230239E2,5.031507969E0,-4.643272400E0,-3.765106440E0
2.175230239E2,4.237090588E0,-7.266404152E0,1.001994491E0
2.180230239E2,6.007181168E0,-5.139782906E0,-2.240878344E0
2.185230239E2,3.937389612E0,-6.064609051E0,-1.446461320E0
2.190230239E2,4.896911621E0,-5.635695457E0,-2.913261652E0
2.195230239E2,3.634099483E0,-7.087540627E0,-1.980060697E0
2.200230239E2,3.002394199E0,-5.176871777E0,-2.477169752E0
2.205230239E2,3.187239647E0,-7.601399422E0,-1.606182218E0
2.210230239E2,2.344966173E0,-7.232904434E0,-1.829312921E0
2.215230239E2,2.669193745E0,-7.735397339E0,-2.391626120E0
2.220230239E2,7.657032609E-1,-1.004865837E1,5.778666735E-1
2.225230239E2,-4.606183469E-1,-9.632308006E0,-5.252245665E-1
2.230230239E2,3.793820381E0,-9.132805824E0,-9.092725813E-2
2.235230239E2,3.152543783E0,-9.429515839E0,-1.686939895E-1
2.240230239E2,6.972685337E0,-1.022991467E1,-1.406979680E0
2.245230239E2,2.636890650E0,-9.901499748E0,-2.207378864E0
2.250230239E2,5.718846321E0,-1.014915752E1,-7.836493850E-2
2.255230239E2,2.020738840E0,-1.113320541E1,-7.022934556E-1
2.260230239E2,1.072104168E1,-1.439881039E1,1.130608693E-1
2.265230239E2,4.481158733E0,-1.162552929E1,-3.075375319E0
2.270230239E2,6.267400742E0,-9.742377281E0,1.015753269E0
2.275230239E2,3.314059377E-1,-1.310309696E1,-3.104089260E0
2.280230239E2,8.483154297E0,-1.139940739E1,-6.879365444E-2
2.285230239E2,2.002194405E0,-1.143589783E1,-3.123830080E0
2.290230239E2,1.045783138E1,-8.761320114E0,-3.485146284E0
2.295230239E2,4.911866665E0,-1.025683403E1,-4.449453831E0
2.300230239E2,1.140538883E1,-8.856434822E0,-2.150549412E0
2.305230239E2,4.076173306E0,-1.077069283E1,-2.228914261E0
2.310230239E2,1.001037312E1,-8.870791435E0,-2.898306370E0
2.315230239E2,4.840082169E0,-9.787840843E0,-1.138983607E0
2.320230239E2,7.845467091E0,-8.821739197E0,-1.816750646E0
2.325230239E2,6.991827965E0,-8.218149185E0,-4.835296154E0
2.330230239E2,4.036093712E0,-1.044048309E1,-1.702493310E0
2.335230239E2,6.348756790E0,-5.242076397E0,-4.927420139E0
2.340230239E2,6.548557281E0,-6.367899418E0,2.204387903E0
2.345230239E2,4.567300320E0,-6.009573936E0,-2.506481647E0
2.350230239E2,4.113860130E0,-5.356333256E0,1.519442350E-1
2.355230239E2,6.093921185E0,-4.844867706E0,-2.142174482E0
2.360230239E2,4.465006828E0,-7.214958668E0,1.068993568E0
2.365230239E2,4.130012035E0,-5.619544029E0,-2.756531715E0
2.370230239E2,1.446461320E0,-9.148359299E0,-6.281159520E-1
2.375230239E2,1.692921996E0,-8.133802414E0,-1.903490424E0
2.380230239E2,1.801197290E0,-9.530014038E0,-1.989033818E0
2.385230239E2,1.375274777E0,-9.165707588E0,-1.786242127E0
2.390230239E2,3.967299938E0,-1.025743294E1,-5.437689424E-1
2.395230239E2,3.681955814E0,-1.238883877E1,2.401197433E0
2.400230239E2,3.276970625E0,-1.009950638E1,-1.529611826E0
2.405230239E2,5.700900078E0,-1.441436386E1,1.302891970E0
2.410230239E2,3.373879910E0,-1.057328510E1,-1.501496196E0
2.415230239E2,7.098308563E0,-1.307797241E1,8.422735929E-1
2.420230239E2,4.049852371E0,-1.078385353E1,-2.045863420E-1
2.425230239E2,8.786444664E0,-1.145563793E1,-2.787638307E-1
2.430230239E2,4.088137627E0,-1.136590767E1,-1.884347796E-1
2.435230239E2,7.454838753E0,-1.162074280E1,7.782655358E-1
2.440230239E2,6.323632240E0,-1.059661484E1,5.563312769E-1
2.445230239E2,1.019701385E1,-9.455238342E0,-6.825526357E-1
2.450230239E2,4.281357765E0,-1.087777138E1,1.208375469E-1
2.455230239E2,1.013599682E1,-1.001037312E1,-6.717849374E-1
2.460230239E2,1.639681697E0,-1.109611702E1,4.307080805E-2
2.465230239E2,1.030827999E1,-9.806983948E0,-2.463410854E0
2.470230239E2,4.834698200E0,-1.192881870E1,-4.917250574E-1
2.475230239E2,9.300303459E0,-7.115057945E0,-4.092923164E0
2.480230239E2,7.555337429E0,-1.134497070E1,-2.105683982E-1
2.485230239E2,8.712865829E0,-7.411170006E0,-4.691128731E0
2.490230239E2,6.658029079E0,-1.162612724E1,-3.732803464E-1
2.495230239E2,9.549157143E0,-6.923034191E0,-2.709871531E0
2.500230239E2,6.167500496E0,-9.504291534E0,-9.954141974E-1
2.505230239E2,9.270991325E0,-8.165507317E0,-2.179263115E0
2.510230239E2,5.745765209E0,-1.185105228E1,-8.673982024E-1
2.515230239E2,1.042134094E1,-1.034058285E1,-2.700898647E0
2.520230239E2,9.979267120E0,-1.076770210E1,-1.702493310E0
2.525230239E2,8.126026154E0,-9.608379364E0,-1.590030670E0
2.530230239E2,7.521239758E0,-7.330412388E0,-4.032504559E0
2.535230239E2,7.135396957E0,-8.614161491E0,-8.949156404E-1
2.540230239E2,6.246463299E0,-1.017308521E1,-1.852044702E0
2.545230239E2,7.540980339E0,-9.805787086E0,-8.518448472E-1
2.550230239E2,7.676175117E0,-9.306285858E0,-1.667199135E0
2.555230239E2,6.879963398E0,-8.675178528E0,-2.834896564E0
2.560230239E2,7.146762848E0,-9.677771568E0,-1.079761267E0
2.565230239E2,8.565108299E0,-8.894720078E0,-1.427318692E0
2.570230239E2,6.543173313E0,-9.987641335E0,-1.416550994E0
2.575230239E2,5.875576019E0,-8.716454506E0,-3.098705411E-1
2.580230239E2,5.965905190E0,-6.699903488E0,-3.157329559E0
2.585230239E2,3.982853174E0,-8.240880966E0,1.366899967E0
2.590230239E2,5.731408596E0,-5.467001438E0,-3.338585854E0
2.595230239E2,5.554937840E0,-7.895118237E0,9.032905698E-1
2.600230239E2,5.371288776E0,-5.621936798E0,-2.676372051E0
2.605230239E2,2.608176708E0,-1.023051357E1,5.156532526E-1
2.610230239E2,4.878366947E0,-7.730611801E0,-1.687538147E0
2.615230239E2,2.534597397E0,-9.774082184E0,-9.212367237E-2
2.620230239E2,5.452644825E0,-6.988238335E0,-1.789831281E0
2.625230239E2,3.107080221E0,-1.021854877E1,-7.627122402E-1
2.630230239E2,4.144368649E0,-9.111868858E0,-1.215553880E0
2.635230239E2,1.713261008E0,-1.120798111E1,-2.916252613E0
2.640230239E2,6.263213158E0,-9.807581902E0,1.711466432E0
2.645230239E2,3.815355778E0,-1.031186962E1,-1.252642632E0
2.650230239E2,5.898906231E0,-1.146760273E1,-1.103689432E0
2.655230239E2,2.487339020E0,-1.029033375E1,-3.071187973E0
2.660230239E2,7.152745247E0,-1.150110245E1,2.919243574E-1
2.665230239E2,4.058227062E0,-9.469595909E0,-2.300698996E0
2.670230239E2,9.345169067E0,-1.025743294E1,5.371887088E-1
2.675230239E2,4.825126648E0,-9.973284721E0,-1.022931695E0
2.680230239E2,8.044670105E0,-1.020957565E1,-2.213360965E-1
2.685230239E2,5.105087280E0,-1.130967617E1,-1.806581169E-1
2.690230239E2,7.848458290E0,-9.363713264E0,-1.788036704E0
2.695230239E2,6.395416737E0,-1.180738354E1,-3.782454491E0
2.700230239E2,5.308476925E0,-1.061815071E1,-1.731207132E0
2.705230239E2,2.554338217E0,-1.332503128E1,-1.164108157E0
2.710230239E2,5.210371494E0,-1.220937729E1,-1.999203324E0
2.715230239E2,5.124229908E0,-1.148435211E1,4.642075896E-1
2.720230239E2,9.306883812E0,-1.109192944E1,-1.045065284E0
2.725230239E2,5.808577061E0,-1.232961655E1,-2.045863420E-1
2.730230239E2,9.723235130E0,-9.610772133E0,-1.242473125E0
2.735230239E2,6.193821430E0,-1.037408257E1,-1.998006850E-1
2.740230239E2,9.885348320E0,-8.915657043E0,-1.558325768E0
2.745230239E2,4.849055290E0,-1.114098263E1,-3.649054468E-1
2.750230239E2,8.060222626E0,-8.995817184E0,-2.611167669E0
2.755230239E2,4.855635166E0,-1.055414295E1,-1.926820397E0
2.760230239E2,7.362117290E0,-1.062592697E1,-4.139583111E0
2.765230239E2,5.809773445E0,-1.195155048E1,-4.430311203E0
2.770230239E2,6.883552551E0,-8.201399803E0,-3.911068678E0
2.775230239E2,1.034656525E1,-6.131608009E0,-2.842673302E0
2.780230239E2,7.004390240E0,-8.184649467E0,-1.676172256E0
2.785230239E2,5.832505226E0,-6.658029079E0,-4.808377266E0
2.790230239E2,6.305685997E0,-8.455039024E0,1.070788145E0
2.795230239E2,5.237290382E0,-4.986642361E0,-5.222933769E0
2.800230239E2,3.751945972E0,-7.289734364E0,-7.334001660E-1
2.805230239E2,3.348755360E0,-5.434698582E0,-7.416553974E0
2.810230239E2,3.824927092E0,-7.506882668E0,1.260419369E0
2.815230239E2,4.615156651E0,-4.645665169E0,-3.729812384E0
2.820230239E2,2.499901533E0,-8.053044319E0,1.175474167E0
2.825230239E2,3.767499208E0,-4.764708042E0,-2.681756020E0
2.830230239E2,3.209971666E0,-7.519444942E0,7.848458290E-1
2.835230239E2,3.652643681E0,-4.731208801E0,-3.336791277E0
2.840230239E2,1.391426325E0,-7.022336483E0,4.785645287E-3
2.845230239E2,3.318246841E0,-5.900700569E0,-2.982653379E0
2.850230239E2,1.640279889E0,-7.319046497E0,-9.475577474E-1
2.855230239E2,1.928615093E0,-5.520840168E0,-2.016551256E0
2.860230239E2,2.697309256E0,-7.001399040E0,-4.390829504E-1
2.865230239E2,1.448255897E0,-8.148757935E0,-1.025324464E0
2.870230239E2,1.604985833E0,-8.489734650E0,-6.137589812E-1
2.875230239E2,1.587637782E0,-8.551948547E0,-1.958525300E0
2.880230239E2,1.712064624E0,-8.401798248E0,-1.951346874E0
2.885230239E2,1.416550994E0,-9.527023315E0,-9.272187948E-1
2.890230239E2,3.335594654E0,-9.584450722E0,-1.981257200E0
2.895230239E2,4.484149456E0,-1.038604641E1,-9.846464992E-1
2.900230239E2,2.976671457E0,-8.796015739E0,-2.749951363E0
2.905230239E2,3.909872293E0,-9.369096756E0,-9.876375198E-1
2.910230239E2,3.738785267E0,-1.087178993E1,-1.317847013E0
2.915230239E2,6.144768715E0,-1.119482040E1,-8.039883971E-1
2.920230239E2,5.631507874E0,-1.127378368E1,-1.175474167E0
2.925230239E2,5.915057659E0,-1.191924763E1,-1.970489502E0
2.930230239E2,3.811168194E0,-1.242951679E1,-8.458628058E-1
2.935230239E2,7.582256794E0,-1.306780243E1,-2.711666346E0
2.940230239E2,3.049652576E0,-1.155852985E1,-3.457628787E-1
2.945230239E2,7.239484787E0,-1.106620693E1,-1.932204247E0
2.950230239E2,2.443670034E0,-1.192582798E1,-6.472585201E-1
2.955230239E2,7.536194801E0,-1.074018478E1,-1.934597135E0
2.960230239E2,3.687937975E0,-1.020000458E1,-1.178465128E0
2.965230239E2,7.464410305E0,-9.823733330E0,-1.597209096E0
2.970230239E2,3.734597921E0,-1.094955635E1,6.221338734E-2
2.975230239E2,8.301898003E0,-8.048258781E0,-2.595016241E0
2.980230239E2,5.416153908E0,-1.154656601E1,-8.165507317E-1
2.985230239E2,9.057432175E0,-9.837491989E0,-3.326023579E0
2.990230239E2,7.613961697E0,-8.748159409E0,-9.523434043E-1
2.995230239E2,5.510072231E0,-7.755736351E0,-1.357926846E0
3.000230239E2,5.790630817E0,-6.372684956E0,-2.470589399E0
3.005230239E2,4.719842434E0,-7.700103283E0,4.019941986E-1
3.010230239E2,5.660222054E0,-6.612565517E0,-2.116451740E0
3.015230239E2,3.117249727E0,-8.741579056E0,7.962117195E-1
3.020230239E2,2.572882652E0,-6.526423931E0,-3.455235958E0
3.025230239E2,2.327020019E-1,-6.197410583E0,-1.209571838E0
3.030230239E2,1.707278967E0,-6.742974281E0,-2.452643216E-1
3.035230239E2,2.458027124E0,-5.950351715E0,2.362912297E-1
3.040230239E2,2.690729141E0,-5.478367329E0,-2.886940479E0
3.045230239E2,2.391027927E0,-7.185048103E0,-2.165504545E-1
3.050230239E2,2.137388945E0,-7.344171047E0,-1.865205288E0
3.055230239E2,1.826321840E0,-7.296912670E0,-5.312066078E-1
3.060230239E2,1.518844128E0,-7.274180889E0,-3.377469063E0
3.065230239E2,7.591229677E-1,-8.178668022E0,-2.361117840E0
3.070230239E2,7.591229677E-1,-8.730213165E0,-1.398604870E0
3.075230239E2,1.649851203E0,-9.182456970E0,-2.130808592E0
3.080230239E2,1.945963025E0,-1.160638618E1,-2.105684042E0
3.085230239E2,2.700300455E0,-9.330213547E0,-2.289333105E0
3.090230239E2,3.963710785E0,-1.079043388E1,-1.597209126E-1
3.095230239E2,3.274577856E0,-1.056371403E1,2.793620527E-1
3.100230239E2,6.937989235E0,-1.142991543E1,-1.357328653E0
3.105230239E2,4.073780537E0,-1.192582798E1,-8.488538265E-1
3.110230239E2,7.124629498E0,-1.163988590E1,-4.037888348E-1
3.115230239E2,3.812962770E0,-1.226202011E1,-2.051845312E0
3.120230239E2,8.847461700E0,-1.155733299E1,-1.329213023E0
3.125230239E2,3.335594654E0,-1.098963642E1,-1.639681697E0
3.130230239E2,9.630513191E0,-8.035098076E0,-1.324427366E0
3.135230239E2,4.717449665E0,-1.001635551E1,-1.104287624E0
3.140230239E2,9.239884377E0,-8.518448830E0,-2.592025042E0
3.145230239E2,6.811768055E0,-9.266205788E0,-5.694918036E-1
3.150230239E2,4.526023865E0,-9.154939651E0,-1.946561217E0
3.155230239E2,4.744369030E0,-7.446464062E0,-3.393022537E0
3.160230239E2,4.287938118E0,-8.314460754E0,7.304090858E-1
3.165230239E2,4.270590305E0,-5.117649555E0,-4.701298237E0
3.170230239E2,3.603590965E0,-7.189833641E0,9.314061999E-1
3.175230239E2,2.759522676E0,-3.844069481E0,-2.051845312E0
3.180230239E2,1.305284739E0,-8.614161491E0,1.800599098E-1
3.185230239E2,1.359123230E0,-8.224729538E0,-1.194616675E0
3.190230239E2,2.577668190E0,-8.592027664E0,-1.124626637E0
3.195230239E2,2.240878344E0,-8.023732185E0,-1.188634634E0
3.200230239E2,3.645465374E0,-9.593423843E0,-1.523629785E0
3.205230239E2,2.446661234E0,-1.102971554E1,-4.941178858E-1
3.210230239E2,4.235296249E0,-1.085743237E1,-2.163111687E0
3.215230239E2,4.515854359E0,-1.276511097E1,3.320041299E-1
3.220230239E2,4.088735580E0,-9.506086349E0,-2.593819857E0
3.225230239E2,4.809573650E0,-1.365823174E1,-6.544370055E-1
3.230230239E2,5.015356064E0,-1.129412270E1,-2.890529871E0
3.235230239E2,7.298109055E0,-1.155254745E1,-1.567298770E-1
3.240230239E2,4.388436794E0,-1.153819084E1,-6.299105883E-1
3.245230239E2,8.411369324E0,-1.352901936E1,-1.004985496E-1
3.250230239E2,5.514857769E0,-1.141496086E1,-2.691925466E-1
3.255230239E2,8.754141808E0,-1.134078312E1,-1.907677889E0
3.260230239E2,4.973481655E0,-1.182832050E1,6.987041831E-1
3.265230239E2,7.088737011E0,-1.116790104E1,-1.153340459E0
3.270230239E2,4.530211449E0,-1.073779202E1,-1.259821177E0
3.275230239E2,7.299305439E0,-1.004806042E1,-3.236890793E0
3.280230239E2,6.508477688E0,-9.344570160E0,-1.533201098E0
3.285230239E2,7.634300709E0,-9.695717812E0,-2.922832966E0
3.290230239E2,5.723631859E0,-9.966704369E0,-3.226721287E0
3.295230239E2,9.491130829E0,-7.127620220E0,-4.758127689E0
3.300230239E2,6.409175396E0,-9.253643036E0,-3.339184046E0
3.305230239E2,8.076375008E0,-9.269794464E0,-2.391626120E0
3.310230239E2,6.481558323E0,-7.580461979E0,-3.539582968E0
3.315230239E2,5.995217323E0,-8.004590034E0,-1.045065284E0
3.320230239E2,4.858626366E0,-6.407979012E0,-4.098307133E0
3.325230239E2,4.801198483E0,-7.529614449E0,-5.407779217E-1
3.330230239E2,4.375874519E0,-5.855835438E0,-4.240081787E0
3.335230239E2,4.658227444E0,-7.261020184E0,1.850848317E0
3.340230239E2,4.413561344E0,-5.209773064E0,-3.452244759E0
3.345230239E2,5.060221672E0,-5.959922791E0,4.749752879E-1
3.350230239E2,4.664209366E0,-4.923232555E0,-3.485146284E0
3.355230239E2,3.592823267E0,-6.973881721E0,2.204387903E0
3.360230239E2,4.270590305E0,-5.901896954E0,-2.264806747E0
3.365230239E2,3.027518749E0,-7.545766354E0,8.985049129E-1
3.370230239E2,3.410968781E0,-5.334199905E0,-1.995614052E0
3.375230239E2,2.874976397E0,-7.942974567E0,2.410768867E-1
3.380230239E2,3.093321562E0,-6.782455921E0,-1.836491346E0
3.385230239E2,3.357728481E0,-8.982656479E0,1.734796464E-1
3.390230239E2,2.542972326E0,-7.043273449E0,-2.166102648E0
3.395230239E2,2.974876642E0,-9.361918449E0,9.774680734E-1
3.400230239E2,1.284347534E0,-7.984251022E0,-7.160521746E-1
3.405230239E2,2.562114954E0,-9.765707016E0,7.932206988E-1
3.410230239E2,2.382055044E0,-8.543573380E0,-9.379864931E-1
3.415230239E2,2.758326292E0,-9.859625816E0,7.674978375E-1
3.420230239E2,3.568296671E0,-7.600800991E0,-1.161117196E0
3.425230239E2,2.050050735E0,-1.008933640E1,-1.663011760E-1
3.430230239E2,2.915654421E0,-7.435098171E0,-1.700100541E0
3.435230239E2,1.701895118E0,-8.601598740E0,1.615155339E-1
3.440230239E2,3.118446112E0,-7.807182312E0,-2.346162558E0
3.445230239E2,2.026122570E0,-9.604789734E0,-1.247856975E0
3.450230239E2,2.268395901E0,-8.017750740E0,-1.099501967E0
3.455230239E2,1.668395638E0,-9.622138023E0,-7.788637877E-1
3.460230239E2,1.871187329E0,-1.015334511E1,-1.561316848E-1
3.465230239E2,1.850250125E0,-8.410173416E0,-8.386843204E-1
3.470230239E2,3.336791277E0,-9.292527199E0,6.340979785E-2
3.475230239E2,1.692921996E0,-9.486943245E0,-1.324427366E0
3.480230239E2,4.147958279E0,-9.199805260E0,6.376872063E-1
3.485230239E2,2.008176327E0,-1.033998489E1,-1.112662554E-1
3.490230239E2,4.227519512E0,-1.109970570E1,9.026923180E-1
3.495230239E2,3.128017426E0,-9.612566948E0,-4.719842672E-1
3.500230239E2,4.015156269E0,-1.007856941E1,4.869394004E-1
3.505230239E2,3.836891174E0,-8.955737114E0,-2.967100143E-1
3.510230239E2,4.253242016E0,-9.763913155E0,5.742774159E-2
3.515230239E2,2.397608280E0,-9.700503349E0,-3.146561682E-1
3.520230239E2,6.669394970E0,-1.211845016E1,2.057827413E-1
3.525230239E2,3.366103172E0,-1.009591675E1,-8.530412912E-1
3.530230239E2,6.353542328E0,-1.042433167E1,-2.075773627E-1
3.535230239E2,3.000599623E0,-1.146162033E1,-1.056431174E0
3.540230239E2,6.457031727E0,-9.934999466E0,-1.674975902E-1
3.545230239E2,3.293720484E0,-9.804591179E0,-8.488538265E-1
3.550230239E2,3.424727440E0,-1.170867920E1,3.828516230E-2
3.555230239E2,2.231905222E0,-1.098664474E1,-1.057627559E0
3.560230239E2,7.637889862E0,-1.033340454E1,4.390829504E-1
3.565230239E2,2.398804665E0,-1.000199890E1,1.279561877E0
3.570230239E2,5.642275810E0,-1.229432297E1,1.421336651E0
3.575230239E2,2.461018085E0,-1.138385391E1,3.744767308E-1
3.580230239E2,6.441478729E0,-1.165005493E1,-2.487339020E0
3.585230239E2,1.659422517E0,-1.113320541E1,-8.727820516E-1
3.590230239E2,9.695717812E0,-1.263888931E1,-4.187439755E-2
3.595230239E2,1.290927768E0,-1.048714352E1,-1.032503009E0
3.600230239E2,7.844869137E0,-1.154118156E1,4.241278172E-1
3.605230239E2,2.054238319E0,-1.068634605E1,-1.004985452E0
3.610230239E2,8.784649849E0,-1.282373428E1,9.056833982E-1
3.615230239E2,2.922832966E0,-1.041476059E1,-5.874379873E-1
3.620230239E2,7.191628456E0,-1.051525879E1,-6.520441920E-2
3.625230239E2,3.425325632E0,-1.050568771E1,-1.380060434E0
3.630230239E2,8.489734650E0,-1.339502144E1,3.044866920E-1
3.635230239E2,3.547359467E0,-1.071326542E1,-7.004988194E-1
3.640230239E2,6.036493301E0,-1.289731407E1,6.305087805E-1
3.645230239E2,2.633899450E0,-1.057627583E1,-1.398604870E0
3.650230239E2,7.310671329E0,-1.143769264E1,8.626125455E-1
3.655230239E2,2.791227579E0,-1.063549805E1,-1.459621787E0
3.660230239E2,6.754340172E0,-1.099262714E1,-1.087537885E0
3.665230239E2,4.552345276E0,-8.994022369E0,1.232303679E-1
3.670230239E2,4.899304390E0,-8.595019341E0,-2.310270309E0
3.675230239E2,4.150351048E0,-8.102097511E0,-9.667003751E-1
3.680230239E2,2.886940479E0,-7.942974567E0,-1.768894196E0
3.685230239E2,4.718646049E0,-9.164510727E0,5.964110494E-1
3.690230239E2,5.504688263E0,-8.023732185E0,-3.378665686E0
3.695230239E2,4.887340069E0,-8.854640007E0,-7.704889178E-1
3.700230239E2,2.817548752E0,-8.621937752E0,-2.452643216E-1
3.705230239E2,6.558128834E0,-8.316255569E0,6.185446382E-1
3.710230239E2,4.297509670E0,-8.490931511E0,-5.060819983E-1
3.715230239E2,5.909075737E0,-8.227720261E0,-1.369891018E-1
3.720230239E2,4.649852753E0,-8.447860718E0,-5.533402562E-1
3.725230239E2,5.459224701E0,-8.215756416E0,-2.518445849E-1
3.730230239E2,5.090730190E0,-8.354539871E0,-4.049852192E-1
3.735230239E2,4.951348305E0,-8.328219414E0,-2.853440940E-1
3.740230239E2,5.345565796E0,-8.229515076E0,-1.405783296E-1
3.745230239E2,4.342374802E0,-8.754739761E0,-3.332005441E-1
3.750230239E2,6.117250919E0,-8.851649284E0,7.645068169E-1
3.755230239E2,2.727817774E0,-8.520243645E0,1.944168359E-1
3.760230239E2,5.176273346E0,-8.199007034E0,-3.687937975E0
3.765230239E2,5.035695076E0,-6.232106686E0,2.664407969E0
3.770230239E2,3.932604074E0,-5.485546112E0,-3.200400352E0
3.775230239E2,2.239681959E0,-9.614361763E0,-2.544766903E0
3.780230239E2,4.595416069E0,-1.109133148E1,3.140579760E-1
3.785230239E2,3.573680639E0,-9.926624298E0,-1.788036704E0
3.790230239E2,8.519644737E0,-1.075992489E1,-3.206382394E-1
3.795230239E2,4.597210407E0,-1.255454254E1,1.217348576E0
3.800230239E2,8.917451859E0,-9.367302895E0,-2.286342144E0
3.805230239E2,2.864806890E0,-9.165707588E0,-8.249256015E-1
3.810230239E2,6.253043652E0,-1.194018459E1,-2.426322222E0
3.815230239E2,6.782455921E0,-9.192028046E0,-1.866401672E0
3.820230239E2,5.562116146E0,-8.091329575E0,9.918249846E-1
3.825230239E2,6.610770702E0,-7.127022266E0,-8.739784956E-1
3.830230239E2,5.130211830E0,-9.199206352E0,2.063809633E0
3.835230239E2,6.419344902E0,-5.659623623E0,-2.633899450E0
3.840230239E2,4.591228485E0,-7.645666599E0,1.309472203E0
3.845230239E2,4.179064751E0,-4.947160721E0,-3.285943747E0
3.850230239E2,3.699303865E0,-8.498109818E0,2.247458696E0
3.855230239E2,4.569094658E0,-5.560919762E0,-2.181057930E0
3.860230239E2,1.424925923E0,-8.617152214E0,-2.901297510E-1
3.865230239E2,3.019742250E0,-9.072386742E0,-6.873382926E-1
3.870230239E2,4.071387768E0,-9.492925644E0,-2.224128723E0
3.875230239E2,4.106083870E0,-9.801001549E0,-6.364908218E-1
3.880230239E2,3.209971666E0,-9.668798447E0,-2.697309256E0
3.885230239E2,8.727222443E0,-1.371865082E1,1.226919770E0
3.890230239E2,3.740580082E0,-1.301516056E1,-7.686942816E-1
3.895230239E2,7.411767960E0,-1.157527924E1,1.532602906E0
3.900230239E2,1.505683661E0,-1.283629704E1,-5.676971674E-1
3.905230239E2,5.396413326E0,-1.188634682E1,-1.136590727E-2
3.910230239E2,3.081955671E0,-9.866804123E0,-6.873382926E-1
3.915230239E2,9.445667267E0,-8.880363464E0,-1.714457393E0
3.920230239E2,3.434298754E0,-1.138504982E1,-2.021935135E-1
3.925230239E2,1.065583706E1,-6.827321053E0,-3.778865099E0
3.930230239E2,6.774679184E0,-7.856235027E0,-1.963310957E0
3.935230239E2,6.071189404E0,-7.653443336E0,1.328016520E-1
3.940230239E2,5.846862316E0,-6.039484501E0,-3.838087559E0
3.945230239E2,1.908276081E0,-8.473583221E0,1.738983870E0
3.950230239E2,2.767897606E0,-6.605386734E0,-1.846062660E0
3.955230239E2,4.561916351E0,-6.794419765E0,2.163111687E0
3.960230239E2,4.825126648E0,-5.115854740E0,-2.537588358E0
3.965230239E2,1.140778184E0,-7.820940971E0,6.400800347E-1
3.970230239E2,3.788436413E0,-5.940780640E0,-1.908276081E0
3.975230239E2,2.135594130E0,-7.779664516E0,6.442674994E-1
3.980230239E2,1.724626899E0,-7.105486870E0,-2.596212626E-1
3.985230239E2,1.089332461E0,-9.196813583E0,-1.351346612E0
3.990230239E2,3.765106440E0,-8.290532112E0,3.571287692E-1
3.995230239E2,9.667003751E-1,-8.363512993E0,-8.440681696E-1
4.000230239E2,2.855833769E0,-9.522237778E0,1.447657645E-1
4.005230239E2,4.771288395E0,-1.047398281E1,-2.033899166E-2
4.010230239E2,5.205585480E0,-1.225783253E1,2.685943365E0
4.015230239E2,2.989233732E0,-1.175713444E1,-1.471585929E-1
4.020230239E2,6.125626087E0,-1.144905853E1,-3.190230846E0
4.025230239E2,2.155334949E0,-1.186481094E1,-2.189432681E-1
4.030230239E2,9.382855415E0,-1.038485050E1,-1.891526341E0
4.035230239E2,5.373083115E0,-1.107876873E1,6.825526357E-1
4.040230239E2,8.218149185E0,-8.651249886E0,-9.176474810E-1
4.045230239E2,4.965705395E0,-7.325028419E0,-3.066402197E0
4.050230239E2,3.983451605E0,-9.422935486E0,3.427718580E-1
4.055230239E2,6.410970211E0,-5.319842815E0,-2.592025042E0
4.060230239E2,4.484149456E0,-8.612366676E0,2.173879385E0
4.065230239E2,4.959722996E0,-4.801796913E0,-3.030509949E0
4.070230239E2,4.160520554E0,-9.099306107E0,2.223530531E0
4.075230239E2,6.124429703E0,-5.224130154E0,-2.215753794E0
4.080230239E2,2.136192322E0,-1.024487019E1,1.439282775E0
4.085230239E2,4.083351612E0,-6.770491600E0,-1.974676847E0
4.090230239E2,1.539183140E0,-1.000020409E1,-3.475574851E-1
4.095230239E2,2.324627161E0,-8.660223007E0,-2.730808735E0
4.100230239E2,2.537588358E0,-1.142034435E1,-1.211964726E0
4.105230239E2,2.267199516E0,-9.178867340E0,-7.764709592E-1
4.110230239E2,2.619542599E0,-1.089571762E1,-2.542374134E0
4.115230239E2,3.442673683E0,-1.185224915E1,-9.750752151E-2
4.120230239E2,3.997210264E0,-1.107398319E1,-2.251047850E0
4.125230239E2,5.504688263E0,-1.301516056E1,8.536394835E-1
4.130230239E2,3.230310678E0,-1.206580830E1,-3.170489892E-2
4.135230239E2,7.274180889E0,-1.272024536E1,1.979462504E0
4.140230239E2,1.381256819E0,-1.055713367E1,8.973085135E-2
4.145230239E2,7.696514130E0,-1.183011532E1,7.812566161E-1
4.150230239E2,2.981456995E0,-1.214895916E1,-9.092726111E-1
4.155230239E2,9.498309135E0,-1.085563850E1,-1.747956991E0
4.160230239E2,3.735794306E0,-1.240738392E1,-1.992024779E-1
4.165230239E2,9.816555023E0,-8.078168869E0,-3.888935089E0
4.170230239E2,4.985445976E0,-1.256530952E1,-4.576273263E-1
4.175230239E2,7.261618614E0,-1.115713406E1,-1.668395638E0
4.180230239E2,7.175477028E0,-9.189635277E0,-1.453639746E0
4.185230239E2,7.472187042E0,-7.870592117E0,-1.877767563E0
4.190230239E2,6.814758778E0,-7.261618614E0,-1.973480463E0
4.195230239E2,5.522634506E0,-8.966505051E0,1.367498159E0
4.200230239E2,7.607381344E0,-4.016951084E0,-3.566502094E0
4.205230239E2,5.644070625E0,-8.123034477E0,1.751546144E0
4.210230239E2,4.896911621E0,-4.608576298E0,-3.281157970E0
4.215230239E2,2.244467735E0,-9.225527763E0,8.757730722E-1
4.220230239E2,4.160520554E0,-5.047659397E0,-2.645265341E0
4.225230239E2,2.651247501E0,-9.984650612E0,1.389631748E0
4.230230239E2,5.873183250E0,-4.348356724E0,-2.937189817E0
4.235230239E2,2.536391973E0,-1.001156998E1,1.515853167E0
4.240230239E2,4.365705013E0,-6.703492641E0,-2.120040894E0
4.245230239E2,2.327019930E0,-1.130967617E1,-6.831508875E-1
4.250230239E2,4.150949001E0,-9.471988678E0,-5.826523304E-1
4.255230239E2,2.315055847E0,-1.136889839E1,-2.715853751E-1
4.260230239E2,5.340780258E0,-6.920042992E0,-2.202593327E0
4.265230239E2,2.738585472E0,-1.170867920E1,-1.080359459E0
4.270230239E2,2.914458036E0,-9.004789352E0,-1.116850019E0
4.275230239E2,1.190429211E0,-1.192403316E1,-1.800599098E0
4.280230239E2,4.666004181E0,-1.222253799E1,-1.435693651E-1
4.285230239E2,3.341576815E0,-1.153161049E1,-2.853441000E0
4.290230239E2,6.829115868E0,-1.187198925E1,8.039883971E-1
4.295230239E2,2.116451740E0,-1.036451149E1,-1.496710539E0
4.300230239E2,8.271389961E0,-1.271725368E1,2.940180779E0
4.305230239E2,3.712464333E0,-1.513340664E1,-2.749951363E0
4.310230239E2,1.060020447E1,-1.127198887E1,1.339980662E-1
4.315230239E2,2.844467878E0,-1.324188042E1,-1.277767301E0
4.320230239E2,9.358927727E0,-1.178405285E1,-1.290329576E0
4.325230239E2,1.304686546E0,-1.357567883E1,-1.118644595E0
4.330230239E2,9.373284340E0,-7.369893551E0,-2.099701881E0
4.335230239E2,3.408575773E0,-1.256530952E1,8.386843204E-1
4.340230239E2,6.883552551E0,-9.076574326E0,-2.429313183E0
4.345230239E2,4.493721008E0,-8.982656479E0,-4.303491592E0
4.350230239E2,6.387042046E0,-6.927819729E0,1.531406492E-1
4.355230239E2,6.106483459E0,-6.876972198E0,-2.965903759E0
4.360230239E2,5.066203594E0,-7.165905476E0,2.142772675E0
4.365230239E2,4.358526230E0,-4.998008251E0,-4.267599106E0
4.370230239E2,3.627519131E0,-6.296114445E0,1.757528186E0
4.375230239E2,3.013760090E0,-5.631507874E0,-3.951148272E0
4.380230239E2,3.815953970E0,-6.479763508E0,1.362712502E0
4.385230239E2,2.622533560E0,-7.124629498E0,1.576271892E0
4.390230239E2,4.348356724E0,-9.854840279E0,1.301695466E0
4.395230239E2,7.918448448E0,-9.857233047E0,1.476969719E0
4.400230239E2,5.701498032E0,-1.043091202E1,3.463610709E-1
4.405230239E2,1.100339508E1,-1.139821053E1,-1.197607756E0
4.410230239E2,3.915854216E0,-1.231645679E1,-8.883354068E-1
4.415230239E2,7.752745152E0,-8.617152214E0,-1.576271892E0
4.420230239E2,5.653641701E0,-4.997410297E0,-4.764708042E0
4.425230239E2,4.576871395E0,-5.594419479E0,1.509272933E0
4.430230239E2,3.489931822E0,-5.467001438E0,-1.917847395E0
4.435230239E2,3.066402197E0,-7.974679470E0,1.515853167E0
4.440230239E2,3.786641836E0,-7.537391186E0,-1.020538807E0
4.445230239E2,3.614358664E0,-7.234699249E0,-1.670190215E0
4.450230239E2,6.290132523E0,-7.926225185E0,1.249053478E0
4.455230239E2,4.217947960E0,-8.387441635E0,-1.779063582E0
4.460230239E2,8.467002869E0,-1.076471043E1,-1.232303679E-1
4.465230239E2,2.612962246E0,-1.064148045E1,-7.160521746E-1
4.470230239E2,5.827719688E0,-1.222433281E1,1.410568953E0
4.475230239E2,1.459621787E0,-1.069950676E1,-8.279166222E-1
4.480230239E2,7.803592682E0,-1.288594818E1,3.708875179E-2
4.485230239E2,4.766502857E0,-1.024726295E1,1.362114310E0
4.490230239E2,8.730213165E0,-9.667003632E0,-1.564906001E0
4.495230239E2,6.714260101E0,-1.254915810E1,9.870393574E-2
4.500230239E2,7.993822098E0,-1.179541969E1,2.413161755E0
4.505230239E2,6.466603279E0,-1.078863907E1,3.343969584E0
4.510230239E2,6.438487530E0,-8.893523216E0,-2.380858511E-1
4.515230239E2,6.227919102E0,-5.971288681E0,-2.016551256E0
4.520230239E2,5.328217983E0,-7.339983463E0,2.173879385E0
4.525230239E2,5.499902725E0,-5.326423168E0,-2.009970903E0
4.530230239E2,4.265804768E0,-5.227120876E0,2.374876499E0
4.535230239E2,3.808177233E0,-4.735994339E0,-2.760120869E0
4.540230239E2,3.384647608E0,-7.020541668E0,-1.039681435E0
4.545230239E2,3.440878868E0,-5.739783287E0,-2.630908489E0
4.550230239E2,1.511067510E0,-9.027522087E0,-4.893322289E-1
4.555230239E2,1.085145116E0,-7.250252724E0,-3.475574970E0
4.560230239E2,2.571686029E0,-9.482157707E0,-1.904686809E0
4.565230239E2,6.596413612E0,-8.992227554E0,1.625923038E0
4.570230239E2,3.345165968E0,-9.790233612E0,2.014756680E0
4.575230239E2,5.217549801E0,-1.016351414E1,-1.136590764E-1
4.580230239E2,3.552743435E0,-1.115832996E1,2.618944407E0
4.585230239E2,5.927619934E0,-1.062712383E1,-1.164706469E0
4.590230239E2,4.659423828E0,-1.132104206E1,-2.512463741E-2
4.595230239E2,8.213363647E0,-1.352124214E1,8.123632669E-1
4.600230239E2,6.470192432E0,-1.227338600E1,7.381857634E-1
4.605230239E2,6.888338089E0,-1.177627659E1,4.630111754E-1
4.610230239E2,4.190430641E0,-1.281416321E1,-5.826523304E-1
4.615230239E2,9.443274498E0,-9.730413437E0,-2.984447956E0
4.620230239E2,2.724228621E0,-1.279502106E1,-7.932206988E-1
4.625230239E2,1.087956619E1,-1.026999474E1,1.709671736E0
4.630230239E2,2.635095835E0,-1.114935684E1,-2.279163599E-1
4.635230239E2,9.089137077E0,-9.896714211E0,-1.217348576E0
4.640230239E2,3.576073408E0,-1.150648594E1,-1.109073281E0
4.645230239E2,1.131505966E1,-6.733402729E0,1.012762189E0
4.650230239E2,4.163511276E0,-1.026640511E1,1.794617064E-2
4.655230239E2,9.512067795E0,-9.084949493E0,-3.372085333E0
4.660230239E2,7.773682594E0,-1.120140076E1,2.500499785E-1
4.665230239E2,6.519245148E0,-8.601598740E0,8.733802289E-2
4.670230239E2,4.941776752E0,-4.833501816E0,-4.005585194E0
4.675230239E2,8.081160545E0,-6.148357868E0,2.397608280E0
4.680230239E2,5.139782906E0,-5.640480995E0,-5.161916733E0
4.685230239E2,6.200999737E0,-6.752545357E0,1.710269928E0
4.690230239E2,5.045864582E0,-3.858426571E0,-3.415754318E0
4.695230239E2,5.675775528E0,-9.298508644E0,1.662413478E0
4.700230239E2,4.240081787E0,-4.122235298E0,-2.516052961E0
4.705230239E2,6.449255466E0,-9.548559189E0,1.930409670E0
4.710230239E2,5.081159115E0,-4.405784607E0,-2.824727058E0
4.715230239E2,2.305484533E0,-9.949356079E0,-7.734799385E-1
4.720230239E2,4.295714855E0,-7.104888439E0,-1.266401410E0
4.725230239E2,1.004985452E0,-1.107996559E1,-8.697910309E-1
4.730230239E2,3.359523058E0,-8.473583221E0,-8.099704385E-1
4.735230239E2,1.839482427E0,-9.392427444E0,-1.550549030E0
4.740230239E2,3.756731510E0,-1.046321487E1,4.624129832E-1
4.745230239E2,2.025524378E0,-8.309076309E0,-4.594219327E-1
4.750230239E2,4.798207760E0,-1.173440266E1,1.604985833E0
4.755230239E2,2.397608280E0,-8.733802795E0,-4.959124923E-1
4.760230239E2,9.177671432E0,-9.582057953E0,2.584248483E-1
4.765230239E2,4.212564468E0,-1.013958549E1,-4.055834413E-1
4.770230239E2,9.637093544E0,-9.266205788E0,1.195214868E0
4.775230239E2,3.693321705E0,-1.195155048E1,-4.031906128E-1
4.780230239E2,1.314796257E1,-9.502496719E0,8.596215248E-1
4.785230239E2,1.711466432E0,-1.252403355E1,2.033899166E-2
4.790230239E2,1.075334454E1,-8.920442581E0,-5.874379873E-1
4.795230239E2,4.061816216E0,-1.298465252E1,-7.405785918E-1
4.800230239E2,1.089212894E1,-7.908876896E0,-3.030509949E0
4.805230239E2,5.557928562E0,-1.192403316E1,2.548356056E-1
4.810230239E2,9.324232101E0,-7.672585964E0,-3.343371391E0
4.815230239E2,6.971488953E0,-9.263215065E0,-6.101697683E-2
4.820230239E2,7.136593342E0,-9.050851822E0,-4.307080805E-1
4.825230239E2,5.020142078E0,-8.623732567E0,-3.884149313E0
4.830230239E2,6.690331936E0,-9.923633575E0,3.097508907E0
4.835230239E2,6.541976929E0,-6.258427620E0,-4.110869408E0
4.840230239E2,7.235895634E0,-8.802596092E0,-1.417747438E-1
4.845230239E2,7.341179848E0,-6.620342255E0,-1.799402595E0
4.850230239E2,6.256632805E0,-9.244071960E0,2.056032896E0
4.855230239E2,5.546562672E0,-6.531209469E0,-2.793620348E0
4.860230239E2,3.404388428E0,-9.285946846E0,2.760120869E0
4.865230239E2,3.648456335E0,-5.511268616E0,-4.191029072E0
4.870230239E2,4.648656368E0,-8.154739380E0,1.467996716E0
4.875230239E2,4.554139614E0,-6.067001820E0,-2.065604210E0
4.880230239E2,1.411765337E0,-8.769096375E0,6.155536175E-1
4.885230239E2,3.077169895E0,-6.800402164E0,-1.968096614E0
4.890230239E2,1.527817249E0,-1.056311512E1,-6.568298340E-1
4.895230239E2,3.764508247E0,-9.904491425E0,1.349551916E0
4.900230239E2,3.839882135E0,-9.000003815E0,-7.387840152E-1
4.905230239E2,5.827719688E0,-1.201017475E1,7.082754970E-1
4.910230239E2,2.539382935E0,-9.922437668E0,-2.801397085E0
4.915230239E2,5.952146530E0,-1.147298622E1,1.142572761E0
4.920230239E2,3.391227961E0,-1.094118118E1,-1.256830096E0
4.925230239E2,8.066802979E0,-1.346082401E1,2.967100143E-1
4.930230239E2,4.517649174E0,-1.178345490E1,-2.093719840E-1
4.935230239E2,8.749954224E0,-1.140299606E1,1.212562919E0
4.940230239E2,5.358128071E0,-1.051286602E1,1.546959877E0
4.945230239E2,9.574879646E0,-1.070907784E1,-2.731407166E0
4.950230239E2,6.418746948E0,-1.198983574E1,1.160518974E-1
4.955230239E2,1.046142101E1,-6.612565517E0,-1.500898004E0
4.960230239E2,3.308077335E0,-1.112542915E1,-7.782655358E-1
4.965230239E2,8.483154297E0,-7.361518860E0,-2.807977438E0
4.970230239E2,6.583253384E0,-1.015633583E1,5.377869010E-1
4.975230239E2,6.607779503E0,-9.954142570E0,5.115854740E0
4.980230239E2,8.364111900E0,-4.677370071E0,-1.832902193E0
4.985230239E2,5.258227825E0,-5.525625706E0,7.322037220E-1
4.990230239E2,3.616153240E0,-5.402993679E0,-3.062813044E0
4.995230239E2,5.468796253E0,-7.106683254E0,1.137188911E0
5.000230239E2,2.638087034E0,-7.497311592E0,-2.989831924E0
5.005230239E2,2.499901533E0,-9.131011009E0,1.914258152E-1
5.010230239E2,3.187239647E0,-7.246663570E0,-7.782655358E-1
5.015230239E2,6.699903607E-1,-9.132207870E0,-9.888339639E-1
5.020230239E2,2.216950178E0,-6.907480717E0,-1.702493310E0
5.025230239E2,2.231307030E0,-1.005763149E1,-2.280958176E0
5.030230239E2,1.667199135E0,-1.040219784E1,-1.054038405E0
5.035230239E2,3.179463148E0,-1.168534946E1,-1.135992527E0
5.040230239E2,6.675975323E0,-1.214895916E1,2.739782035E-1
5.045230239E2,4.152743816E0,-1.061815071E1,-1.067198873E0
5.050230239E2,6.063412666E0,-1.345125294E1,1.080359459E0
5.055230239E2,3.557528973E0,-1.172124195E1,3.110669553E-1
5.060230239E2,9.550353050E0,-8.899505615E0,8.614161611E-2
5.065230239E2,2.386242390E0,-1.082213879E1,3.302095234E-1
5.070230239E2,8.618947029E0,-1.424507141E1,1.944168448E0
5.075230239E2,4.366302967E0,-1.276630688E1,2.697907388E-1
5.080230239E2,8.019545555E0,-1.130489063E1,-1.161715388E0
5.085230239E2,1.070788130E-1,-1.222852039E1,-5.312066078E-1
5.090230239E2,6.787839413E0,-9.550353050E0,-5.443073273E0
5.095230239E2,4.747360229E0,-1.230867958E1,5.982056726E-3
5.100230239E2,6.771687984E0,-9.231510162E0,-2.746960402E0
5.105230239E2,6.330212116E0,-9.202795982E0,-1.037288666E0
5.110230239E2,7.119245529E0,-9.379864693E0,-1.257428288E0
5.115230239E2,4.890929699E0,-8.001599312E0,-3.125026464E0
5.120230239E2,3.351148129E0,-7.770691395E0,1.441675663E0
5.125230239E2,4.518845558E0,-5.285147190E0,-3.753740549E0
5.130230239E2,2.785245657E0,-7.984251022E0,2.264806747E0
5.135230239E2,3.976871252E0,-4.666004181E0,-3.803391695E0
5.140230239E2,2.914458036E0,-8.177471161E0,5.264210105E-1
5.145230239E2,3.338585854E0,-5.923432350E0,-3.504288673E0
5.150230239E2,3.257229805E0,-6.842276573E0,-1.319043517E0
5.155230239E2,3.139383316E0,-6.374479294E0,-1.920838356E0
5.160230239E2,3.114258766E0,-7.945367813E0,-1.729412556E0
5.165230239E2,8.554341197E-1,-9.470791817E0,-1.585843205E0
5.170230239E2,3.339184046E0,-8.897710800E0,-1.424327731E0
5.175230239E2,2.067398787E0,-8.733802795E0,-1.581057549E0
5.180230239E2,3.574877024E0,-9.245866776E0,-2.158325911E0
5.185230239E2,4.420141697E0,-1.263769245E1,1.057627559E0
5.190230239E2,5.209773064E0,-1.040399265E1,-1.193420291E0
5.195230239E2,4.798805714E0,-1.185703468E1,-1.962114573E-1
5.200230239E2,4.463810444E0,-1.045304585E1,-6.921239495E-1
5.205230239E2,3.705285788E0,-1.237089348E1,-1.704886109E-1
5.210230239E2,3.857230186E0,-1.072283649E1,-1.070788145E0
5.215230239E2,4.549354076E0,-1.332024574E1,1.432104349E0
5.220230239E2,2.601596355E0,-1.040100193E1,-1.264606714E0
5.225230239E2,5.260620594E0,-1.275254822E1,8.835497499E-1
5.230230239E2,3.219542980E0,-1.267896938E1,-1.823330879E0
5.235230239E2,8.386244774E0,-1.182174015E1,9.140582681E-1
5.240230239E2,3.499503136E0,-1.063250732E1,-1.014556766E0
5.245230239E2,7.629515171E0,-1.061336517E1,1.381256819E0
5.250230239E2,3.511467218E0,-9.373284340E0,1.242473125E0
5.255230239E2,4.756931305E0,-1.163689518E1,7.573283911E-1
5.260230239E2,1.797608018E0,-1.135992527E1,-3.080759048E-1
5.265230239E2,4.427918434E0,-1.271725368E1,-1.237687469E0
5.270230239E2,1.831107497E0,-1.191446209E1,-4.007977843E-1
5.275230239E2,5.708078384E0,-1.300917816E1,-2.602194548E0
5.280230239E2,4.016352654E0,-1.065643597E1,-1.082752228E0
5.285230239E2,9.376275063E0,-1.009651470E1,-7.848458290E-1
5.290230239E2,4.406383038E0,-1.056311512E1,-1.263410330E0
5.295230239E2,6.832107067E0,-1.200897884E1,-8.679963946E-1
5.300230239E2,4.433301926E0,-1.010429192E1,-3.601198196E-1
5.305230239E2,7.269395351E0,-1.232423306E1,3.397808075E-1
5.310230239E2,4.826921463E0,-1.083589745E1,-1.035493970E0
5.315230239E2,6.385247231E0,-1.156511021E1,6.765705943E-1
5.320230239E2,4.141377926E0,-9.852447510E0,2.452643216E-1
5.325230239E2,3.742374659E0,-9.534201622E0,1.001396298E0
5.330230239E2,2.160120726E0,-8.548358917E0,-1.004985452E0
5.335230239E2,1.999203324E0,-8.692526817E0,-9.798609018E-1
5.340230239E2,2.919243574E0,-8.922237396E0,-1.741974831E0
5.345230239E2,3.632304668E0,-7.841877937E0,-1.174277663E0
5.350230239E2,2.971885681E0,-8.038687706E0,-1.433898926E0
5.355230239E2,3.276970625E0,-7.384250641E0,-1.927418590E0
5.360230239E2,2.646461725E0,-8.706285477E0,1.367498159E0
5.365230239E2,3.921238184E0,-6.103492260E0,-2.305484533E0
5.370230239E2,4.278367043E0,-7.756334782E0,1.557129383E0
5.375230239E2,4.957928658E0,-4.940580368E0,-3.772883177E0
5.380230239E2,5.535196781E0,-9.120243073E0,-5.682953596E-1
5.385230239E2,5.462215900E0,-7.462017536E0,-3.796811342E0
5.390230239E2,7.237690449E0,-8.702097893E0,-1.295115232E0
5.395230239E2,5.686542988E0,-8.212167740E0,-2.586043119E0
5.400230239E2,7.755736351E0,-8.310871124E0,-1.791625977E0
5.405230239E2,4.528416634E0,-8.968298912E0,-1.969891191E0
5.410230239E2,8.641080856E0,-9.367302895E0,-6.927221417E-1
5.415230239E2,1.858026743E0,-1.076590729E1,-1.178465128E0
5.420230239E2,9.596415520E0,-1.162074280E1,-1.639083475E-1
5.425230239E2,7.092326164E0,-8.548956871E0,4.085146427E0
5.430230239E2,5.927619934E0,7.080960274E0,6.416353703E0
5.435230239E2,1.168893814E0,4.745565414E0,7.752745152E0
