"Time (s)","Gyroscope x (rad/s)","Gyroscope y (rad/s)","Gyroscope z (rad/s)"
2.700641820E-1,-7.959567904E-1,-5.314523727E-2,1.487455666E-1
7.742393380E-1,-3.657552898E-1,6.174315810E-1,7.605266571E-2
1.278414338E0,-1.682474375E0,-2.695593596E0,1.979660034E0
1.782589338E0,-8.292489648E-1,-2.580903769E-1,-1.067486182E-1
2.286764286E0,2.092211843E-1,-3.643808365E-1,2.223547846E-1
2.790939286E0,-9.346231073E-2,7.774781585E-1,4.932733253E-2
3.295114755E0,-2.693913579E-1,-6.036871076E-1,-4.230238497E-2
3.799290849E0,3.268126398E-2,1.750127524E-1,4.673115537E-2
4.303467567E0,-6.808087826E-1,5.749764442E-1,-5.736020207E-1
4.807644859E0,1.484401375E-1,-1.753181964E-1,1.105512500E0
5.311822672E0,-2.461785078E-1,-5.050324798E-1,-1.290451884E0
5.816000849E0,5.601630211E-1,-2.574795187E-1,6.575959325E-1
6.320179442E0,7.941242307E-3,-2.750418782E-1,-5.079340935E-1
6.824358245E0,3.863719851E-2,9.330959618E-2,2.706131041E-1
7.328537307E0,-3.242164850E-1,4.790706933E-1,-1.325576603E-1
7.832716422E0,-4.179842174E-1,7.615956664E-1,4.470002949E-1
8.336895588E0,-2.095266134E-1,2.026543915E-1,-3.969093859E-1
8.841074807E0,4.341721535E-1,-6.414080262E-1,1.820377111E-1
9.345254130E0,3.019199073E-1,-5.106829405E-1,-4.572322965E-1
9.849433453E0,-3.970621154E-2,3.605629504E-1,4.144717455E-1
1.035361278E1,1.658497900E-1,-2.903134823E-1,-3.455967605E-1
1.085779200E1,9.269873053E-2,-1.976147592E-1,1.617264450E-1
1.136197116E1,1.844811589E-1,-4.205803871E-1,1.168278903E-1
1.186615017E1,-2.962694168E-1,3.950767815E-1,-2.199113220E-1
1.237032897E1,-2.996291816E-1,8.640682101E-1,4.366155863E-1
1.287450757E1,-4.077522457E-2,-3.979783952E-1,-3.358229101E-1
1.337868595E1,5.728384256E-1,-6.461422443E-1,2.240346521E-1
1.388286429E1,2.638935745E-1,-1.491579056E0,-6.293434501E-1
1.438704304E1,-6.597339362E-2,3.584249020E-1,1.985310465E-1
1.489122231E1,8.506292105E-2,-3.042106628E-1,-3.321577311E-1
1.539540194E1,-1.873827726E-1,8.216131479E-2,3.397935331E-1
1.589958179E1,-1.105665267E-1,-2.893971801E-1,-3.568977416E-1
1.640376173E1,8.109229803E-2,1.624900252E-1,4.865537882E-1
1.690794168E1,-3.133736253E-1,1.528689116E-1,-1.899789423E-1
1.741212142E1,3.949240744E-1,5.543597788E-2,-9.315688163E-3
1.791630085E1,-3.637699783E-1,-9.987638891E-2,2.955058515E-1
1.842048002E1,-1.745546162E-1,3.145953715E-1,-2.765690386E-1
1.892465897E1,-2.214384824E-1,3.533852696E-1,3.032943606E-1
1.942883791E1,-1.328630932E-2,6.795870513E-2,-2.113592178E-1
1.993301598E1,-1.663079411E-1,7.235693336E-1,1.980729103E-1
2.043719353E1,-5.852084756E-1,1.181870580E0,-3.897317350E-1
2.094137056E1,-6.928733587E-1,9.862411618E-1,5.995637774E-1
2.144554713E1,-1.452330947E-1,1.064431891E-1,-2.585485280E-1
2.194972322E1,8.933897316E-2,-1.343902498E-1,2.703076601E-2
2.245389890E1,1.157588735E-1,-1.094975099E-1,-4.505127668E-2
2.295807395E1,1.136208475E-1,-7.208204269E-2,-1.041524485E-1
2.346224838E1,6.246092543E-2,-9.636391699E-2,-4.245510325E-2
2.396642239E1,2.641990222E-2,-2.099847645E-1,9.361502528E-2
2.447059588E1,2.383899838E-1,-4.356993139E-1,1.113301069E-1
2.497476895E1,1.783725172E-1,-3.381136656E-1,-4.269944727E-1
2.547894161E1,-1.992946416E-1,1.302669197E-1,4.149298966E-1
2.598311364E1,-1.950185746E-1,2.144135386E-1,-1.976147592E-1
2.648728484E1,5.467239767E-2,-1.255327165E-1,-1.053741761E-2
2.699145541E1,1.404989064E-1,-7.727439702E-2,1.247691289E-1
2.749562551E1,-4.077522457E-1,5.589412451E-1,-1.899789423E-1
2.799979541E1,-2.018908113E-1,3.200931549E-1,3.535379767E-1
2.850396504E1,1.385135949E-1,-8.735366166E-2,-2.302960157E-1
2.900813458E1,2.246455252E-1,-5.335903764E-1,4.520399496E-2
2.951230400E1,4.344775677E-1,-4.396699369E-1,-4.699077308E-1
3.001647327E1,-3.355174661E-1,2.113592178E-1,3.452913165E-1
3.052064239E1,-1.609628648E-1,3.886627257E-1,-1.337793916E-1
3.102481135E1,-9.071341902E-2,8.048143238E-2,2.206749022E-1
3.152897994E1,1.372918636E-1,-9.300415963E-2,7.819069177E-2
3.203314822E1,5.849030241E-2,-4.454731345E-1,-3.118464649E-1
3.253731619E1,-2.489273995E-2,-1.788306683E-1,4.766272306E-1
3.304148374E1,1.786779426E-2,2.984074354E-1,3.460549116E-1
3.354565093E1,1.116355360E-1,-2.463312149E-1,-1.481805205E0
3.404981780E1,-5.606211424E-1,-2.052505612E-1,1.595884204E0
3.455398442E1,-4.518872201E-1,3.097084463E-1,-1.909257889E0
3.505815077E1,5.170970559E-1,-5.517635942E-1,1.564882874E0
3.556231692E1,-2.988655865E-1,8.162680864E-1,-6.421716213E-1
3.606648275E1,-3.344484568E-1,-2.970330119E-1,2.157879770E-1
3.657064817E1,2.472475171E-1,6.627883017E-2,-1.617264450E-1
3.707481296E1,-4.358520210E-1,-1.350011230E-1,1.919642538E-1
3.757897718E1,1.443168074E-1,-1.296560466E-1,-2.229656428E-1
3.808314077E1,-1.023198515E-1,-2.373209596E-1,-8.552107029E-3
3.858730374E1,-2.652680278E-1,3.527744114E-2,2.663370371E-1
3.909146614E1,8.704823256E-2,-2.504545450E-1,-2.484692484E-1
3.959562796E1,-9.162971750E-3,-5.772672221E-2,2.608392537E-1
4.009978932E1,-1.490510106E-1,4.810560048E-1,3.924806044E-2
4.060395020E1,-1.345429718E-1,9.880737960E-2,-4.938841760E-1
4.110811077E1,4.459312931E-2,-1.931859851E-1,3.526217043E-1
4.161227098E1,2.138026804E-2,-2.611446939E-2,-4.502073526E-1
4.211643088E1,1.832594397E-3,5.772672221E-2,2.788597643E-1
4.262059046E1,-5.696314201E-2,-1.629481763E-1,-8.170316368E-2
4.312474999E1,-1.385135949E-1,9.071341902E-2,-7.987056673E-2
4.362890958E1,4.833467603E-1,-1.713475734E-1,9.361502528E-2
4.413306973E1,-9.560033679E-2,-1.866191924E-1,2.512181401E-1
4.463723056E1,-6.933315098E-2,2.370155305E-1,-4.657844082E-2
4.514139161E1,-1.067486182E-1,-3.652971387E-1,3.909534588E-2
4.564555280E1,1.424842030E-1,1.684459597E-1,9.819651395E-2
4.614971338E1,-4.199695215E-2,-5.963567495E-1,5.146535859E-2
4.665387369E1,2.044869810E-1,2.498437017E-1,-3.463603258E-1
4.715803359E1,-2.932150960E-1,1.044578776E-1,1.970038861E-1
4.766219301E1,6.734783947E-2,4.306596816E-1,-5.925388262E-2
4.816635187E1,-1.382081509E-1,-4.292852283E-1,-2.116646469E-1
4.867051004E1,-4.767799675E-1,5.957458615E-1,3.239110410E-1
4.917466749E1,5.140427351E-1,-1.149036646E0,-2.926042378E-1
4.967882437E1,-2.368628234E-1,6.323977709E-1,1.695149690E-1
5.018298051E1,2.779434808E-2,-5.752819180E-1,-4.462367296E-1
5.068713598E1,-6.385064125E-1,5.583304167E-1,3.735437989E-1
5.119129088E1,1.377500147E-1,-2.396117151E-1,-2.663370371E-1
5.169544504E1,-1.435532272E-1,9.651663154E-2,3.481929302E-1
5.219959853E1,-2.541197538E-1,-1.962403059E-1,1.649334840E-2
5.270375140E1,1.369864196E-1,1.951712966E-1,9.697478265E-2
5.320790359E1,-1.018617004E-1,-1.117882580E-1,-5.607738495E-1
5.371205510E1,1.652389169E-1,-3.236056268E-1,4.066832364E-1
5.421620593E1,-4.176788032E-1,2.632827163E-1,2.556469142E-1
5.472035603E1,2.748891413E-1,-2.695440948E-1,-1.435532272E-1
5.522450551E1,-4.092793912E-2,1.586721241E-1,-1.169806048E-1
5.572865437E1,-3.437641561E-1,3.495673835E-1,1.417206228E-1
5.623280270E1,5.711585879E-1,-5.459604263E-1,-2.455676347E-1
5.673695046E1,-1.631008983E-1,-3.156643808E-1,1.224783882E-1
5.724109765E1,-2.596175298E-3,3.491092324E-1,6.032289565E-2
5.774524426E1,7.452550530E-2,-1.090393662E-1,-2.292270064E-1
5.824939041E1,4.276053514E-3,2.616028488E-1,4.143190384E-1
5.875353609E1,2.212857604E-1,-8.048143387E-1,-6.983711720E-1
5.925768119E1,-1.177441850E-1,8.738420606E-1,-5.482511222E-2
5.976182588E1,-3.048215210E-1,-1.637117565E-1,1.458439678E-1
6.026597015E1,-2.475529462E-1,2.463312149E-1,1.557705253E-1
6.077011390E1,-5.879573524E-2,-5.435169339E-1,-2.959639728E-1
6.127425713E1,3.312414289E-1,8.109229803E-2,4.856374860E-1
6.177839978E1,1.206457894E-2,-8.568905592E-1,-1.568395346E-1
6.228254182E1,2.684750557E-1,3.370446563E-1,-3.252854943E-2
6.278668333E1,-3.292561173E-1,1.032361463E-1,-3.000873327E-1
6.329082426E1,3.430005610E-1,6.673697382E-2,5.345067009E-3
6.379496468E1,-2.852738500E-1,1.154534444E-1,-3.585776389E-1
6.429910447E1,7.501419783E-1,-8.520036340E-1,-2.079994529E-1
6.480324374E1,-1.040150046E0,1.538921118E0,1.300989270E0
6.530738234E1,1.539379209E-1,-5.100720748E-2,-1.030834317E-1
6.581152030E1,2.212857604E-1,-5.910116807E-2,-6.918043643E-2
6.631565734E1,-2.787070572E-1,-3.504836559E-1,1.241582632E-1
6.681979312E1,1.979201883E-1,1.319467872E-1,-3.011563420E-1
6.732392744E1,-2.208276242E-1,-1.380554438E-1,1.519526094E-1
6.782806030E1,-6.215549260E-2,2.078467458E-1,-1.237001196E-1
6.833219171E1,2.290742937E-3,-5.258018374E-1,-3.156643808E-1
6.883632161E1,-1.353065521E-1,5.244274139E-1,3.732383847E-1
6.934045004E1,-2.287688553E-1,-1.137735620E-1,-4.740310609E-1
6.984457728E1,-1.663079411E-1,4.106538594E-1,4.799869955E-1
7.034870343E1,-8.445205539E-2,-5.199986696E-1,-6.643154621E-1
7.085282916E1,-1.094975099E-1,2.503018379E-1,7.987056971E-1
7.135695468E1,-1.759290546E-1,-1.023198478E-2,-8.452841640E-1
7.186108015E1,-9.636391699E-2,4.489856213E-2,9.970840216E-1
7.236520541E1,-1.884517819E-1,2.626718581E-2,-8.952223063E-1
7.286933062E1,2.222020626E-1,-2.903134823E-1,9.144645929E-1
7.337345588E1,-2.709185183E-1,-7.834340632E-2,-8.312342763E-1
7.387758140E1,1.618791670E-1,-2.041815519E-1,4.208858311E-1
7.438170708E1,5.115992576E-2,-2.330449075E-1,-4.845684767E-1
7.488583275E1,-1.696676910E-1,-3.772090003E-2,4.549415410E-1
7.538995848E1,-4.917461425E-2,4.276053309E-1,-1.502727419E-1
7.589408437E1,1.867718995E-1,9.773836471E-3,-2.345720828E-1
7.639821015E1,-2.470948100E-1,2.773326039E-1,1.527161896E-1
7.690233593E1,1.693622619E-1,-3.164279461E-1,-3.385718167E-1
7.740646161E1,-1.482874304E-1,2.464839369E-1,3.828594983E-1
7.791058718E1,-8.139773458E-2,-1.582139730E-1,-1.773035079E-1
7.841471260E1,8.720094711E-2,1.525634825E-1,1.224783882E-1
7.891883765E1,-4.382954836E-1,-2.718348242E-2,1.456912458E-1
7.942296236E1,3.975202441E-1,-4.914407134E-1,-3.831649423E-1
7.992708638E1,-4.488328993E-1,3.376555145E-1,3.188714087E-1
8.043120976E1,4.411970973E-1,-3.019199073E-1,5.426006317E-1
8.093533257E1,-3.790415823E-1,-2.244928107E-2,-4.540252388E-1
8.143945502E1,-1.904370934E-1,4.384481907E-1,4.720457494E-1
8.194357710E1,4.993819445E-2,-4.998401105E-1,-5.534434915E-1
8.244769893E1,3.793470263E-1,-1.282663345E0,-4.214967042E-2
8.295182044E1,1.420260668E-1,2.585485280E-1,8.949168772E-2
8.345594169E1,-2.067777216E-1,-1.073594838E-1,6.811141968E-2
8.396006257E1,-9.132428467E-2,8.892664313E-1,4.948004708E-2
8.446418294E1,-2.096793354E-1,-1.394298822E-1,-1.281288862E-1
8.496830278E1,2.338084877E-1,8.811724186E-2,-4.159989059E-1
8.547242216E1,-2.015853822E-1,-4.520399496E-2,-1.353065521E-1
8.597654122E1,-1.467602700E-1,3.833176494E-1,4.557051361E-1
8.648065981E1,-1.291978955E-1,-2.215912044E-1,-3.057378232E-1
8.698477799E1,-1.160643063E-2,4.259254634E-1,4.586067200E-1
8.748889580E1,-1.889099330E-1,-4.616610706E-1,-5.415316224E-1
8.799301330E1,-8.826996386E-2,3.863719851E-2,6.620246768E-1
8.849713054E1,-2.199113220E-1,-9.987638891E-2,-6.131555438E-1
8.900124747E1,1.284343153E-1,-5.971203372E-2,7.796161771E-1
8.950536408E1,-5.120574236E-1,1.346956789E-1,-7.597630620E-1
9.000948039E1,5.610793233E-1,-3.234528899E-1,7.049379349E-1
9.051359643E1,-3.178023994E-1,2.528980076E-1,-4.413498193E-2
9.101771216E1,6.716458201E-1,-6.549997330E-1,4.179842174E-1
9.152182747E1,-2.109010667E-1,1.695149690E-1,-2.936732471E-1
9.202594236E1,-2.687804960E-2,-9.010255337E-2,-1.201876476E-1
9.253005674E1,-3.546070158E-1,2.651153207E-1,-4.326449931E-1
9.303417070E1,1.600465775E-1,9.361502528E-2,-1.319467872E-1
9.353828429E1,-3.501782417E-1,3.854556680E-1,3.025307953E-1
9.404239752E1,-8.124501258E-2,-2.570213675E-1,-2.871064544E-1
9.454651049E1,-1.198822111E-1,2.076940238E-1,4.627300799E-1
9.505062299E1,-2.443459183E-1,7.177661173E-3,-7.209731340E-1
9.555473507E1,9.040798992E-2,-2.131918073E-1,9.405790567E-1
9.605884658E1,-3.463603258E-1,8.536835015E-2,-9.920443892E-1
9.656295768E1,3.659079969E-1,-3.459021747E-1,1.101847291E0
9.706706815E1,-4.883863926E-1,7.192932814E-2,-9.213368297E-1
9.757117815E1,6.887500733E-2,-1.490510106E-1,6.753110290E-1
9.807528763E1,1.707367003E-1,3.756818548E-2,-6.157516837E-1
9.857939664E1,-2.799287736E-1,9.162971983E-4,2.835939825E-1
9.908350502E1,3.100138903E-1,2.009745091E-1,-1.733328849E-1
9.958761289E1,-2.716821134E-1,-5.520690680E-1,-1.725693047E-2
1.000917204E2,-2.061668597E-2,-3.955349326E-2,-4.810560122E-2
1.005958275E2,-2.209803313E-1,-2.301433086E-1,-2.927569449E-1
1.010999341E2,5.161807314E-2,4.723511934E-1,5.195404887E-1
1.016040402E2,-3.145953715E-1,-4.781544209E-1,-7.385355234E-1
1.021081462E2,-2.280052751E-1,5.626064539E-1,7.399099469E-1
1.026122517E2,-4.321868345E-2,-1.427896470E-1,-7.663298845E-1
1.031163569E2,-2.171624303E-1,-1.023198515E-1,1.490051866E0
1.036204616E2,-3.214675784E-1,2.306014597E-1,-1.737452149E0
1.041245658E2,-1.832594275E-1,-2.884808779E-1,1.383761406E0
1.046286697E2,-2.200640440E-1,3.628536761E-1,-1.596647859E0
1.051327732E2,1.214093715E-1,-5.995637774E-1,1.717751741E0
1.056368765E2,-5.451968312E-1,-2.095266134E-1,-1.400865674E0
1.061409794E2,3.251327872E-1,-2.794706225E-1,1.090851784E0
1.066450821E2,-5.276344419E-1,1.750127524E-1,-8.943060637E-1
1.071491845E2,-1.798996776E-1,-6.490438432E-2,9.619593024E-1
1.076532866E2,6.246092543E-2,3.527744114E-1,-1.623373181E-1
1.081573883E2,4.075995386E-1,-3.199404180E-1,-5.955931544E-2
1.086614897E2,-1.756236255E-1,-5.345066637E-2,-2.620609999E-1
1.091655907E2,1.996000707E-1,-3.605629504E-1,2.967275679E-1
1.096696913E2,-1.062904745E-1,5.534434915E-1,-1.589775532E-1
1.101737913E2,-7.254019380E-2,-5.447386503E-1,-2.380845547E-1
1.106778909E2,-2.090684772E-1,5.885682106E-1,1.702785641E-1
1.111819903E2,-1.504254490E-1,-3.730856776E-1,-3.656025827E-1
1.116860895E2,-1.977674663E-1,4.117228687E-1,1.637117565E-1
1.121901885E2,-2.443459071E-2,-5.537489057E-1,-3.605629504E-1
1.126942872E2,-3.361283541E-1,2.330449075E-1,4.836521745E-1
1.131983855E2,4.505127668E-2,-1.834121495E-1,-5.673406720E-1
1.137024836E2,-9.040798992E-2,6.139190868E-2,8.315396905E-1
1.142065813E2,-2.319758981E-1,9.758564830E-2,-1.018464327E0
1.147106787E2,4.395172000E-1,-1.612683088E-1,9.711222649E-1
1.152147757E2,-5.583304167E-1,-3.243691921E-1,-8.465058804E-1
1.157188723E2,3.393353820E-1,-1.501200199E-1,6.644681692E-1
1.162229683E2,-3.978256881E-1,5.577195287E-1,-3.930914998E-1
1.167270637E2,1.043051630E-1,-3.918697536E-1,2.677114904E-1
1.172311587E2,-2.167042792E-1,-1.889099330E-1,-5.054906011E-2
1.177352532E2,4.363101721E-1,-2.701549530E-1,2.764163166E-2
1.182393473E2,-7.605266571E-2,7.238747925E-2,-2.350302190E-1
1.187434408E2,1.725693047E-2,-3.304778337E-1,-3.375028074E-2
1.192475339E2,6.826414168E-2,1.061377525E-1,6.643154472E-2
1.197516266E2,-2.402225733E-1,-2.467893660E-1,-1.699731201E-1
1.202557190E2,2.884808779E-1,9.773836285E-2,-9.361502528E-2
1.207598110E2,-2.568686306E-1,-1.098029464E-1,-1.892153621E-1
1.212639025E2,9.407317638E-2,5.635227636E-2,1.878409237E-1
1.217679936E2,-2.542724609E-1,2.061668597E-2,-3.165806830E-1
1.222720842E2,7.498364896E-2,9.239330143E-2,4.702131748E-1
1.227761745E2,-1.467602700E-1,-3.416261375E-1,-4.975493550E-1
1.232802643E2,-1.832594275E-1,2.160934210E-1,6.626355648E-1
1.237843538E2,3.405570984E-2,-3.651444316E-1,-4.520399272E-1
1.242884428E2,-3.190241456E-1,1.785252392E-1,5.068650246E-1
1.247925315E2,7.864884287E-2,-1.240055487E-1,-6.377428174E-1
1.252966200E2,-8.109229803E-2,1.076649204E-1,8.211549520E-1
1.258007081E2,-2.209803313E-1,-9.193515033E-2,-7.606793642E-1
1.263047957E2,4.286743701E-1,-1.504254490E-1,8.292489648E-1
1.268088828E2,-5.865828991E-1,9.590577334E-2,-8.112284541E-1
1.273129693E2,1.863137633E-1,-2.547306120E-1,8.411607742E-1
1.278170553E2,-5.251910090E-1,3.564395905E-1,-7.305942774E-1
1.283211408E2,3.390299380E-1,-3.011563420E-1,4.824304581E-1
1.288252258E2,-3.671297431E-1,-4.886918142E-2,-4.480693042E-1
1.293293104E2,1.826485693E-1,-2.652680278E-1,4.404335022E-1
1.298333946E2,-5.436696485E-2,4.718930274E-2,-3.671297431E-1
1.303374786E2,-7.437278330E-2,-2.026543915E-1,1.853974611E-1
1.308415623E2,1.284343153E-1,2.302960157E-1,-4.489856213E-2
1.313456458E2,-3.283398151E-1,-1.386663020E-1,2.886336111E-2
1.318497286E2,4.305069447E-1,-6.872228812E-3,8.613193035E-2
1.323538107E2,-2.393062711E-1,-3.433060050E-1,-2.000582218E-1
1.328578918E2,2.504545636E-2,4.969384968E-1,3.287979662E-1
1.333619719E2,-3.083339930E-1,3.924806044E-2,-6.443096399E-1
1.338660510E2,-7.086031139E-2,-5.497782957E-3,8.260418773E-1
1.343701291E2,-1.157588735E-1,-1.116355360E-1,-1.343138933E0
1.348742062E2,1.015562713E-1,-1.078176349E-1,1.274111271E0
1.353782825E2,-2.486219704E-1,6.200277433E-2,-1.323133111E0
1.358823587E2,7.788525894E-3,-1.237001177E-2,1.618638992E0
1.363864353E2,-3.857611120E-1,5.681042373E-2,-1.678045511E0
1.368905122E2,2.423606068E-1,-3.859138191E-1,1.867260933E0
1.373945892E2,-3.055851161E-1,9.972367436E-2,-1.620471597E0
1.378986661E2,-4.002691507E-1,4.468475878E-1,1.147356749E0
1.384027427E2,2.837466896E-1,-6.032289565E-2,-1.279303551E0
1.389068192E2,-1.362228394E-1,-3.330740333E-1,7.524327040E-1
1.394108955E2,4.886918236E-3,1.933387071E-1,-4.444041252E-1
1.399149715E2,-1.716530025E-1,-2.025016695E-1,1.481347084E-1
1.404190471E2,1.525634825E-1,2.217439115E-1,1.188132018E-1
1.409231222E2,-1.988364905E-1,-2.683223486E-1,-4.170679152E-1
1.414271968E2,3.685041666E-1,-4.234820008E-1,2.860374451E-1
1.419312710E2,-2.970330119E-1,5.070177838E-2,-4.321868420E-1
1.424353449E2,-1.603520066E-1,2.721402645E-1,9.010255337E-3
1.429394187E2,-6.704241037E-2,-1.713475734E-1,1.041524485E-1
1.434434928E2,-6.659952998E-1,4.949531853E-1,3.407098353E-1
1.439475669E2,2.973384261E-1,-5.256491303E-1,-4.173733592E-1
1.444516411E2,-1.029307172E-1,3.419315517E-1,5.962040424E-1
1.449557153E2,-4.871646687E-2,2.521344423E-1,-6.798924804E-1
1.454597891E2,-4.108065739E-2,-5.720748901E-1,5.777253509E-1
1.459638626E2,-1.802051067E-1,-1.725693047E-1,-1.028696299E0
1.464679356E2,5.192350745E-1,-2.050978541E-1,1.243567944E0
1.469720082E2,-3.355174661E-1,1.481347065E-2,-5.603157282E-1
1.474760804E2,9.346231073E-2,1.084284950E-2,6.485856771E-1
1.479801523E2,-4.276053607E-2,-8.368847519E-2,-7.748819590E-1
1.484842240E2,-9.453132749E-2,-1.557705179E-2,4.948004782E-1
1.489882954E2,1.039997265E-1,-6.902772188E-2,9.330959618E-2
1.494923666E2,1.298087649E-2,-7.681624591E-2,2.208276242E-1
1.499964375E2,4.153880477E-2,4.721984863E-1,-5.728384256E-1
1.505005081E2,-3.970621154E-2,-3.165806830E-1,-4.214967042E-2
1.510045783E2,1.010981202E-1,5.894844979E-2,-1.496618707E-2
1.515086481E2,-2.171624303E-1,-2.429714650E-1,-5.177079141E-2
1.520127175E2,-6.673697382E-2,3.891208768E-1,-2.703076601E-2
1.525167865E2,1.908952370E-2,-4.092794061E-1,-2.121227980E-1
1.530208553E2,-3.316995800E-1,4.341721535E-1,1.543960720E-1
1.535249240E2,4.474584386E-2,-1.905898154E-1,-4.363101721E-1
1.540289926E2,-4.396699369E-1,2.226602137E-1,4.793761373E-1
1.545330611E2,1.753181964E-1,-2.388481349E-1,-6.650790572E-1
1.550371296E2,-2.620609999E-1,3.207040019E-3,8.116865754E-1
1.555411978E2,-7.208204269E-2,-1.802051067E-1,-7.852666974E-1
1.560452656E2,1.131627038E-1,-1.101083755E-1,8.991929293E-1
1.565493332E2,-8.842267841E-2,-4.715875983E-1,-8.848376274E-1
1.570534006E2,-1.698204130E-1,1.206457913E-1,1.040608168E0
1.575574679E2,-3.051269650E-1,7.605266571E-2,-7.403681278E-1
1.580615350E2,4.967857897E-1,-1.514944583E-1,7.017309070E-1
1.585656019E2,-4.483747482E-1,1.415679157E-1,-8.419243693E-1
1.590696681E2,1.166751757E-1,-7.696896046E-2,4.386008978E-1
1.595737337E2,-1.748600453E-1,8.124501258E-2,-4.647153914E-1
1.600777985E2,-5.222893879E-2,-3.032943606E-1,5.734493136E-1
1.605818625E2,5.122101307E-1,1.036942974E-1,-6.180424690E-1
1.610859258E2,-2.136499584E-1,-2.912297845E-1,3.882045746E-1
1.615899884E2,5.940660089E-2,1.879936308E-1,-4.088212550E-1
1.620940510E2,-1.244636998E-1,-4.630354941E-1,1.705839932E-1
1.625981142E2,5.115992576E-2,3.649916947E-1,-1.296560466E-1
1.631021781E2,-3.871355653E-1,-2.226602137E-1,-5.039634556E-2
1.636062426E2,5.864302069E-2,3.608683646E-1,9.819651395E-2
1.641103075E2,-1.641699076E-1,-3.555232882E-1,-2.887863219E-1
1.646143730E2,1.806632578E-1,3.353647590E-1,1.299614757E-1
1.651184393E2,-2.412915826E-1,-3.707949221E-1,-2.246455252E-1
1.656225065E2,-2.000582218E-1,4.987711012E-1,2.684750557E-1
1.661265747E2,9.621120058E-3,-6.030762792E-1,-2.652680278E-1
1.666306435E2,-9.651663154E-2,4.011854529E-1,2.325867712E-1
1.671347128E2,-3.191768378E-2,-8.414662629E-2,-4.372264743E-1
1.676387823E2,-1.366809905E-1,5.864302069E-2,5.232056975E-1
1.681428524E2,7.712167501E-2,-3.695732057E-1,-4.028653204E-1
1.686469227E2,6.032289565E-2,-1.382081509E-1,4.218021333E-1
1.691509930E2,-3.417788446E-1,-1.082757786E-1,-4.787652791E-1
1.696550633E2,-1.620318890E-1,2.608392537E-1,7.623592615E-1
1.701591334E2,-2.713766694E-1,-3.170388341E-1,-6.626355648E-1
1.706632031E2,9.743293375E-2,5.203040838E-1,7.544180155E-1
1.711672724E2,4.886918142E-2,-2.493855506E-1,-6.774490476E-1
1.716713412E2,1.933387071E-1,-3.726275265E-2,7.970257998E-1
1.721754095E2,-5.647444725E-1,1.728747338E-1,-7.060069442E-1
1.726794771E2,1.264490038E-1,-1.447749585E-1,8.962913752E-1
1.731835443E2,-1.598938555E-1,1.487455666E-1,-9.923498631E-1
1.736876112E2,9.285144508E-2,-3.903425932E-1,6.085740328E-1
1.741916781E2,-3.237583488E-2,2.118173689E-1,-5.024362803E-1
1.746957449E2,-3.219257295E-1,-1.368337125E-1,3.048215210E-1
1.751998117E2,2.773326039E-1,1.711948514E-1,-4.266890585E-1
1.757038785E2,-2.458730787E-1,-4.958694875E-1,5.131264329E-1
1.762079453E2,1.814268380E-1,2.296851575E-1,-6.612611413E-1
1.767120119E2,-9.162971377E-2,-3.857611120E-1,4.080576599E-1
1.772160788E2,-8.414662629E-2,3.614792228E-1,-4.069886506E-1
1.777201463E2,-6.516399980E-1,-3.526217043E-1,5.480984449E-1
1.782242144E2,3.054323839E-3,1.760817766E-1,-2.464839369E-1
1.787282829E2,-1.663079411E-1,-6.302597523E-1,-3.191768378E-2
1.792323514E2,1.910479665E-1,2.008218020E-1,4.398226365E-2
1.797364198E2,-3.203985691E-1,-3.762927055E-1,-2.000582218E-2
1.802404881E2,4.332558513E-1,1.084284950E-2,-4.940368831E-1
1.807445561E2,-3.978256881E-1,-8.842267841E-2,2.962694168E-1
1.812486240E2,-6.444623321E-2,4.040870368E-1,7.254019380E-2
1.817526916E2,-4.822777510E-1,-7.284562290E-2,2.315177470E-1
1.822567591E2,3.966039717E-1,9.819651395E-2,-4.885390997E-1
1.827608265E2,-3.373500705E-1,-4.239401519E-1,2.451094985E-1
1.832648937E2,-6.154462695E-2,2.567159235E-1,-1.149952933E-1
1.837689608E2,-1.721111536E-1,-7.396045327E-1,-5.426006317E-1
1.842730277E2,9.101885557E-2,1.101083755E-1,5.940660238E-1
1.847770943E2,-2.486219704E-1,-3.225366175E-1,-6.837103963E-1
1.852811605E2,2.122755051E-1,6.276635826E-2,9.851721525E-1
1.857852264E2,-3.364337683E-1,-2.565632164E-1,-9.451605082E-1
1.862892920E2,-1.527161949E-4,3.039052337E-2,9.856303334E-1
1.867933573E2,-1.733328849E-1,2.580903769E-1,-1.091615319E0
1.872974223E2,3.185659945E-1,-4.277580678E-1,1.116050005E0
1.878014871E2,-3.304778337E-1,3.582721949E-1,-7.805324793E-1
1.883055517E2,-2.779434808E-2,-5.534434915E-1,4.407389462E-1
1.888096159E2,1.962403059E-1,-5.548179150E-1,-1.580612659E-1
1.893136799E2,-1.418733448E-1,3.770562708E-1,1.343902498E-1
1.898177436E2,3.565923274E-1,3.138317764E-1,-3.695732057E-1
1.903218071E2,1.970038936E-2,-7.105884552E-1,-2.408334464E-1
1.908258703E2,3.252854943E-1,1.053741761E-2,7.096721530E-1
1.913299333E2,-3.063486814E-1,-6.763800383E-1,-2.408334464E-1
1.918339961E2,-2.469420880E-1,3.666715920E-1,5.955931544E-2
1.923380587E2,2.761108875E-1,-7.490729094E-1,-4.083631039E-1
1.928421210E2,-2.944368124E-1,2.733619809E-1,2.840521187E-2
1.933461829E2,3.634645417E-2,-5.294670463E-1,-2.701549530E-1
1.938502443E2,1.145371422E-2,2.871064544E-1,3.680460155E-1
1.943543053E2,-4.874700904E-1,2.420551628E-1,-2.611446977E-1
1.948583660E2,2.997818887E-1,-3.677406013E-1,5.751292109E-1
1.953624264E2,-1.237001196E-1,1.847865991E-2,-4.245510325E-2
1.958664869E2,2.501491308E-1,2.777907550E-1,-1.113301069E-1
1.963705478E2,6.032289565E-2,7.269290835E-2,4.046979174E-2
1.968746089E2,-6.734783947E-2,2.244928107E-2,-7.330377400E-2
1.973786703E2,5.299251899E-2,-3.608683646E-1,1.441640854E-1
1.978827317E2,2.197586000E-1,-5.726857185E-1,2.901607659E-3
1.983867928E2,-3.527744114E-2,1.273653060E-1,-1.252272818E-2
1.988908536E2,-2.109010667E-1,-1.191186346E-2,3.089448512E-1
1.993949139E2,-1.543960720E-1,5.264127254E-1,-8.842267841E-2
1.998989741E2,-5.421425030E-2,-4.689914286E-1,-1.317940801E-1
2.004030341E2,-5.390881747E-2,2.186895907E-1,-6.597339362E-2
2.009070939E2,6.139190868E-2,-1.875354946E-1,-1.850920320E-1
2.014111534E2,-4.144717455E-1,7.635809481E-2,2.585485280E-1
2.019152255E2,1.285870373E-1,-2.640463114E-1,-5.238165334E-2
2.024192719E2,-1.554650813E-1,3.556760252E-1,2.008218020E-1
2.029233308E2,1.985310465E-1,-2.715294063E-1,-3.749182522E-1
2.034273895E2,-2.396117151E-1,3.558287397E-2,5.635227561E-1
2.039314480E2,2.565632164E-1,-1.233946830E-1,-6.986765862E-1
2.044355063E2,-4.462367296E-1,2.342666388E-1,5.300779343E-1
2.049395644E2,1.591302752E-1,-2.840521336E-1,-4.853320718E-1
2.054436223E2,3.411679864E-1,-1.759290546E-1,5.059487820E-1
2.059476800E2,-1.944077164E-1,8.872810751E-2,-9.532544613E-1
2.064517374E2,-4.912880063E-1,8.185587823E-2,1.052367330E0
2.069557947E2,4.581485991E-4,1.542433538E-2,-9.807434082E-1
2.074598518E2,5.482511222E-2,-1.533270627E-1,1.075427413E0
2.079639087E2,-2.926042378E-1,-5.757400393E-2,-1.334586859E0
2.084679653E2,-5.578722358E-1,1.591302752E-1,1.372307777E0
2.089720216E2,1.343902480E-2,3.039052188E-1,-1.001360059E0
2.094760777E2,1.679878123E-2,2.939786613E-1,8.043562174E-1
2.099801336E2,-5.035052896E-1,6.774490476E-1,-4.828886092E-1
2.104842022E2,-3.941605091E-1,4.474584460E-1,-6.001746282E-2
2.109882457E2,-3.071122766E-1,9.315688163E-2,2.090684772E-1
2.114923025E2,-7.620538026E-2,-8.002328873E-2,-4.627300799E-1
2.119963599E2,1.647807807E-1,-4.123337101E-3,1.383608729E-1
2.125004177E2,-1.511890292E-1,1.482874304E-1,-2.328922004E-1
2.130044755E2,-8.857539296E-2,4.566214234E-2,4.172206521E-1
2.135085332E2,8.857538924E-3,-2.124282271E-1,-4.424188137E-1
2.140125905E2,-3.491092324E-1,2.617555559E-1,5.500837564E-1
2.145166479E2,8.903354406E-2,-1.498145908E-1,-7.024945021E-1
2.150207056E2,-3.303251266E-1,1.527161989E-2,8.688024282E-1
2.155247638E2,2.443459118E-3,-2.787070572E-1,-8.897245526E-1
2.160288225E2,-2.182314396E-1,1.849393100E-1,8.878919482E-1
2.165328815E2,-8.826996386E-2,-1.458439678E-1,-9.396627545E-1
2.170369404E2,-3.017672002E-1,4.827359021E-1,1.113759160E0
2.175409990E2,-1.466075480E-1,-5.899426341E-1,-1.327714562E0
2.180450573E2,4.291325063E-2,-2.474002354E-2,7.742711306E-1
2.185491151E2,4.764745384E-2,-2.924515009E-1,-4.326449931E-1
2.190531725E2,3.669770062E-1,-4.871646687E-2,3.714057803E-1
2.195572296E2,-3.422369957E-1,3.741546720E-2,-3.312414289E-1
2.200612862E2,7.467821985E-2,-4.963276163E-2,6.879864335E-1
2.205653424E2,-1.255327165E-1,1.372918636E-1,-4.219548404E-1
2.210693983E2,1.272125840E-1,-2.727511227E-1,6.861538887E-1
2.215734538E2,-1.455385387E-1,3.031416535E-1,-7.371610999E-1
2.220775091E2,-2.066250145E-1,-3.081812859E-1,7.024945021E-1
2.225815641E2,1.177441850E-1,3.164279461E-1,-5.962040424E-1
2.230856188E2,-1.237001196E-1,-3.046688139E-1,2.878700197E-1
2.235896733E2,-7.864884287E-2,-9.025526792E-2,-4.437932670E-1
2.240937274E2,-4.520399496E-2,-4.242455959E-1,9.330959618E-2
2.245977814E2,2.324340492E-1,1.209512278E-1,2.264781147E-1
2.251018350E2,-1.820377111E-1,-1.020907760E0,-4.889972508E-1
2.256058884E2,-6.395754218E-1,9.208786488E-1,2.512181401E-1
2.261099415E2,-1.333212405E-1,-2.759581506E-1,-2.131918073E-1
2.266139944E2,-2.118173689E-1,3.281871080E-1,7.719803452E-1
2.271180469E2,9.560033679E-2,-8.694133162E-1,-7.721330523E-1
2.276220992E2,-8.093958721E-3,6.088794470E-1,4.130973220E-1
2.281261514E2,-1.585194170E-1,-6.829468012E-1,-9.022472501E-1
2.286302033E2,-3.359756172E-1,2.255618125E-1,5.279398561E-1
2.291342550E2,1.763872057E-1,-7.127264738E-1,-1.338557482E0
2.296383065E2,3.087921441E-1,3.344484791E-2,7.596103549E-1
2.301423583E2,3.839285076E-1,-6.630937457E-1,-6.423243284E-1
2.306464104E2,-1.881463528E-1,-5.177079141E-2,9.462295175E-1
2.311504633E2,2.290742937E-3,-2.034179717E-1,-1.222798586E0
2.316545166E2,-8.811724186E-2,-1.046105921E-1,1.378110886E0
2.321585703E2,-5.192350596E-2,-2.167042792E-1,-1.407432437E0
2.326626241E2,-1.023198478E-2,-3.481929302E-1,1.432325244E0
2.331666778E2,-7.040216774E-2,2.281579971E-1,-1.408348799E0
2.336707313E2,5.671879649E-1,-9.422589093E-2,8.765909672E-1
2.341747846E2,-4.132500291E-1,2.393062711E-1,-6.033816934E-1
2.346788379E2,-1.290451884E-1,-2.089157552E-1,3.269653618E-1
2.351828910E2,-7.345648855E-2,5.513054505E-2,-2.466366589E-1
2.356869441E2,2.193004489E-1,-8.335250020E-1,4.334085584E-1
2.361909971E2,-2.536616027E-1,3.426951468E-1,-2.712239623E-1
2.366950499E2,-2.808450758E-1,-3.622428179E-1,2.808450758E-1
2.371991025E2,7.528908551E-2,4.303542376E-1,-6.795870513E-2
2.377031551E2,-4.373791814E-1,-6.227766275E-1,-6.383536756E-2
2.382072077E2,-4.062250629E-2,7.564033270E-1,-7.819069177E-2
2.387112603E2,-3.145953715E-1,-4.951058924E-1,-4.288270772E-1
2.392153128E2,4.245510325E-2,4.445568323E-1,2.380845547E-1
2.397193651E2,2.015853859E-2,-9.585995674E-1,-4.879282415E-1
2.402234173E2,-5.558869243E-1,5.455022454E-1,5.627591610E-1
2.407274692E2,-1.090393662E-1,-5.520690680E-1,-7.620537877E-1
2.412315211E2,-5.768090487E-1,6.039925218E-1,6.313287616E-1
2.417355729E2,3.741546720E-2,-6.652317643E-1,-7.402154207E-1
2.422396246E2,-2.188423127E-1,5.575668216E-1,8.866702318E-1
2.427436763E2,-3.237583488E-2,-1.847866029E-1,-9.097303748E-1
2.432477280E2,-3.129154742E-1,1.841757298E-1,8.571959734E-1
2.437517797E2,-9.422589093E-2,-3.901898861E-1,-9.868520498E-1
2.442558313E2,1.977674663E-1,1.357647032E-1,6.511818767E-1
2.447598828E2,-2.390008420E-1,-1.553123742E-1,-7.557924390E-1
2.452639342E2,1.120936871E-1,-2.739728391E-1,1.079092622E0
2.457679855E2,-2.159406990E-1,2.622137070E-1,-1.101236463E0
2.462720365E2,6.108647957E-2,-1.435532272E-1,1.315955400E0
2.467760869E2,-5.804742575E-1,6.933315098E-2,-1.289382815E0
2.472801364E2,2.458730787E-1,-3.026835024E-1,1.188590169E0
2.477841850E2,-6.661480665E-1,1.646280587E-1,-1.093447924E0
2.482882326E2,3.068068326E-1,-3.949240744E-1,1.120478749E0
2.487922792E2,-7.139481902E-1,1.505781710E-1,-1.172249556E0
2.492963248E2,-1.566868126E-1,-1.818849891E-1,1.113148332E0
2.498003694E2,-1.536324918E-1,2.131918073E-1,-1.077260017E0
2.503044130E2,-2.231183648E-1,-1.716530025E-1,9.086613655E-1
2.508084557E2,-2.698495090E-1,1.047633067E-1,-9.004147053E-1
2.513124975E2,-4.596757516E-2,-5.671879649E-1,3.886627257E-1
2.518165384E2,5.100720748E-2,2.919933498E-1,-4.129445851E-1
2.523205785E2,-2.362519503E-1,-2.284634262E-1,4.095848203E-1
2.528246177E2,1.351538301E-1,1.707367003E-1,-3.150535226E-1
2.533286562E2,-4.633409381E-1,-2.736674249E-1,4.587594569E-1
2.538326939E2,1.256854236E-1,3.958403766E-1,-3.526217043E-1
2.543367310E2,-5.619956255E-1,-3.339903057E-1,3.008508980E-1
2.548407680E2,7.284562290E-2,4.474584460E-1,-2.199113220E-1
2.553448053E2,-4.618137777E-1,-4.332558513E-1,1.499672979E-1
2.558488429E2,1.073594838E-1,1.505781710E-1,-2.950477004E-1
2.563528808E2,-5.201513767E-1,-3.559814394E-1,2.420551628E-1
2.568569192E2,1.424842030E-1,3.998109996E-1,-9.712749720E-2
2.573609577E2,-3.952295184E-1,-6.444623321E-2,-1.566868126E-1
2.578649965E2,7.406735420E-2,4.363101721E-1,2.426660359E-1
2.583690355E2,-2.474002391E-1,-3.711003661E-1,-5.064069033E-1
2.588730748E2,-1.641699076E-1,3.900371492E-1,1.986837685E-1
2.593771140E2,-2.014326602E-1,-1.441640854E-1,-7.179188132E-1
2.598811537E2,-6.032289863E-1,4.040870368E-1,9.909753799E-1
2.603851936E2,-2.932151034E-2,-6.604975462E-1,-1.112995625E0
2.608892342E2,-3.816377819E-1,4.511236250E-1,1.283732295E0
2.613932759E2,-2.128863782E-1,-3.191768527E-1,-1.235626698E0
2.618973188E2,-2.006690800E-1,3.199404180E-1,1.370475173E0
2.624013628E2,-2.189950198E-1,-2.658788860E-1,-1.467602611E0
2.629054076E2,-4.279107749E-1,2.524398565E-1,1.725692987E0
2.634094531E2,-9.101885557E-2,4.902189970E-2,-1.747378707E0
2.639134990E2,2.052505612E-1,-2.741255760E-1,1.798691392E0
2.644175451E2,-7.379246354E-1,-2.625191510E-1,-1.600465775E0
2.649215910E2,3.549124300E-1,-1.182023361E-1,1.511584878E0
2.654256369E2,-8.300125003E-1,3.953822255E-1,-1.277929068E0
2.659296828E2,2.528980076E-1,-1.725693047E-1,1.195309639E0
2.664337284E2,-3.765981495E-1,3.680460155E-2,-1.330921650E0
2.669377739E2,-2.280052751E-1,-8.536835015E-2,6.733257174E-1
2.674418192E2,2.751945853E-1,-8.720094711E-2,-4.285216331E-1
2.679458643E2,1.817322709E-2,-2.287688553E-1,1.872300506E-1
2.684499091E2,1.336266696E-1,-4.657844082E-2,2.524398565E-1
2.689539538E2,-1.252272818E-2,-3.906480372E-1,-4.253146052E-1
2.694579982E2,-2.932151034E-2,4.981602132E-1,3.239110410E-1
2.699620424E2,-4.305069447E-1,-9.880737960E-2,2.498437017E-1
2.704660865E2,2.539670467E-1,7.666353136E-2,5.115992576E-2
2.709701303E2,1.221729559E-3,-1.640172005E-1,-1.104138121E-1
2.714741739E2,2.309068888E-1,-4.612028971E-2,-3.793470263E-1
2.719782172E2,-3.491092324E-1,-3.176496923E-1,8.216131479E-2
2.724822603E2,-1.343902480E-2,3.819431961E-1,-1.143844277E-1
2.729863033E2,-1.385135949E-1,-4.674642682E-1,1.832594350E-2
2.734903465E2,-1.889099330E-1,3.930914998E-1,-3.831649423E-1
2.739943902E2,-1.359174121E-2,2.554942071E-1,6.096430421E-1
2.744984345E2,2.840521187E-2,-2.107483447E-1,-3.527744114E-2
2.750024791E2,1.053741761E-2,-3.672824502E-1,4.181369543E-1
2.755065236E2,-2.228129357E-1,3.938550651E-1,-3.042106628E-1
2.760105680E2,1.253799945E-1,-6.928733587E-1,1.710421406E-2
2.765146121E2,-2.999345958E-1,3.382663727E-1,5.329795480E-1
2.770186559E2,1.380554438E-1,-2.849684060E-1,-6.096430421E-1
2.775226995E2,-2.628245652E-1,5.426006317E-1,-1.661552191E-1
2.780267429E2,4.086685479E-1,-4.925097227E-1,2.275471240E-1
2.785307863E2,-2.774853408E-1,2.318231910E-1,6.307178736E-2
2.790348299E2,6.872228812E-3,-1.985310577E-3,-1.007926930E-2
2.795388739E2,-3.346011937E-1,3.866774142E-1,2.377791107E-1
2.800429182E2,1.740964688E-2,-6.963858604E-1,-1.965457499E-1
2.805469627E2,1.886045039E-1,3.359756172E-1,4.037816226E-1
2.810510076E2,-2.021962404E-1,-1.826485693E-1,-5.442805290E-1
2.815550525E2,-2.335030586E-1,1.690568328E-1,6.890554428E-1
2.820590977E2,1.527161896E-1,-2.849684060E-1,-7.379246354E-1
2.825631436E2,-1.372918636E-1,1.374445762E-2,7.922916412E-1
2.830671901E2,-1.597411335E-1,-8.933897316E-2,-8.248201609E-1
2.835712372E2,1.261435747E-1,-1.660024971E-1,8.642209172E-1
2.840752847E2,-3.715584874E-1,1.233946830E-1,-8.072578311E-1
2.845793324E2,2.510654330E-1,-2.932150960E-1,7.706059217E-1
2.850833801E2,-2.058614343E-1,1.481347084E-1,-6.226239204E-1
2.855874278E2,4.321868420E-1,-4.596757591E-1,3.168860972E-1
2.860914754E2,-2.516762912E-1,6.185005978E-2,-3.310887218E-1
2.865955229E2,-7.269290835E-2,-1.324049383E-1,5.494728684E-1
2.870995702E2,-9.468404204E-2,2.512181401E-1,-2.797760665E-1
2.876036172E2,-1.551596522E-1,-3.892735839E-1,1.647807807E-1
2.881076640E2,6.566796452E-2,3.280344009E-1,-9.865466505E-2
2.886117104E2,-2.475529462E-1,-4.175260663E-1,-7.712167501E-2
2.891157567E2,1.603520066E-1,3.674351573E-1,-1.754709035E-1
2.896198028E2,-2.872591615E-1,-3.229947388E-1,1.568395346E-1
2.901238486E2,2.003636509E-1,3.908007443E-1,-3.894263133E-2
2.906278944E2,-2.513708472E-1,-2.402225733E-1,1.583666950E-1
2.911319399E2,-2.655734718E-1,4.386008978E-1,-1.414151937E-1
2.916359852E2,6.001746282E-2,-2.144135386E-1,-7.009673119E-2
2.921400303E2,-8.338304609E-2,1.485928595E-1,1.595884264E-1
2.926440750E2,1.204930767E-1,-6.650790572E-1,-1.864664704E-1
2.931481195E2,1.649334840E-2,1.605047137E-1,2.906189263E-1
2.936521637E2,-1.015562713E-1,2.183841541E-2,-4.297433794E-1
2.941562077E2,-2.090684772E-1,4.101957083E-1,4.815141559E-1
2.946602515E2,-1.284343153E-1,-2.791652083E-1,-4.444041252E-1
2.951642950E2,-1.539379209E-1,3.271180987E-1,5.166388750E-1
2.956683382E2,-6.459894776E-2,-1.886045039E-1,-6.495019794E-1
2.961723812E2,-8.643736690E-2,3.164279461E-1,6.383537054E-1
2.966764240E2,1.719584316E-1,-4.995346665E-1,-5.282453299E-1
2.971804665E2,-1.317940801E-1,1.101083755E-1,5.722275972E-1
2.976845142E2,9.743293375E-2,-2.251036763E-1,-4.549415410E-1
2.981885507E2,5.054906011E-2,2.255618125E-1,3.698786199E-1
2.986925923E2,-2.415970266E-1,-1.122464016E-1,-4.615083337E-1
2.991966337E2,1.640172005E-1,-1.221729559E-3,7.467821836E-1
2.997006748E2,-3.196350038E-1,-5.222893879E-2,-5.777253509E-1
3.002047156E2,3.022253513E-1,-2.061668634E-1,5.146535635E-1
3.007087562E2,-4.425715208E-1,3.327685893E-1,-3.630063832E-1
3.012127966E2,5.358811021E-1,-5.418370366E-1,5.861247778E-1
3.017168367E2,-5.007563829E-1,2.599229515E-1,-4.969384968E-1
3.022208767E2,-8.704823256E-2,3.378082216E-1,4.593703151E-1
3.027249165E2,2.138026655E-1,-3.940077722E-1,1.320995092E-1
3.032289560E2,-3.451386094E-2,-3.730856776E-1,-2.525925934E-1
3.037329954E2,-1.889099330E-1,3.242164850E-1,-1.930332631E-1
3.042370345E2,-1.420260593E-2,-4.190532267E-1,1.591302752E-1
3.047410734E2,3.207040019E-3,4.344775677E-1,-8.353576064E-2
3.052451120E2,-2.118173689E-1,-4.983129501E-1,-9.957095981E-2
3.057491505E2,-8.949168772E-2,5.077813268E-1,2.446513474E-1
3.062531888E2,-2.047924101E-1,-4.352411628E-1,-1.437059343E-1
3.067572268E2,2.199113183E-2,4.922043085E-1,1.481347084E-1
3.072612647E2,-8.903354406E-2,-5.737547278E-1,-2.802342176E-1
3.077653023E2,-3.207040019E-3,6.114756465E-1,-5.314523727E-2
3.082693399E2,-9.117157012E-2,-4.213439822E-1,-1.447749585E-1
3.087733773E2,-3.474293351E-1,4.708240330E-1,2.991710305E-1
3.092774146E2,3.054323792E-1,-4.856374860E-1,-2.179260105E-1
3.097814518E2,-9.728021920E-2,3.695731983E-2,4.193586707E-1
3.102854887E2,-2.530507445E-1,-3.620901108E-1,-7.325795889E-1
3.107895254E2,3.924806044E-2,2.524398565E-1,9.947932959E-1
3.112935620E2,-2.935205400E-1,1.516471803E-1,-9.560033679E-1
3.117975983E2,1.282816008E-2,4.948004708E-2,1.050840139E0
3.123016346E2,-3.878991306E-1,3.269653618E-1,-1.051450968E0
3.128056705E2,6.200277433E-2,-4.211912751E-1,8.863648176E-1
3.133097058E2,6.414080039E-3,1.605047137E-1,-5.343539715E-1
3.138137405E2,2.687804960E-2,-3.715584874E-1,4.138608873E-1
3.143177748E2,-2.780961990E-1,6.585122347E-1,-4.005745649E-1
3.148218091E2,-5.749764442E-1,-3.245218992E-1,3.623955250E-1
3.153258437E2,2.231183648E-1,-2.072358727E-1,-1.740964688E-2
3.158298783E2,1.009454057E-1,-3.959930837E-1,-6.655371785E-1
3.163339130E2,4.499019086E-1,1.635590494E-1,-2.794706449E-2
3.168379477E2,-5.082395077E-1,-2.327394783E-1,-2.455676347E-1
3.173419824E2,2.220493406E-1,2.235765159E-1,4.477638900E-1
3.178460171E2,-2.316704690E-1,-3.498727977E-1,-4.499019086E-1
3.183500518E2,-6.224712133E-1,3.895790279E-1,4.870119393E-1
3.188540864E2,2.884808779E-1,-3.442223072E-1,-5.816959739E-1
3.193581209E2,-4.584540129E-1,2.231183648E-1,3.171915412E-1
3.198621554E2,1.721111536E-1,-3.188714087E-1,-1.320995092E-1
3.203661899E2,-5.894844979E-2,3.060432673E-1,4.437932670E-1
3.208702243E2,-3.822486401E-1,7.391463965E-2,-6.319395900E-1
3.213742587E2,2.312123179E-1,-8.124501258E-2,8.006910086E-1
3.218782930E2,-5.943714380E-1,-2.773326039E-1,-5.936078429E-1
3.223823274E2,3.074176908E-1,4.642572254E-2,6.931788325E-1
3.228863618E2,-6.849321127E-1,2.599229515E-1,-6.821832657E-1
3.233903963E2,5.494728684E-1,-4.714348912E-1,4.553996921E-1
3.238944308E2,-2.733619809E-1,-8.552107215E-2,-3.921751976E-1
3.243984652E2,2.765690386E-1,-4.625773430E-1,4.471530318E-1
3.249024995E2,-1.902843714E-1,3.034470677E-1,-4.482220411E-1
3.254065335E2,-6.658425927E-2,-2.302960157E-1,4.841103405E-2
3.259105674E2,4.523453712E-1,-4.101957083E-1,4.505127668E-2
3.264146011E2,-1.340848207E-1,-7.182242870E-1,-3.824013472E-1
3.269186346E2,5.345066637E-2,6.647735834E-1,4.560105503E-1
3.274226678E2,1.223256737E-1,-3.938550651E-1,-2.551887631E-1
3.279267008E2,-2.875646055E-1,6.330085993E-1,1.238528341E-1
3.284307335E2,-4.978547990E-2,-5.755873322E-1,3.912588954E-1
3.289347659E2,-1.061377525E-1,4.166097939E-1,-7.095194459E-1
3.294387981E2,-1.551596522E-1,-7.620538026E-2,1.333212405E-1
3.299428302E2,1.689041108E-1,3.935496211E-1,4.123337194E-2
3.304468621E2,-1.507308781E-1,-5.873464942E-1,1.175914705E-2
3.309508939E2,-1.340848207E-1,4.935787320E-1,1.785252392E-1
3.314549257E2,-1.127045527E-1,-3.597993553E-1,-2.927569449E-1
3.319589573E2,-2.252563834E-1,3.779725730E-1,2.869537175E-1
3.324629887E2,-5.879573524E-2,-5.740602016E-1,-2.616028488E-1
3.329670199E2,-2.203694731E-1,5.424479246E-1,3.194822669E-1
3.334710509E2,-2.715294063E-1,-3.614792228E-1,-5.539016128E-1
3.339750816E2,1.684459597E-1,1.203403622E-1,3.903425932E-1
3.344791121E2,-3.711003438E-2,-2.440404743E-1,-4.463894367E-1
3.349831423E2,-1.954767257E-1,2.571740746E-1,8.782708645E-1
3.354871724E2,2.993237376E-1,-4.731147587E-1,-6.395754218E-1
3.359912022E2,-4.395172000E-1,3.804160357E-1,8.410080671E-1
3.364952318E2,6.383536756E-2,-4.454731345E-1,-7.544180155E-1
3.369992612E2,-2.834412456E-1,3.878991306E-1,9.581413865E-1
3.375032902E2,-2.854265571E-1,-3.714057803E-1,-1.029001713E0
3.380073190E2,-1.313359290E-2,3.283398226E-2,1.059239507E0
3.385113475E2,-1.241582632E-1,-4.647153914E-1,-1.142469883E0
3.390153758E2,3.051269650E-1,5.665770918E-2,1.317024469E0
3.395194039E2,-6.472112536E-1,2.609919906E-1,-1.254563570E0
3.400234320E2,2.632827163E-1,-5.222893879E-2,1.390480995E0
3.405274599E2,-6.394227147E-1,-4.428769648E-2,-1.369253397E0
3.410314877E2,4.954113364E-1,-2.645044625E-1,1.243720651E0
3.415355154E2,-7.672461867E-1,1.496618688E-1,-1.181565166E0
3.420395431E2,1.160643101E-1,-3.645335436E-1,1.356730700E0
3.425435706E2,-7.464767694E-1,-1.458439678E-1,-1.340695500E0
3.430475979E2,4.436405599E-1,-6.062832847E-2,1.333365083E0
3.435516251E2,-5.352702737E-1,-6.627883017E-2,-8.921679854E-1
3.440556521E2,3.171915412E-1,-1.201876476E-1,6.911935210E-1
3.445596792E2,-3.764454126E-1,2.402225733E-1,-8.032872081E-1
3.450637066E2,9.086613357E-2,-3.860665262E-1,7.437278628E-1
3.455677345E2,-1.994473487E-1,3.604102135E-2,-8.063415289E-1
3.460717628E2,-1.038470119E-1,-3.674351573E-1,6.534726024E-1
3.465757915E2,-1.627954692E-1,3.955349326E-1,-7.053961158E-1
3.470798205E2,-2.362519503E-1,-4.966330528E-1,4.248564541E-1
3.475838495E2,1.912006736E-1,5.360338464E-2,-2.353356630E-1
3.480878785E2,-3.202458620E-1,-1.809686869E-1,1.142317131E-1
3.485919073E2,-1.945604384E-1,6.169734001E-1,1.644753367E-1
3.490959359E2,-2.886336148E-1,-1.962403059E-1,-1.282816082E-1
3.495999644E2,3.323104382E-1,1.696676910E-1,6.918043643E-2
3.501039926E2,-4.880809486E-1,-3.973675370E-1,1.201876476E-1
3.506080206E2,1.430950761E-1,3.129154742E-1,-9.376774728E-2
3.511120483E2,-1.514944583E-1,-4.506655037E-1,-2.993237413E-2
3.516160758E2,7.788526267E-2,6.070469022E-1,-6.017018110E-2
3.521201031E2,-4.237874448E-1,-3.712530732E-1,-3.061959743E-1
3.526241300E2,4.734201822E-3,4.648680985E-1,3.674351573E-1
3.531281568E2,-1.382081509E-1,-2.054032832E-1,-4.941896200E-1
3.536321834E2,-1.296560466E-1,-1.432477981E-1,4.515817761E-1
3.541362102E2,1.771507859E-1,-5.074759126E-1,-5.557342172E-1
3.546402375E2,1.313359290E-2,-5.665770918E-2,8.732311726E-1
3.551442651E2,-2.565632164E-1,-5.248855352E-1,-7.356339097E-1
3.556482930E2,-1.130099818E-1,8.342885971E-1,2.955058515E-1
3.561523208E2,4.361574650E-1,-3.161225319E-1,-1.606574357E-1
3.566563487E2,-6.879864335E-1,2.684750557E-1,5.467239618E-1
3.571603766E2,6.154462695E-2,-6.543889046E-1,-5.190823674E-1
3.576644048E2,-7.886264324E-1,1.887572110E-1,4.153880477E-1
3.581684335E2,5.636754632E-1,-7.935133576E-1,-5.328267813E-1
3.586724625E2,-4.105011225E-1,7.382301092E-1,5.297724605E-1
3.591764919E2,-8.399390616E-3,-4.805978537E-1,-6.782126427E-1
3.596805213E2,-3.323104382E-1,7.052434087E-1,7.583886385E-1
3.601845506E2,1.502727419E-1,-4.590648711E-1,-9.828814268E-1
3.606885795E2,-4.089739621E-1,3.889681399E-1,8.182533979E-1
3.611926082E2,2.637408674E-1,-4.260781705E-1,-7.890845537E-1
3.616966366E2,-5.134318471E-1,5.004509687E-1,8.038980365E-1
3.622006649E2,2.052505612E-1,-4.192059636E-1,-1.008843184E0
3.627046930E2,-3.465130329E-1,4.633409381E-1,7.961094975E-1
3.632087210E2,1.032361463E-1,-3.921751976E-1,-6.055197120E-1
3.637127489E2,4.474584386E-2,3.387245238E-1,6.200277805E-1
3.642167767E2,-1.695149690E-1,-7.255546451E-1,-6.333140731E-1
3.647208043E2,-2.342666388E-1,4.257727563E-1,6.814196706E-1
3.652248317E2,-1.832594397E-3,-4.195113778E-1,-9.825760126E-1
3.657288588E2,-3.633118272E-1,3.943132162E-1,9.469931126E-1
3.662328858E2,-1.145371497E-1,-6.102539301E-1,-5.464185476E-1
3.667369124E2,-2.803869247E-1,3.517054021E-1,3.652971387E-1
3.672409389E2,1.169806048E-1,-3.226893246E-1,-2.383899838E-1
3.677449651E2,-1.603520103E-2,6.924152374E-1,3.054323839E-3
3.682489910E2,-3.761399984E-1,-2.087630332E-1,2.440404743E-1
3.687530169E2,4.340194166E-1,1.580612659E-1,-2.322813272E-1
3.692570425E2,-3.472766280E-1,1.893680729E-2,5.574141145E-1
3.697610679E2,1.493564397E-1,-6.400335431E-1,-1.024572968E0
3.702650931E2,-1.307250559E-1,3.885099888E-1,1.128878117E0
3.707691181E2,2.145662606E-1,-1.540906429E-1,-8.142827749E-1
3.712731427E2,4.948004708E-2,-1.288924664E-1,4.706713259E-1
3.717771672E2,1.191186346E-2,6.627883017E-2,-2.784016132E-1
3.722811913E2,-1.116355360E-1,3.222311661E-2,2.087630332E-1
3.727852151E2,3.924806044E-2,1.542433538E-2,-1.157588735E-1
3.732892388E2,2.474002354E-2,-2.550360374E-2,4.963276163E-2
3.737932622E2,2.492328286E-1,-4.046979249E-1,1.185077652E-1
3.742972853E2,1.722638607E-1,-2.458730787E-1,-2.953531146E-1
3.748013083E2,-5.560396910E-1,4.256200492E-1,4.214966893E-1
3.753053313E2,8.246674202E-3,-1.629481763E-1,-1.876882017E-1
3.758093541E2,1.050687432E-1,3.362810612E-1,4.318813980E-1
3.763133769E2,-1.099556591E-2,-3.825540543E-1,-4.384481907E-1
3.768173995E2,-1.459966749E-1,6.571378112E-1,-1.232419685E-1
3.773214221E2,-1.989891976E-1,-2.588539422E-1,-2.933678031E-1
3.778254446E2,-1.053741761E-2,-1.130099874E-2,4.292852283E-1
3.783294670E2,-4.305069447E-1,-7.330377586E-3,-5.920807123E-1
3.788334894E2,4.757109582E-1,-1.776089370E-1,8.523091078E-1
3.793375118E2,-5.754346251E-1,5.879573524E-2,-4.715875983E-1
3.798415340E2,3.068068326E-1,-2.973384261E-1,7.121156454E-1
3.803455559E2,-2.275471240E-1,2.386954129E-1,-7.339540124E-1
3.808495778E2,-1.663079411E-1,-5.438223481E-1,2.495382577E-1
3.813535995E2,6.444623321E-2,7.855721116E-1,3.772090077E-1
3.818576212E2,-3.391826749E-1,-9.772309065E-1,-7.385355234E-1
3.823616428E2,-2.608392537E-1,5.757400393E-1,8.384119272E-1
3.828656644E2,-2.539670467E-1,-4.944950342E-1,-9.137009978E-1
3.833696859E2,-5.451968312E-2,3.454440236E-1,6.951641440E-1
3.838737075E2,-5.421425030E-2,-2.165515572E-1,-8.324559927E-1
3.843777289E2,1.113301069E-1,1.185077652E-1,7.892373204E-1
3.848817504E2,-2.281579971E-1,-6.252201200E-1,-6.311760545E-1
3.853857718E2,-4.100429714E-1,5.180133581E-1,7.703005075E-1
3.858897933E2,-1.547015011E-1,-3.463603258E-1,-6.992874742E-1
3.863938145E2,-6.527090073E-1,5.668824911E-1,7.095194459E-1
3.868978357E2,1.437059343E-1,-5.056433082E-1,-7.489202023E-1
3.874018568E2,-4.092793912E-2,2.374736816E-1,1.021671295E0
3.879058776E2,-3.953822255E-1,-1.913533956E-1,-1.221118689E0
3.884098981E2,2.643517256E-1,-8.338304609E-2,1.242498994E0
3.889139186E2,-3.911061883E-1,-6.398808211E-2,-7.715222239E-1
3.894179387E2,2.643517256E-1,-5.726857483E-2,9.217949510E-1
3.899219587E2,-2.318231910E-1,1.336266696E-1,-5.210676789E-1
3.904259783E2,-1.000291109E-1,-2.774853408E-1,3.668242991E-1
3.909299978E2,-4.153880477E-2,1.157588735E-1,-4.581485987E-1
3.914340170E2,-3.375027776E-1,-5.650499463E-1,2.403752953E-1
3.919380360E2,4.734201822E-3,5.096139312E-1,-5.222893879E-2
3.924420548E2,-4.456258714E-1,-6.843212843E-1,-3.804160357E-1
3.929460734E2,4.245510325E-2,6.290380359E-1,-1.594357044E-1
3.934500919E2,-5.207622424E-2,-5.968148708E-1,-3.680460155E-1
3.939541102E2,-2.067777216E-1,3.459021747E-1,1.003650784E0
3.944581282E2,4.810560122E-2,-5.045742989E-1,6.520981342E-2
3.949621462E2,1.273653060E-1,2.121227980E-1,4.428769462E-3
3.954661638E2,-1.069013379E-3,-5.677987933E-1,-8.333722949E-1
3.959701813E2,-5.375609994E-1,6.285798550E-1,8.956804872E-1
3.964741986E2,1.082757786E-1,-6.872228980E-1,-7.469348907E-1
3.969782156E2,-1.511890292E-1,4.008800089E-1,7.826704979E-1
3.974822325E2,5.681042373E-2,-2.438877672E-1,-6.268999577E-1
3.979862492E2,-5.665770918E-2,4.138609022E-2,7.678570151E-1
3.984902657E2,-1.328630932E-2,-2.060141414E-1,-6.401863098E-1
3.989942821E2,1.159115955E-1,1.510363221E-1,1.640172005E-1
3.994982985E2,-6.841685772E-1,4.581485875E-3,-4.657844082E-2
4.000023147E2,4.590648711E-1,-3.584249020E-1,1.379027218E-1
4.005063308E2,-2.128863782E-1,1.679878086E-1,-1.163697392E-1
4.010103468E2,8.063415438E-2,-3.188714087E-1,3.237583488E-2
4.015143625E2,-2.189950198E-1,-8.933897316E-2,-1.557705179E-2
4.020183775E2,-2.251036763E-1,-3.904953003E-1,-5.543597788E-2
4.025223918E2,1.267544478E-1,2.331976295E-1,-6.123919412E-2
4.030264053E2,-1.188132018E-1,-7.147117704E-2,-1.704312712E-1
4.035304178E2,-1.519526094E-1,4.834994674E-1,2.197586000E-1
4.040344296E2,-1.148425788E-1,-3.410152495E-1,-3.469711840E-1
4.045384405E2,-3.585776389E-1,4.489856064E-1,5.684096813E-1
4.050424505E2,1.435532272E-1,3.100138716E-2,-9.130901098E-1
4.055464597E2,-2.883281708E-1,1.866191924E-1,1.045036912E0
4.060504681E2,-1.024725661E-1,-2.293797284E-1,-1.267849803E0
4.065544758E2,-2.814559340E-1,-1.267544460E-2,1.623220444E0
4.070584826E2,-3.608683646E-1,-1.189659163E-1,-1.585804939E0
4.075624887E2,-1.597411335E-1,-4.260781780E-2,1.752265573E0
4.080664941E2,-2.605338395E-1,-1.841757298E-1,-1.586721301E0
4.085704989E2,4.398226365E-2,-3.992001414E-1,1.499367595E0
4.090745030E2,-3.101665974E-1,-4.398226365E-2,-1.382692456E0
4.095785066E2,-2.270889878E-1,-4.550942481E-1,1.213177443E0
4.100825095E2,4.566214234E-2,3.207040131E-1,-1.192255378E0
4.105865118E2,-4.358520210E-1,-3.474293351E-1,5.823068619E-1
4.110905134E2,3.329212964E-1,3.814850450E-1,-3.681987524E-1
4.115945144E2,-5.427533388E-1,-5.494728684E-1,1.478292793E-1
4.120985148E2,1.786779426E-2,5.592467189E-1,-3.368919194E-1
4.126025146E2,-2.487746775E-1,-4.902189970E-1,-3.946186602E-1
4.131065139E2,1.319467872E-1,3.335321844E-1,4.856374860E-1
4.136105127E2,-2.548833191E-1,-5.025889874E-1,-6.113229394E-1
4.141145109E2,-2.860374451E-1,6.108647585E-1,6.253728271E-1
4.146185086E2,-1.939495653E-1,-5.108356476E-1,-9.711222649E-1
4.151225058E2,-3.979783952E-1,4.578431547E-1,9.645555019E-1
4.156265033E2,3.100138716E-2,-3.559814394E-1,-1.368947983E0
4.161305018E2,-5.371028781E-1,1.634063274E-1,1.512959361E0
4.166345017E2,-3.649916872E-2,-2.083048970E-1,-1.454316378E0
4.171385030E2,-9.773836285E-2,-4.071413875E-1,1.638644814E0
4.176425057E2,-1.052214578E-1,-9.880737960E-2,-1.732565284E0
4.181465098E2,-1.418733448E-1,-8.857538924E-3,1.537088513E0
4.186505154E2,-5.884155035E-1,3.796524704E-1,-1.234710455E0
4.191545223E2,-4.703658819E-2,-1.133154184E-1,1.322064042E0
4.196585304E2,-2.338084877E-1,4.138609022E-2,-1.621235132E0
4.201625396E2,-2.568686306E-1,-1.948658675E-1,1.222187757E0
4.206665499E2,2.073885947E-1,2.218966335E-1,-1.151480079E0
4.211705612E2,-3.153589368E-1,-7.363975048E-1,1.348178625E0
4.216745732E2,-8.903354406E-2,3.943132162E-1,-7.996219993E-1
4.221785857E2,-2.765690386E-1,-7.121156454E-1,2.223547846E-1
4.226825983E2,-6.261363626E-2,3.507890999E-1,-2.412915826E-1
4.231866110E2,-4.583013058E-1,-4.512763619E-1,1.792888194E-1
4.236906236E2,-2.901607659E-3,4.346303046E-1,-3.095557392E-1
4.241946362E2,-5.740602016E-1,-5.086976290E-1,-3.970621154E-2
4.246986488E2,-9.162971983E-4,5.957458615E-1,-1.415679157E-1
4.252026613E2,-4.931205809E-1,-5.007563829E-1,2.138026804E-2
4.257066736E2,3.465130329E-1,3.425424397E-1,-2.947422490E-2
4.262106857E2,-6.918043494E-1,-1.237001196E-1,-2.774853408E-1
4.267146977E2,4.199695215E-2,4.227184355E-1,1.145371497E-1
4.272187094E2,-4.072940946E-1,-5.338957906E-1,-6.062833071E-1
4.277227212E2,-1.542433500E-1,7.470875978E-1,3.953822255E-1
4.282267328E2,6.597339362E-2,-4.065304995E-1,-7.811433077E-1
4.287307444E2,-7.562506199E-1,2.325867712E-1,8.355103135E-1
4.292347558E2,2.617555559E-1,-3.510945439E-1,-1.378874540E0
4.297387671E2,-1.009912252E0,5.178605914E-1,1.014799118E0
4.302427783E2,2.290742993E-1,-8.025236130E-1,-1.162781119E0
4.307467893E2,-2.596175298E-2,-9.040798992E-2,1.525482059E0
4.312508001E2,-1.704312712E-1,-3.126100600E-1,-1.384677768E0
4.317548106E2,-4.236347377E-1,4.480693042E-1,1.480583549E0
4.322588211E2,2.252563834E-1,-3.992001414E-1,-1.823125958E0
4.327628314E2,-3.704894781E-1,-1.511890348E-2,1.833968759E0
4.332668415E2,-8.720094711E-2,1.823431402E-1,-1.454469085E0
4.337708517E2,-3.312414289E-1,-3.665188793E-3,1.306945205E0
4.342748621E2,2.570213675E-1,-1.818849891E-1,-1.126281977E0
4.347788730E2,-1.030834317E-1,-3.665188551E-1,5.929969549E-1
4.352828844E2,-1.397353113E-1,2.721402645E-1,-6.736311316E-1
4.357868962E2,-3.046688139E-1,-2.264781147E-1,2.593120933E-1
4.362909080E2,2.981020212E-1,5.283980370E-1,-8.216131479E-2
4.367949196E2,-1.064431891E-1,-7.958040833E-1,-1.125518382E-1
4.372989309E2,-2.790125012E-1,-4.230238497E-1,-1.756236330E-2
4.378029420E2,6.623301506E-1,-6.476693749E-1,7.437278330E-2
4.383069528E2,-8.704823442E-3,-1.267544460E-2,-2.370155305E-1
4.388109633E2,9.896009415E-2,-4.886918236E-3,-3.926333487E-1
4.393149734E2,-5.470294356E-1,3.926333487E-1,-7.696896046E-2
4.398189835E2,-2.901607752E-1,2.616028488E-1,-4.700604379E-1
4.403229934E2,1.438586563E-1,-1.820377111E-1,1.094364285E0
4.408270031E2,-1.391244531E-1,1.366809905E-1,-2.913824916E-1
4.413310127E2,1.343902498E-1,-3.484983444E-1,2.771798968E-1
4.418350222E2,-1.195767820E-1,-1.420260668E-1,-7.289143801E-1
4.423390321E2,5.681042373E-2,-1.944077164E-1,3.697259128E-1
4.428430424E2,-1.507308781E-1,4.995346665E-1,3.292561173E-1
4.433470534E2,-1.406516135E-1,-6.840158105E-1,-5.296197534E-1
4.438510648E2,-6.685914993E-1,4.263836145E-1,4.647153914E-1
4.443550763E2,1.521053314E-1,-9.040798992E-2,-7.783944607E-1
4.448590878E2,-3.778198659E-1,4.101957083E-1,8.458949924E-1
4.453630992E2,7.589995116E-2,-1.218675226E-1,-7.988584042E-1
4.458671105E2,9.117157012E-2,2.168569900E-2,1.282357931E0
4.463711218E2,-5.314523727E-2,1.421787739E-1,-1.260214090E0
4.468751336E2,-1.314886510E-1,-1.302669197E-1,1.544418931E0
4.473791467E2,-3.572031856E-1,-5.253437161E-2,-1.452178240E0
4.478831610E2,-7.803797722E-2,-4.648680985E-1,1.308319688E0
4.483871763E2,8.674279600E-2,-4.036289155E-1,-1.426522017E0
4.488911926E2,3.706422150E-1,-1.295033395E-1,1.162170246E-1
4.493952093E2,-1.547015011E-1,3.897317350E-1,6.010909677E-1
4.498992261E2,2.655734718E-1,-3.619373739E-1,-6.185005978E-2
4.504032429E2,-3.721693754E-1,-5.131264031E-2,-1.337793916E-1
4.509072597E2,-1.916588247E-1,-1.852447391E-1,3.207040019E-3
4.514112763E2,-2.625191510E-1,2.131918073E-1,-4.963276386E-1
4.519152929E2,2.238819450E-1,-1.214093715E-1,1.314886510E-1
4.524193092E2,-4.434878230E-1,4.303542376E-1,1.965457499E-1
4.529233252E2,2.956585586E-1,-3.544542789E-1,-3.617846668E-1
4.534273410E2,-6.771436334E-1,3.252854943E-1,2.260199636E-1
4.539313566E2,4.566214234E-2,-6.933315098E-2,-3.646862805E-1
4.544353719E2,-3.113883138E-1,2.315177470E-1,9.088140726E-1
4.549393869E2,9.392046183E-2,-4.871646762E-1,-6.137663722E-1
4.554434018E2,-5.090031028E-1,-3.817904741E-2,7.066178322E-1
4.559474162E2,2.290742844E-2,-4.337139800E-2,-1.449582100E0
4.564514307E2,7.166970968E-1,2.136499584E-1,1.068402529E0
4.569554448E2,-2.857320011E-1,1.382081509E-1,2.503018379E-1
4.574594589E2,8.170316368E-2,-2.838993967E-1,-2.354883701E-1
4.579634729E2,-7.070759684E-2,-2.794706449E-2,-2.492328286E-1
4.584674867E2,-1.574503928E-1,-3.187187016E-1,1.200349256E-1
4.589715004E2,1.588248461E-2,3.042106628E-1,-1.860083193E-1
4.594755142E2,5.925388262E-2,-4.984656572E-1,5.439751148E-1
4.599795279E2,-1.495091617E-1,3.197877109E-1,-6.637045741E-1
4.604835417E2,-1.896735132E-1,-5.369501114E-1,6.826413870E-1
4.609875555E2,-1.357647032E-1,8.307760954E-2,-7.498365045E-1
4.614915694E2,3.588830680E-2,-3.709476292E-1,4.172206521E-1
4.619955833E2,-2.229656465E-2,6.226239204E-1,-3.187187016E-1
4.624995971E2,-2.774853408E-1,-4.674642682E-1,1.098029464E-1
4.630036108E2,-5.696314201E-2,2.686277926E-1,1.343902498E-1
4.635076243E2,-3.231474757E-1,-4.120282829E-1,-2.283107042E-1
4.640116376E2,-3.243691921E-1,7.370083332E-1,2.165515572E-1
4.645156508E2,-3.084867075E-2,-3.714057803E-1,-6.020072699E-1
4.650196638E2,3.466657549E-2,-5.558869615E-2,7.206677198E-1
4.655236767E2,-2.638935745E-1,-4.670061171E-1,-8.432988524E-1
4.660276895E2,-1.322522312E-1,1.218675226E-1,9.260709882E-1
4.665317021E2,8.506292105E-2,-3.744601011E-1,-9.585995674E-1
4.670357145E2,-7.544180155E-1,7.008146048E-1,2.779434621E-1
4.675397267E2,4.411970973E-1,-4.809032977E-1,-6.061306000E-1
4.680437387E2,-1.803578287E-1,2.360992432E-1,1.031292439E0
4.685477504E2,-4.045451880E-1,-2.406807244E-1,-1.108261466E0
4.690517620E2,-1.782197952E-1,2.238819450E-1,1.496160507E0
4.695557732E2,-3.859138191E-1,-1.247691289E-1,-1.386357665E0
4.700597842E2,1.806632578E-1,-7.452550530E-2,1.536019444E0
4.705637950E2,-7.675516009E-1,-1.817322671E-1,-1.482721567E0
4.710678055E2,4.314232469E-1,-2.235765159E-1,1.520900607E0
4.715718157E2,-8.680388331E-1,7.452550530E-2,-1.074358463E0
4.720758256E2,4.670061171E-1,-4.711294472E-1,9.944878817E-1
4.725798352E2,-9.205732346E-1,1.470656991E-1,-8.762855530E-1
4.730838447E2,4.505127668E-2,-3.405571282E-1,7.252492309E-1
4.735878541E2,-2.609919906E-1,3.258963525E-1,-5.141954422E-1
4.740918632E2,-3.408625424E-1,-2.979492843E-1,1.795942485E-1
4.745958723E2,-4.459312931E-2,4.621191919E-1,1.133154184E-1
4.750998812E2,-4.512763619E-1,-4.624246359E-1,-2.813032269E-1
4.756038900E2,-9.483675659E-2,4.346303046E-1,-1.388190240E-1
4.761078988E2,-4.853320718E-1,4.016435891E-2,-6.719512492E-2
4.766119079E2,3.741546720E-2,3.474293351E-1,4.112647176E-1
4.771159176E2,7.437278330E-2,-5.913171172E-1,-7.515164018E-1
4.776199276E2,1.183550507E-1,3.057378232E-1,1.288771987E0
4.781239377E2,-4.298960865E-1,-2.138026655E-1,-1.475238442E0
4.786279478E2,1.957821548E-1,3.946186602E-1,1.604130864E0
4.791319576E2,-6.546943188E-1,-1.559232324E-1,-1.898414969E0
4.796359672E2,-7.060069442E-1,4.042397738E-1,2.121533394E0
4.801399766E2,1.571449637E-1,-8.686497211E-1,-2.279900074E0
4.806439856E2,-6.123919487E-1,6.397281289E-1,2.221409798E0
4.811479945E2,-1.556178033E-1,-5.311469436E-1,-1.860083222E0
4.816520033E2,1.162170246E-1,2.973384261E-1,2.145357132E0
4.821560119E2,-9.053016305E-1,-1.267544478E-1,-1.491273642E0
4.826600203E2,5.800161362E-1,1.728747338E-1,1.645058870E0
4.831640287E2,-8.717040420E-1,-1.235474050E-1,-1.933234334E0
4.836680368E2,-2.906189263E-1,1.388190240E-1,1.841604590E0
4.841720448E2,-3.449858725E-1,5.742128938E-2,-1.939801097E0
4.846760526E2,-1.855501831E-1,-7.150171995E-1,1.815642834E0
4.851800602E2,-4.399753511E-1,-2.419024557E-1,-1.459814072E0
4.856840676E2,7.757982612E-2,-4.961749315E-1,1.421176910E0
4.861880748E2,-2.547306120E-1,4.187478125E-1,-6.316341758E-1
4.866920818E2,-1.220202371E-1,-3.840812445E-1,2.434296161E-1
4.871960885E2,1.379027218E-1,5.006036758E-1,-1.884517819E-1
4.877000950E2,-1.780670881E-1,-7.793107629E-1,2.779434621E-1
4.882041013E2,1.148425788E-1,3.840812445E-1,-1.388190240E-1
4.887081075E2,-5.548179150E-1,-8.127555847E-1,-1.023198515E-1
4.892121135E2,-7.279980779E-1,9.738711715E-1,7.834340632E-2
4.897161195E2,-1.339320987E-1,-5.670352578E-1,-4.805978537E-1
4.902201252E2,3.883572817E-1,2.874118686E-1,6.502655745E-1
4.907241308E2,-4.977020919E-1,-2.984074354E-1,-5.897899270E-1
4.912281361E2,-1.692095399E-1,1.168278903E-1,8.654426932E-1
4.917321413E2,4.948004708E-2,-5.658134818E-1,-8.730784655E-1
4.922361464E2,-2.811505198E-1,5.106829405E-1,1.130863428E0
4.927401513E2,-9.697478265E-2,-4.375318885E-1,-9.224058390E-1
4.932441560E2,-3.014617562E-1,5.346593857E-1,9.954041839E-1
4.937481606E2,4.260781780E-2,-6.556106210E-1,-1.016020894E0
4.942521648E2,1.324049383E-1,4.954113364E-1,1.011592031E0
4.947561687E2,-6.771436334E-1,1.656970680E-1,-6.238456368E-1
4.952601718E2,2.174678594E-1,-1.140789986E-1,9.465349913E-1
4.957641740E2,-1.539379209E-1,-9.346231073E-2,-1.069318771E0
4.962681754E2,3.323104382E-1,-3.182605505E-1,1.091004491E0
4.967721758E2,-4.309650958E-1,6.169734150E-2,-8.749110699E-1
4.972761753E2,1.727220118E-1,-1.144913316E0,4.071413875E-1
4.977801740E2,-1.800523996E-1,2.724456787E-1,-2.454149276E-1
4.982841718E2,-8.735366166E-2,-5.178605914E-1,-7.707586288E-1
4.987881688E2,-1.721111536E-1,4.908298552E-1,7.321214676E-1
4.992921654E2,5.650499370E-3,-4.602866173E-1,-2.742782831E-1
4.997961609E2,-3.156643808E-1,5.451968312E-1,5.671879649E-1
5.003001557E2,-2.214384824E-1,-9.514218569E-2,-2.800815105E-1
5.008041499E2,-2.115119249E-1,6.265945435E-1,3.481929302E-1
5.013081435E2,-7.910698652E-2,-3.239110410E-1,-5.012145638E-1
5.018121365E2,-4.839576185E-1,4.297433794E-1,3.303251266E-1
5.023161288E2,2.331976295E-1,-9.831868410E-1,-4.344775677E-1
5.028201206E2,-1.667660922E-1,2.548833191E-1,6.224712133E-1
5.033241119E2,-2.680169344E-1,-1.238528341E-1,-5.279398561E-1
5.038281025E2,1.644753367E-1,3.503309488E-1,5.204567909E-1
5.043320928E2,-1.273653060E-1,-1.435532272E-1,-6.887500286E-1
5.048360825E2,-1.985310577E-3,-1.374445739E-3,8.191696405E-1
5.053400716E2,-2.322813272E-1,-8.078686893E-2,-7.012727857E-1
5.058440607E2,-7.834340632E-2,6.261364091E-3,7.096721530E-1
5.063480504E2,-3.225366175E-1,-1.343902480E-2,-9.280562997E-1
5.068520413E2,1.243109852E-1,-2.273944169E-1,1.141553521E0
5.073560332E2,-1.724165827E-1,-1.288924664E-1,-8.629992008E-1
5.078600261E2,5.482511222E-2,-1.748600453E-1,7.848085165E-1
5.083640200E2,-2.160934210E-1,1.295033395E-1,-4.334085584E-1
5.088680146E2,-5.161807314E-2,-9.086613357E-2,4.660898149E-1
5.093720099E2,-2.657261863E-2,2.663370371E-1,-4.175260663E-1
5.098760058E2,4.581485689E-2,-7.008146048E-1,1.901316643E-1
5.103800021E2,6.948586553E-2,2.958112657E-1,-5.146535859E-2
5.108839986E2,-3.277289569E-1,-2.875646055E-1,-2.390008420E-1
5.113879952E2,3.219257295E-1,3.182605505E-1,2.952004075E-1
5.118919918E2,-4.361574650E-1,-3.321577311E-1,-5.106829405E-1
5.123959884E2,-1.832594350E-2,5.847502947E-1,5.167915821E-1
5.128999851E2,-2.587012351E-1,-6.221657991E-1,-7.461713552E-1
5.134039817E2,-6.116283536E-1,4.204276800E-1,6.389645338E-1
5.139079784E2,2.846629918E-1,-9.998329282E-1,-7.757982612E-1
5.144119749E2,9.162971750E-3,4.027126133E-1,6.809614897E-1
5.149159713E2,-7.131846249E-2,-1.679878123E-2,-4.526508152E-1
5.154199676E2,-2.434296161E-1,5.331322551E-1,5.807796717E-1
5.159239638E2,-2.842048407E-1,-3.607156575E-1,-4.046979249E-1
5.164279601E2,4.906771481E-1,-3.115410358E-2,2.664897740E-1
5.169319564E2,-3.720166385E-1,9.941824526E-2,-2.700022459E-1
5.174359528E2,2.055560052E-1,1.583666950E-1,2.316704690E-1
5.179399493E2,-5.355756879E-1,7.864884287E-2,-3.390299380E-1
5.184439458E2,5.542070866E-1,-3.787361681E-1,5.358811021E-1
5.189479424E2,-4.112647176E-1,1.921169758E-1,-3.663661480E-1
5.194519389E2,1.116355360E-1,-2.834412456E-1,6.143772602E-1
5.199559354E2,-4.963276386E-1,1.085812151E-1,-4.590648711E-1
5.204599320E2,2.076940238E-1,-2.583957911E-1,6.444623470E-1
5.209639285E2,-3.604102135E-1,4.276053607E-2,-9.520327449E-1
5.214679251E2,2.073885947E-1,-1.600465775E-1,9.201150537E-1
5.219719217E2,-4.335612655E-1,2.580903657E-2,-8.826996088E-1
5.224759184E2,1.734855920E-1,-3.327685893E-1,8.170316219E-1
5.229799153E2,5.604684353E-2,-1.206457894E-2,-8.924734592E-1
5.234839123E2,-2.399171442E-1,1.114828233E-2,4.706713259E-1
5.239879095E2,-2.484692484E-1,1.991419196E-1,-1.991419196E-1
5.244919067E2,-2.855792828E-2,3.488037884E-1,1.817322671E-1
5.249959038E2,1.441640854E-1,-2.550360560E-1,1.415679157E-1
5.254999005E2,-2.380845547E-1,4.092794061E-1,6.041452885E-1
5.260038969E2,2.641990222E-2,-3.342957497E-1,-4.257727563E-1
5.265078932E2,-1.580612659E-1,-5.105302334E-1,-4.856374860E-2
5.270118896E2,-9.117157012E-2,5.815432668E-1,1.059850380E-1
5.275158860E2,-1.994473487E-1,-4.544833899E-1,-1.882990748E-1
5.280198824E2,-8.964440972E-2,-1.878409274E-2,-3.190241456E-1
5.285238788E2,6.383536756E-2,-1.878409274E-2,9.010255337E-3
5.290278752E2,1.572976820E-2,-2.443459118E-3,8.063415438E-2
5.295318716E2,4.184423760E-2,-3.752236962E-1,3.132209182E-1
5.300358679E2,-1.010981202E-1,3.984365463E-1,-5.597048402E-1
5.305398642E2,-1.765399277E-1,-2.379318327E-1,5.305360556E-1
5.310438604E2,2.901607752E-2,1.728747338E-1,-4.980075061E-1
5.315478566E2,4.398226365E-2,-5.317577720E-1,7.238747478E-1
5.320518527E2,-2.444986254E-1,1.800523996E-1,-5.626064539E-1
5.325558488E2,-4.059196413E-1,1.832594350E-2,6.128500700E-1
5.330598450E2,2.076940238E-2,1.343902498E-1,-6.919570565E-1
5.335638411E2,-3.090975881E-1,1.004872546E-1,7.619010806E-1
5.340678372E2,-1.631008983E-1,1.685986817E-1,-9.720385671E-1
5.345718331E2,-2.382372618E-1,1.789833754E-1,1.036179423E0
5.350758295E2,-1.542433538E-2,-4.642572254E-2,-1.095738649E0
5.355798264E2,-9.162971983E-4,-3.176496923E-2,1.253341794E0
5.360838241E2,-1.426369250E-1,2.475529462E-1,-1.080314398E0
5.365878224E2,-8.949168772E-2,1.878409274E-2,9.334014058E-1
5.370918214E2,-2.696968019E-1,-1.004872546E-1,-1.207526922E0
5.375958207E2,-1.638644785E-1,-1.612683088E-1,1.140942693E0
5.380998205E2,-1.763872057E-1,-6.383536756E-2,-1.395978689E0
5.386038207E2,-2.316704690E-1,2.689332068E-1,1.502421975E0
5.391078212E2,-7.223475724E-2,-2.483165264E-1,-1.490357399E0
5.396118217E2,-3.631591201E-1,2.976438701E-1,1.310915828E0
5.401158221E2,7.834340632E-2,-2.907716334E-1,-1.036942959E0
5.406198223E2,-1.119409725E-1,4.309650958E-1,6.745474339E-1
5.411238222E2,-1.450803876E-2,1.572976820E-2,-8.097012639E-1
5.416278218E2,-5.073232055E-1,6.980656981E-1,5.047270060E-1
5.421318212E2,3.119991720E-1,3.666715920E-1,-8.104648590E-1
5.426358201E2,1.966679215E0,1.786015868E0,-9.795216918E-1
5.431398189E2,3.526217043E-1,6.239983439E-1,2.034179717E-1
