"Time (s)","Linear Acceleration x (m/s^2)","Linear Acceleration y (m/s^2)","Linear Acceleration z (m/s^2)"
7.554433800E-2,-1.720353961E0,6.139802933E-1,-8.685793877E-1
2.772145470E-1,-2.289973736E0,1.519813299E0,8.968353271E-2
7.772145470E-1,2.288993835E0,2.317387819E0,2.305779457E0
1.277214547E0,-6.734771252E0,1.143984795E0,-1.713053226E0
1.777214547E0,3.443151474E0,-3.454854012E0,5.697305202E0
2.277214547E0,-7.678596973E-1,2.734036446E-1,8.400083184E-1
2.777214547E0,-9.090378284E-1,-2.519061089E0,1.518115401E-1
3.277214547E0,1.059297323E0,-6.830663681E-1,1.219245195E0
3.777214547E0,-1.567213058E0,-2.900889397E0,2.708004713E-1
4.277214547E0,9.593963623E-3,-3.277668953E0,-1.017789602E0
4.777214547E0,7.482297421E-1,-1.353878021E0,3.826198578E-1
5.277214547E0,2.559667110E0,-2.049375534E0,3.559422493E-1
5.777214547E0,-8.359680176E-1,-1.443396568E0,6.948314309E-1
6.277214547E0,2.562457085E0,4.949951172E-2,-5.037662983E-1
6.777214547E0,-4.047644138E-1,-2.207424164E0,-8.500026464E-1
7.277214547E0,1.095178604E0,-1.876451492E0,-6.760604978E-1
7.777214547E0,8.943953514E-1,3.312025070E-1,-5.864121914E-1
8.277214547E0,1.897540092E0,-1.704503059E0,9.975441098E-1
8.777214547E0,2.234015465E-1,-1.092472076E-1,-4.800419807E-1
9.277214547E0,1.133932114E0,4.706554413E-1,5.389807224E-1
9.777214547E0,9.453296661E-3,-5.355043411E-1,2.690848708E-1
1.027721455E1,9.460229874E-1,1.203291416E0,-7.072397470E-1
1.077721455E1,-1.315805435E0,3.158311844E-1,7.561126947E-1
1.127721455E1,8.325209618E-1,9.120898247E-1,-9.656243324E-1
1.177721455E1,3.280072212E-1,-8.086099625E-1,1.882441044E-1
1.227721455E1,-9.774208069E-3,-4.743185043E-1,1.212834835E0
1.277721455E1,1.072717190E0,1.413075447E0,-6.526550055E-1
1.327721455E1,-1.694216728E0,-4.102020264E-1,1.979081511E0
1.377721455E1,1.580694675E0,5.420064926E-1,-1.066497564E0
1.427721455E1,-3.839154243E-1,-1.037740231E0,2.483607292E0
1.477721455E1,7.856140137E-1,-3.375377655E-1,-3.455622196E-1
1.527721455E1,-1.142515182E0,-1.275769711E0,1.048612237E0
1.577721455E1,1.139231682E0,-1.507088661E0,7.042621970E-1
1.627721455E1,-4.818959236E-1,-2.159207344E0,1.184952974E0
1.677721455E1,4.284124374E-1,-9.919233322E-1,-1.160121560E-1
1.727721455E1,1.003126144E0,-1.129107475E0,1.239634514E0
1.777721455E1,-7.957110405E-1,-1.600442886E0,-7.800897360E-1
1.827721455E1,1.506153107E0,-1.181872368E0,1.358197093E0
1.877721455E1,-1.260335207E0,2.013702393E-1,-6.195828915E-1
1.927721455E1,1.417822123E0,3.187208176E-1,8.548223972E-1
1.977721455E1,-1.914940119E0,5.794582367E-1,7.981530428E-1
2.027721455E1,-1.096570253E0,-4.206094742E-1,-2.253555059E-1
2.077721455E1,-1.586334467E0,-1.275444984E0,2.740821838E-1
2.127721455E1,1.150280714E0,1.936559677E-1,7.269122005E-1
2.177721455E1,-7.824196815E-1,-1.596193314E-1,-6.965038776E-1
2.227721455E1,-9.197092056E-2,9.643459320E-2,-5.522978306E-2
2.277721455E1,-3.706412315E-1,3.645992279E-2,-4.728233814E-1
2.327721455E1,-1.027870178E-1,-1.151657104E-2,-8.574420214E-2
2.377721455E1,1.107149124E-1,-1.618432999E-1,3.250872195E-1
2.427721455E1,2.295722961E-1,3.603219986E-1,2.954526544E-1
2.477721455E1,7.369694710E-1,2.632093430E-1,-5.456067324E-1
2.527721455E1,-6.083903313E-1,-7.399969101E-1,-7.762837410E-2
2.577721455E1,1.118194580E0,1.139268875E-1,1.505533218E0
2.627721455E1,1.605439186E-1,-5.848445892E-1,4.165964127E-1
2.677721455E1,2.447705269E-1,1.291770935E-1,1.948230267E-1
2.727721455E1,7.872319221E-1,1.238584518E-1,2.113386393E-1
2.777721455E1,-7.236256599E-1,-3.506631851E-1,5.511868000E-2
2.827721455E1,1.369529247E0,5.687665939E-1,5.717403889E-1
2.877721455E1,-3.169689178E-1,-1.122217178E-1,1.156371832E-1
2.927721455E1,5.213184357E-1,2.390756607E-1,1.402693987E-1
2.977721455E1,-8.533272743E-1,-6.465029716E-1,-7.077598572E-2
3.027721455E1,6.071267128E-1,4.338598251E-1,-4.960668087E-2
3.077721455E1,3.035340309E-1,8.487987518E-2,-2.221308947E-1
3.127721455E1,8.300795555E-1,4.894418716E-1,1.021972895E-1
3.177721455E1,8.473463058E-1,5.046381950E-1,-3.774281740E-1
3.227721455E1,4.250526428E-2,-5.463685989E-1,1.164849520E0
3.277721455E1,2.531668186E0,1.180801392E-1,6.514756680E-1
3.327721455E1,1.235754490E0,4.737863541E-1,3.748595715E-2
3.377721455E1,-1.838063717E0,-5.023571968E0,7.265695333E-1
3.427721455E1,3.737857819E0,-1.957082748E-1,1.747212887E0
3.477721455E1,-3.420481682E0,-3.986087322E0,6.403869390E-1
3.527721455E1,4.113633156E0,2.772618771E0,-2.389775753E0
3.577721455E1,-2.649147749E0,-1.226015091E0,-1.851601720E0
3.627721455E1,1.084025383E0,2.084336281E0,1.440745831E0
3.677721455E1,-2.683612823E0,-2.845401764E-1,1.831551909E0
3.727721455E1,1.037433386E0,4.266214371E-1,2.663741350E0
3.777721455E1,-3.671503544E0,-8.694176674E-1,2.383325338E0
3.827721455E1,1.319250822E0,4.177064896E-1,3.919093609E-1
3.877721455E1,-3.975693226E0,-1.266413689E0,2.889484644E0
3.927721455E1,8.656492233E-1,9.714727402E-1,-4.050314426E-1
3.977721455E1,-4.406952381E0,-2.431367874E0,1.799763441E0
4.027721455E1,-8.839466572E-1,2.006207943E0,1.080697417E0
4.077721455E1,-1.028082371E0,-1.324859142E0,6.474767923E-1
4.127721455E1,1.627826214E0,2.933283806E0,-1.099712849E-1
4.177721455E1,-2.925945044E0,-2.330552101E0,4.391342700E-1
4.227721455E1,9.485816956E-1,2.451114655E0,5.119205713E-1
4.277721455E1,-1.124981880E0,-8.275794983E-1,1.372479677E0
4.327721455E1,-1.131249905E0,1.414226055E0,-2.551277876E-1
4.377721455E1,5.592761040E-1,-8.678064346E-1,1.012726665E0
4.427721455E1,-3.020572662E-1,2.074589729E0,9.720744491E-1
4.477721455E1,-2.293054581E0,5.164866447E-1,1.225398779E0
4.527721455E1,4.330513477E-1,1.642438412E0,1.223568916E0
4.577721455E1,-2.950157642E0,1.479704380E0,2.356697559E0
4.627721455E1,1.521547794E0,-3.625230789E-1,7.918602824E-1
4.677721455E1,-2.521393061E0,6.525969505E-1,2.983003378E0
4.727721455E1,2.524309158E-1,-1.910586357E0,1.243663907E0
4.777721455E1,-9.940302372E-1,1.431445599E0,1.344804764E-1
4.827721455E1,2.074419022E0,-3.099264145E0,1.075458646E0
4.877721455E1,-1.256939411E0,-1.490095139E0,6.807352304E-1
4.927721455E1,1.346281528E0,3.003149509E0,6.956307888E-1
4.977721455E1,-2.892586231E0,-1.065691948E0,1.109847784E0
5.027721455E1,6.196622849E-1,4.139733791E0,-2.014656782E0
5.077721455E1,-1.613063812E0,-1.121912003E-1,-8.055723310E-1
5.127721455E1,8.023180962E-1,1.491883755E0,1.490244865E0
5.177721455E1,-3.782691956E-1,-2.273797989E0,8.918162584E-1
5.227721455E1,1.731490850E0,2.040729523E-1,1.394744039E0
5.277721455E1,4.631829262E-1,-2.220788956E0,-4.308121204E-1
5.327721455E1,1.737660885E0,-1.588951111E0,8.793312311E-1
5.377721455E1,-9.413957596E-3,8.211822510E-1,7.387036085E-1
5.427721455E1,1.942577362E0,-2.577122688E0,9.164283276E-1
5.477721455E1,4.065504074E-1,1.015855312E0,-3.279244900E-2
5.527721455E1,1.302303314E0,-2.507586956E0,6.062297821E-1
5.577721455E1,7.401895523E-1,2.186886787E0,-2.418498993E-1
5.627721455E1,3.059177399E-1,-1.929511547E0,1.369297028E0
5.677721455E1,1.707668304E-1,3.164856911E0,-5.279254913E-2
5.727721455E1,1.070722580E0,1.050429344E0,2.488710642E0
5.777721455E1,-2.660755396E0,1.593756199E0,1.788251042E0
5.827721455E1,-9.238767624E-1,1.249028683E0,3.520057678E0
5.877721455E1,1.014241695E0,-1.126766205E-2,1.614995003E0
5.927721455E1,-2.532492876E0,3.655834198E-1,2.755319118E0
5.977721455E1,1.285972595E0,-1.194254875E0,8.460792303E-1
6.027721455E1,-2.070533752E0,-3.919219971E-1,-3.303480148E-2
6.077721455E1,3.458640575E-1,3.106683731E0,-1.311032772E-1
6.127721455E1,-1.081206560E0,-1.082358360E0,6.824140549E-1
6.177721455E1,3.578577042E-1,1.383155346E0,-1.976728439E-3
6.227721455E1,1.330428123E-1,-1.032626152E0,4.934723377E-1
6.277721455E1,-2.044272423E-1,1.139090538E0,-6.039354801E-1
6.327721455E1,-2.038955688E-2,-2.055069447E0,9.440909624E-1
6.377721455E1,6.541848183E-1,2.973937988E-1,9.599959850E-2
6.427721455E1,1.288581371E0,-1.051361084E0,7.066396475E-1
6.477721455E1,8.582515717E-1,2.089276314E0,6.416307092E-1
6.527721455E1,3.121075392E0,-3.111155510E0,2.313709259E-1
6.577721455E1,-9.275412560E-2,-2.035811424E0,-6.782734394E-1
6.627721455E1,1.208281517E-1,-2.068543434E0,-2.543833256E0
6.677721455E1,2.946069241E0,-4.707193375E0,-7.280251384E-1
6.727721455E1,7.528164387E-1,-7.250595093E-2,1.679921150E-2
6.777721455E1,1.533552170E0,-2.656791687E0,3.680764437E-1
6.827721455E1,1.446426868E0,3.314127445E0,2.315366268E-1
6.877721455E1,2.151975632E-1,-1.041872978E0,4.946212769E-1
6.927721455E1,1.562792301E0,3.659414291E0,-7.582608461E-1
6.977721455E1,-2.009581089E0,-1.030901432E0,2.679517031E0
7.027721455E1,1.402411699E0,1.518749237E0,3.185372353E-1
7.077721455E1,-3.489011049E0,-1.378613949E0,3.288854599E0
7.127721455E1,1.224038601E0,-7.190618515E-1,2.017334700E0
7.177721455E1,-3.325310946E0,-6.005916595E-1,9.209600687E-1
7.227721455E1,1.236315250E0,-2.606725693E0,1.381956697E0
7.277721455E1,-3.133059025E0,-1.595719337E0,-6.087237597E-1
7.327721455E1,4.451756477E-1,1.708158493E0,9.375221729E-1
7.377721455E1,-1.049645662E0,-2.789815903E0,-6.423366070E-2
7.427721455E1,1.242480755E0,-5.837497711E-1,1.858175635E0
7.477721455E1,7.993474007E-1,-2.601049423E0,5.236343145E-1
7.527721455E1,2.410985470E0,-1.786377907E0,7.377157211E-1
7.577721455E1,-4.068980217E-1,-6.992349625E-1,-2.785716057E-1
7.627721455E1,2.762295246E0,-2.568246841E0,-5.479260683E-1
7.677721455E1,-5.720806122E-2,2.766442776E0,-3.909718990E-1
7.727721455E1,8.004312515E-1,-2.564334393E0,1.641858816E-1
7.777721455E1,1.472215891E0,3.169372082E0,-1.313421488E0
7.827721455E1,-3.035316467E-1,-3.333029747E-1,1.879433393E0
7.877721455E1,1.162276268E-1,2.550655842E0,2.359837294E-1
7.927721455E1,-6.984753609E-1,2.967415810E0,2.397620916E0
7.977721455E1,-1.963707447E0,-2.260434151E0,1.488946319E0
8.027721455E1,-3.870682716E-1,2.646986961E0,9.072673321E-1
8.077721455E1,-7.356817722E-1,-2.160618782E0,2.089436769E0
8.127721455E1,-1.229293346E0,5.871067047E-1,1.026150465E0
8.177721455E1,1.980857372E0,-2.549920082E0,1.573832750E0
8.227721455E1,-1.294324875E0,-1.551252365E0,2.769561291E0
8.277721455E1,1.657719135E0,-2.222167969E0,7.844902277E-1
8.327721455E1,9.115195274E-1,-2.687090874E0,-2.823023796E-1
8.377721455E1,1.939631224E0,-2.961805344E0,-7.344322205E-1
8.427721455E1,1.569776535E-1,-2.480578423E0,3.877419233E-1
8.477721455E1,-3.441696167E-1,-1.400082111E0,1.216216087E-1
8.527721455E1,-2.216644287E-1,-1.637982368E0,1.723352671E-1
8.577721455E1,2.728114128E0,-1.503636360E0,5.698583126E-1
8.627721455E1,1.414464474E0,5.508890152E-1,7.088731527E-1
8.677721455E1,2.532949448E0,-2.627869606E0,7.432315350E-1
8.727721455E1,2.180417299E0,1.481837749E0,7.938027382E-2
8.777721455E1,2.187557220E0,-2.026096344E0,1.895032883E0
8.827721455E1,1.675889492E0,3.029778004E0,-1.038692951E0
8.877721455E1,9.742994308E-1,-1.251996040E0,1.984185934E0
8.927721455E1,1.249343872E0,3.204661846E0,-6.373810768E-1
8.977721455E1,-1.359617710E0,-7.758522034E-1,3.114620924E0
9.027721455E1,7.974169254E-1,1.873160839E0,3.405716419E-1
9.077721455E1,-1.430552721E0,1.285168171E0,2.500791550E0
9.127721455E1,1.685351849E0,4.194879532E-1,1.173141718E0
9.177721455E1,-1.866819739E0,1.274738312E-1,2.243547678E0
9.227721455E1,1.354968071E0,-2.008455276E0,2.472810745E-1
9.277721455E1,-2.399878740E0,-2.694583893E0,2.059010506E0
9.327721455E1,1.976416111E0,-1.157917976E0,4.779179096E-1
9.377721455E1,-4.381885529E-1,-2.433045387E0,8.502908945E-1
9.427721455E1,-4.422631264E-1,-8.698582649E-1,2.237916946E0
9.477721455E1,-6.605110168E-1,-8.639926910E-1,-6.765365601E-3
9.527721455E1,-2.897710085E0,-6.940135956E-1,1.540074110E0
9.577721455E1,1.796330214E0,2.340125084E0,-4.272203445E-1
9.627721455E1,-3.101968527E0,-1.323704720E0,8.309174776E-1
9.677721455E1,3.131850958E0,3.342221737E0,-1.302852750E0
9.727721455E1,-3.059595585E0,-9.220342636E-1,5.280423164E-1
9.777721455E1,2.612284660E0,2.714758873E0,-8.338701725E-1
9.827721455E1,-3.471925259E0,-3.148817062E0,1.331379175E0
9.877721455E1,1.387378693E0,8.357467651E-1,3.712970018E-1
9.927721455E1,-3.688292980E0,-1.044898510E0,1.294322968E0
9.977721455E1,1.186565399E0,-4.197425842E-1,1.698045850E0
1.002772145E2,-3.010910749E0,-8.244895935E-2,1.306871057E0
1.007772145E2,2.120478153E0,-2.678499222E0,1.188675642E0
1.012772145E2,-1.844309807E0,-1.894294739E0,1.439106464E-2
1.017772145E2,2.699656963E0,-4.010607719E0,1.984690905E0
1.022772145E2,-1.236318588E0,-2.104013443E0,-6.305377483E-1
1.027772145E2,1.305488586E0,-2.675360203E0,7.287900448E-1
1.032772145E2,-9.588441849E-1,-2.049194336E0,-2.281862497E-1
1.037772145E2,-1.974057198E0,-4.330893040E0,9.081273079E-1
1.042772145E2,-6.891005039E-1,-2.384766579E0,1.678512812E0
1.047772145E2,-2.922599316E0,-4.677304268E0,9.856247902E-1
1.052772145E2,2.464138985E0,-1.087021828E0,2.165302753E0
1.057772145E2,-3.770432472E0,-4.450304508E0,3.539021254E0
1.062772145E2,3.078725815E0,8.848590851E-1,9.661173820E-1
1.067772145E2,-3.589473963E0,-2.528444767E0,3.069568396E0
1.072772145E2,3.724201679E0,2.519755363E0,7.227625847E-1
1.077772145E2,-1.957168221E0,4.299688339E-1,2.082556725E0
1.082772145E2,-6.975229979E-1,1.543571472E0,9.051119685E-1
1.087772145E2,-5.459284782E-1,-6.122179031E-1,2.379544735E0
1.092772145E2,8.200402260E-1,2.418550968E0,6.532434225E-1
1.097772145E2,-2.030730724E0,1.437204361E0,2.302735806E0
1.102772145E2,1.952886581E-1,1.020069122E-1,1.494270325E0
1.107772145E2,-2.689019203E0,2.526073456E-1,1.235091567E0
1.112772145E2,1.373941660E0,-1.650121689E0,2.088607073E0
1.117772145E2,-2.585620642E0,-7.984113693E-1,5.095512867E-1
1.122772145E2,1.773276329E0,-2.884766579E0,2.116518497E0
1.127772145E2,-2.513088703E0,-1.498186111E0,-2.150280476E-1
1.132772145E2,3.604403019E0,-2.435024261E0,7.154802084E-1
1.137772145E2,-1.681750298E0,-1.496858597E0,2.325924635E-1
1.142772145E2,1.944024563E0,-2.463354111E0,7.164052725E-1
1.147772145E2,-1.242369413E0,-2.685488701E0,-5.532801151E-2
1.152772145E2,8.714308739E-1,-2.318407059E0,1.711575747E0
1.157772145E2,4.064865112E-1,-2.657160759E0,7.466126680E-1
1.162772145E2,-3.030114174E-1,-1.231612682E0,3.252608061E0
1.167772145E2,8.344612122E-1,-1.490111351E0,7.736325264E-1
1.172772145E2,-6.022086143E-1,5.254335403E-1,3.181607246E0
1.177772145E2,1.066608906E0,5.067763329E-1,1.111421585E0
1.182772145E2,-2.085961819E0,4.755420685E-1,2.315981865E0
1.187772145E2,1.967904329E0,1.110169888E0,3.193490505E-1
1.192772145E2,-2.382847071E0,5.975503922E-1,3.587843418E0
1.197772145E2,1.905494690E0,2.174319744E0,-1.568162441E-1
1.202772145E2,-2.635341167E0,1.652626991E-1,2.161466122E0
1.207772145E2,1.441085100E0,3.185737133E0,-6.569480896E-1
1.212772145E2,-1.822047472E0,-1.449441910E-1,9.889589548E-1
1.217772145E2,1.565518379E-1,3.244425774E0,-9.353668690E-1
1.222772145E2,-5.283446312E-1,-6.966400146E-1,3.000054359E0
1.227772145E2,7.648448944E-1,2.939000607E0,-1.649444103E-1
1.232772145E2,-1.983068466E0,-3.480796814E-1,3.225478172E0
1.237772145E2,6.839027405E-1,1.055684566E0,1.578272462E0
1.242772145E2,-2.223124743E0,-2.145624161E-2,3.846668243E0
1.247772145E2,1.269607544E0,-8.513422012E-1,1.756579876E0
1.252772145E2,-2.481736898E0,-4.178714752E-2,2.327547312E0
1.257772145E2,1.712022305E0,-2.064228058E0,1.964225292E0
1.262772145E2,-2.445953131E0,-4.098291397E-1,1.364917994E0
1.267772145E2,1.923960209E0,-2.144170761E0,1.993013740E0
1.272772145E2,-2.011127949E0,-9.392299652E-1,5.225197077E-1
1.277772145E2,1.802512646E0,-3.047212601E0,1.730540037E0
1.282772145E2,-1.890673399E0,-1.840416908E0,2.181137800E-1
1.287772145E2,1.472160339E0,-2.924989223E0,4.022169113E-1
1.292772145E2,-1.124011278E0,-2.660899162E0,7.136405706E-1
1.297772145E2,-1.618194580E-1,-2.553269386E0,1.203045607E0
1.302772145E2,8.027458191E-2,-2.333976746E0,1.371255755E0
1.307772145E2,-6.744799614E-1,-1.453152180E0,2.395828485E0
1.312772145E2,8.322789669E-1,-2.267601013E0,7.870500088E-1
1.317772145E2,-1.931766510E0,-6.320242882E-1,2.488729000E0
1.322772145E2,1.161294699E0,-2.246751785E-1,3.735253811E-1
1.327772145E2,-2.839838028E0,-5.414247513E-2,2.304208994E0
1.332772145E2,7.718794346E-1,2.451030254E0,-1.333543062E0
1.337772145E2,-3.324435711E0,-6.527738571E-1,4.553370476E-1
1.342772145E2,2.420687199E0,3.323665619E0,-5.144593716E-1
1.347772145E2,-2.147054672E0,-3.345791340E0,2.250275373E0
1.352772145E2,1.866140604E0,3.309409618E0,-1.736567020E-1
1.357772145E2,-3.763088703E0,-2.511340141E0,2.038414478E0
1.362772145E2,1.972306013E0,3.996467590E-2,2.420642853E0
1.367772145E2,-4.138769150E0,-2.936357498E0,1.920159221E0
1.372772145E2,1.946002960E0,-1.521021843E0,2.370406389E0
1.377772145E2,-4.075213909E0,-2.122183800E0,-1.439210176E-1
1.382772145E2,4.684119225E-1,-3.000346184E0,2.617789030E0
1.387772145E2,-3.387476206E0,-1.697165489E0,-7.262173891E-1
1.392772145E2,1.977502346E0,-3.650333881E0,1.199099422E0
1.397772145E2,-2.323906183E0,-1.884665489E0,-1.957405806E-1
1.402772145E2,1.149783134E0,-3.363143921E0,1.312897205E0
1.407772145E2,-7.531116009E-1,-1.682868004E0,1.233783722E0
1.412772145E2,-1.321396351E0,-2.331385136E0,1.346859217E0
1.417772145E2,1.734369755E0,-1.587196350E0,2.866564989E-1
1.422772145E2,-2.737599134E0,1.159558296E-1,3.297368288E0
1.427772145E2,7.737565041E-1,-1.286792755E-2,-8.250021935E-2
1.432772145E2,-2.408062458E0,6.726536751E-1,2.549278736E0
1.437772145E2,9.868412018E-1,2.325852394E0,1.230712891E0
1.442772145E2,-2.285163641E0,-9.360485077E-1,1.591749549E0
1.447772145E2,1.053811550E0,3.671623707E0,-8.994469643E-1
1.452772145E2,-2.098930836E0,-1.311005592E0,-7.581233978E-3
1.457772145E2,2.968502045E-2,2.698295593E0,7.220358849E-1
1.462772145E2,-2.052213669E0,-1.862977982E0,2.565779686E-1
1.467772145E2,3.016696930E0,1.658280849E0,1.239759803E0
1.472772145E2,-2.122564554E0,-2.581996918E-1,3.546487093E0
1.477772145E2,1.981863260E0,-1.232854843E0,2.248512030E0
1.482772145E2,-3.629310131E0,-1.517038345E0,2.218419790E0
1.487772145E2,2.119513035E0,-1.481916428E0,2.277279615E0
1.492772145E2,-1.725015521E0,8.531856537E-2,1.548158169E0
1.497772145E2,2.954700470E0,-7.536983490E-1,1.672443867E0
1.502772145E2,-3.168149471E0,-1.460458755E0,1.271742821E0
1.507772145E2,1.647510529E0,-1.995333672E0,3.506799340E-1
1.512772145E2,-6.487133503E-1,-9.319477081E-1,4.637269974E-1
1.517772145E2,2.479790688E0,-2.549901962E0,1.182614803E0
1.522772145E2,-1.172218084E0,-2.161069870E0,3.268502355E-1
1.527772145E2,1.293079376E0,-1.763139725E0,7.046123743E-1
1.532772145E2,-1.263553619E0,-2.970699310E0,9.054415226E-1
1.537772145E2,3.232712746E-1,-2.346942902E0,1.160313845E0
1.542772145E2,-7.346062660E-1,-2.655686378E0,8.148761988E-1
1.547772145E2,-6.578073502E-1,-1.684361458E0,1.008494377E0
1.552772145E2,2.312941551E-1,-1.534454346E0,8.412381411E-1
1.557772145E2,-2.676726818E0,-1.612050056E0,2.153951645E0
1.562772145E2,8.991074562E-1,3.454685211E-2,-7.450842857E-2
1.567772145E2,-2.744096279E0,-9.807109833E-1,3.586026907E0
1.572772145E2,1.952398777E0,1.572271347E0,-8.508002758E-1
1.577772145E2,-2.788201571E0,-8.606815338E-2,1.698676825E0
1.582772145E2,1.260272264E0,3.351983070E0,-1.041007042E0
1.587772145E2,-2.982697725E0,-1.128697872E0,5.470190048E-1
1.592772145E2,3.049182892E-2,2.672358990E0,-4.739153385E-1
1.597772145E2,-1.981252193E0,-7.446861267E-1,1.902155876E0
1.602772145E2,1.490730524E0,1.067300320E0,1.415454388E0
1.607772145E2,-3.225538254E0,-1.674827576E0,1.043766856E0
1.612772145E2,1.968297005E0,5.709743500E-1,1.045579553E0
1.617772145E2,-3.288348198E0,-1.219904423E0,2.917118788E0
1.622772145E2,9.106364250E-1,-4.553222656E-2,1.419183850E0
1.627772145E2,-2.761681318E0,-2.560925484E-1,2.146188259E0
1.632772145E2,5.213088989E-1,-1.443456650E0,2.855000496E0
1.637772145E2,-3.021852732E0,-7.033481598E-1,1.303779006E0
1.642772145E2,1.671030998E0,-1.894688129E0,2.697197676E0
1.647772145E2,-2.778130293E0,-7.950196266E-1,-4.025924206E-2
1.652772145E2,2.346061707E0,-1.590721130E0,2.061225891E0
1.657772145E2,-1.571825981E0,-2.908697128E-1,-1.881816387E-1
1.662772145E2,3.167642117E0,-2.668161392E0,2.276943445E0
1.667772145E2,-1.595241547E0,-2.051003456E0,-5.662018061E-2
1.672772145E2,2.644021034E0,-2.426797867E0,1.342657924E0
1.677772145E2,-9.578886032E-1,-1.616640091E0,6.447806358E-1
1.682772145E2,2.236635208E0,-1.531840324E0,1.206907511E0
1.687772145E2,-1.846694946E-1,-1.105027199E0,8.603606224E-1
1.692772145E2,6.570172310E-1,-2.173051834E0,9.717993736E-1
1.697772145E2,6.598734856E-1,-2.030559540E0,8.699306250E-1
1.702772145E2,-9.048061371E-1,-1.020707130E0,2.877552986E0
1.707772145E2,8.428459167E-1,-2.939538956E-1,-6.373496056E-1
1.712772145E2,-1.961428642E0,-1.426153183E-1,2.931825638E0
1.717772145E2,9.111890793E-1,9.457883835E-1,-1.288292408E-1
1.722772145E2,1.868362904E0,-2.619928360E0,-1.680922508E-1
1.727772145E2,1.439383745E0,2.539000511E0,-4.426159859E-1
1.732772145E2,2.583449364E0,-9.640746117E-1,1.407831192E0
1.737772145E2,1.047046185E0,2.430033207E0,-1.283619165E0
1.742772145E2,4.305424690E-1,-1.827153206E0,1.932789803E0
1.747772145E2,2.030367374E0,3.204424381E0,-5.282776356E-1
1.752772145E2,7.955980301E-2,-1.764777184E0,1.203332901E0
1.757772145E2,2.516408443E0,3.280424595E0,-7.973477840E-1
1.762772145E2,5.815401077E-1,-5.018711090E-1,1.763352871E0
1.767772145E2,4.211153984E-1,3.563662052E0,-1.460355997E0
1.772772145E2,1.334629059E-1,-1.012129307E0,8.928698897E-1
1.777772145E2,1.604510307E0,3.487940311E0,-4.135394096E-1
1.782772145E2,-7.048926353E-1,-1.163382053E0,2.925412416E0
1.787772145E2,1.910019875E0,2.921874046E0,6.215124130E-1
1.792772145E2,-1.226077557E0,-1.839817524E0,3.244038820E0
1.797772145E2,2.688893318E0,3.315911770E0,-1.723804474E-1
1.802772145E2,-1.557011604E0,-1.941141605E0,3.033272982E0
1.807772145E2,3.134353638E0,2.793586731E0,1.554892063E-1
1.812772145E2,-1.815417767E0,-2.094357967E0,2.621435642E0
1.817772145E2,1.141799212E0,2.594772816E0,2.104167938E-1
1.822772145E2,-1.221991062E0,-9.209041595E-1,3.098397732E0
1.827772145E2,1.719010949E0,1.842232704E0,1.456394196E-1
1.832772145E2,-2.246710300E0,-9.336457253E-1,2.723859072E0
1.837772145E2,1.922266960E0,3.660774231E-1,1.799862146E0
1.842772145E2,-3.469093323E0,-1.847222328E0,2.576906919E0
1.847772145E2,2.893745899E0,3.204616547E0,-1.144158840E0
1.852772145E2,-9.105131626E-1,-9.053268433E-1,4.124772549E-1
1.857772145E2,3.105581284E0,2.255476475E0,-7.469272614E-2
1.862772145E2,-8.925049305E-1,-2.155695915E0,-4.191660881E-1
1.867772145E2,7.627830505E-1,-1.508320808E0,2.737287760E0
1.872772145E2,-4.939262867E-1,-2.229995728E0,3.857337236E-1
1.877772145E2,9.760622978E-1,-3.371977806E0,2.065230370E0
1.882772145E2,5.669724941E-1,4.517269135E-2,9.320129156E-1
1.887772145E2,1.640827179E0,-2.691718102E0,1.505480528E0
1.892772145E2,3.965286016E0,1.166767120E0,-8.002488613E-1
1.897772145E2,1.399263382E0,-2.139297962E0,1.070656538E0
1.902772145E2,1.327805519E0,3.571420193E0,-9.158082008E-1
1.907772145E2,4.053106308E-1,1.416277885E0,1.557022572E0
1.912772145E2,1.640575051E0,2.965282440E0,-4.994719625E-1
1.917772145E2,2.102954388E-1,1.449175358E0,3.080035448E0
1.922772145E2,1.087075710E0,1.125271797E0,1.092686534E0
1.927772145E2,-2.582508087E0,4.314742088E-1,1.994923353E0
1.932772145E2,2.648648500E0,2.724218369E-1,1.216957808E0
1.937772145E2,-2.627931356E0,-7.554998398E-1,7.368716002E-1
1.942772145E2,4.447932243E0,-1.555352211E0,1.384689927E0
1.947772145E2,-1.658203602E0,-7.766447067E-1,9.361124039E-1
1.952772145E2,4.416761398E0,-8.100891113E-1,2.051495314E-1
1.957772145E2,-1.626605034E0,-1.275535583E0,1.505827904E0
1.962772145E2,1.940677166E0,-1.084633827E0,-8.238555193E-1
1.967772145E2,3.667688370E-1,-2.146491051E0,1.186528802E0
1.972772145E2,9.930667877E-1,3.830909729E-1,9.905533791E-1
1.977772145E2,1.621312618E0,-1.393391609E0,7.482643127E-1
1.982772145E2,1.192786217E0,-8.967676163E-1,9.832336903E-1
1.987772145E2,9.845814705E-1,-1.610822678E0,8.722696304E-1
1.992772145E2,2.933373451E0,-1.442800522E0,9.163260460E-2
1.997772145E2,1.215745211E0,-5.282850266E-1,1.387195587E-1
2.002772145E2,2.100373268E0,-2.096328735E0,1.226172447E-1
2.007772145E2,1.415875912E0,1.019261837E0,-2.265558243E-1
2.012772145E2,2.172145844E0,-1.484555244E0,-5.920195580E-2
2.017772145E2,2.235644817E0,2.264057636E0,1.680397987E-2
2.022772145E2,1.605950356E0,-8.429832458E-1,4.911201000E-1
2.027772145E2,1.114475012E0,2.155812263E0,-1.295208693E0
2.032772145E2,1.096630096E-2,-1.687459469E0,1.371508837E0
2.037772145E2,1.891056776E0,3.478816986E0,-1.119529486E0
2.042772145E2,-2.638522148E0,-1.258855343E0,8.528698683E-1
2.047772145E2,8.709144592E-1,2.775362492E0,-2.224553823E-1
2.052772145E2,-1.891513824E0,4.130840302E-1,1.722169161E0
2.057772145E2,9.139094353E-1,2.955675125E-1,3.320342302E-1
2.062772145E2,-3.453529358E0,-7.387590408E-1,1.613134861E0
2.067772145E2,1.996555328E0,-1.423377991E-1,1.524944663E0
2.072772145E2,-3.571053505E0,-1.016607761E0,1.192642927E0
2.077772145E2,2.342490196E0,-7.662525177E-1,1.651568532E0
2.082772145E2,-3.321679592E0,-1.667094231E0,1.239904404E0
2.087772145E2,2.914942265E0,2.707179546E0,-1.349060535E-1
2.092772145E2,-2.562125444E0,-1.027343750E0,-1.362899780E0
2.097772145E2,1.975986481E0,2.580877304E0,-9.827517271E-1
2.102772145E2,-2.551238298E0,-1.664337158E0,-1.553566813E0
2.107772145E2,2.942700386E-1,-2.166726112E0,1.755932689E0
2.112772145E2,-3.051953316E-1,-1.120912552E0,1.074944377E0
2.117772145E2,1.199890137E0,-2.122441292E0,8.122529984E-1
2.122772145E2,-5.654211044E-1,-8.133068085E-1,-2.849578857E-3
2.127772145E2,2.032558441E0,-1.157826424E0,1.078640699E0
2.132772145E2,4.075822830E-1,-6.885910034E-2,6.642791033E-1
2.137772145E2,2.528071880E0,-1.719448090E0,8.375691175E-1
2.142772145E2,1.021789551E0,1.922855854E0,8.634924889E-2
2.147772145E2,1.797870159E0,-1.933719635E0,5.783134103E-1
2.152772145E2,1.900586128E0,2.826308727E0,-4.276053905E-1
2.157772145E2,1.028923035E0,-1.194979191E0,1.347000360E0
2.162772145E2,2.105828047E0,3.155029774E0,-1.155135393E0
2.167772145E2,5.219888687E-1,-8.996176720E-1,1.554840088E0
2.172772145E2,1.137402773E0,2.796621799E0,-1.925504208E-1
2.177772145E2,-2.106514454E0,-2.438712597E0,3.304027557E0
2.182772145E2,5.578117371E-1,1.823082447E0,9.449893236E-1
2.187772145E2,-2.517816067E0,-1.467132568E-1,2.478410006E0
2.192772145E2,2.136220932E-1,1.277787685E0,1.199108243E0
2.197772145E2,-2.428565979E0,1.037335396E-1,2.392831802E0
2.202772145E2,1.283838034E0,1.075372219E0,1.183552742E0
2.207772145E2,-2.501201868E0,2.618494034E-1,2.053947687E0
2.212772145E2,1.577976227E0,2.358329296E0,-6.840612888E-1
2.217772145E2,-3.098403692E0,-3.047690392E-1,1.866894126E0
2.222772145E2,2.266254663E0,3.033970356E0,-8.089520931E-1
2.227772145E2,-3.446539402E0,-4.563674927E-1,1.166282177E0
2.232772145E2,8.378052711E-2,2.556116581E0,6.722060442E-1
2.237772145E2,-2.393171549E0,-1.262757301E0,1.667913437E0
2.242772145E2,6.324875355E-1,1.864281654E0,1.168848753E0
2.247772145E2,-1.062661409E0,-1.177806854E0,-8.738524914E-1
2.252772145E2,1.038914204E0,2.596587181E0,2.251150370E0
2.257772145E2,-2.049306631E0,-3.138773918E0,1.024562240E0
2.262772145E2,1.764080763E0,-2.379779816E-1,1.340434432E0
2.267772145E2,6.771974564E-1,-2.176561356E0,4.898793697E-1
2.272772145E2,8.414843082E-1,-7.605829239E-1,2.082337856E0
2.277772145E2,-2.235505104E0,-2.437562943E0,-3.934651613E-1
2.282772145E2,1.608959675E0,-2.387993813E0,2.466940880E0
2.287772145E2,-5.163495541E-1,-2.194053650E0,4.930889606E-1
2.292772145E2,3.643861771E0,-2.048675537E0,2.594626665E0
2.297772145E2,8.572597504E-1,9.377670288E-2,-8.275086880E-1
2.302772145E2,3.392442703E0,-3.407926559E-1,4.808492661E-1
2.307772145E2,1.595887899E0,5.655612946E-1,5.680661201E-1
2.312772145E2,2.927330494E0,-2.333633423E0,5.330049992E-1
2.317772145E2,3.032701731E0,1.627243519E0,2.153310776E-1
2.322772145E2,2.119443417E0,-1.929768562E0,1.402117848E0
2.327772145E2,4.891546249E0,2.757432938E0,-1.775530815E0
2.332772145E2,-6.034340858E-1,-2.299835682E0,1.523918390E0
2.337772145E2,8.649778366E-2,-1.398289680E0,-1.112757921E0
2.342772145E2,-1.529660225E-1,-1.142555237E0,1.120893240E0
2.347772145E2,1.348779678E0,-3.588171005E-1,1.525121093E0
2.352772145E2,-1.829878807E0,3.329854012E-1,2.737903118E0
2.357772145E2,9.629225731E-1,1.276836395E-1,6.416515708E-1
2.362772145E2,-2.640700817E0,-1.040194988E0,3.051667452E0
2.367772145E2,3.166627645E0,1.979707241E0,3.802025318E-1
2.372772145E2,-3.303064823E0,-1.059040070E0,2.693876743E0
2.377772145E2,3.238179684E0,3.263420582E0,-9.759070873E-1
2.382772145E2,-3.223035574E0,-1.302910805E0,1.508685946E0
2.387772145E2,2.851150513E0,3.541496754E0,7.397150993E-2
2.392772145E2,-2.354483604E0,-1.666672707E0,8.486263752E-1
2.397772145E2,2.733532906E0,2.390847206E0,2.938570976E-1
2.402772145E2,-2.331220388E0,-2.080976486E0,-5.811021328E-1
2.407772145E2,2.356440067E0,5.738945007E-1,1.824331999E0
2.412772145E2,-2.479373455E0,-2.381206512E0,-4.244220853E-1
2.417772145E2,2.022385120E0,-5.395927429E-1,2.563390970E0
2.422772145E2,-2.080685854E0,-2.709826469E0,-6.305678487E-1
2.427772145E2,2.095054150E0,-2.094079971E0,3.727800369E0
2.432772145E2,-6.669654846E-1,-2.183946609E0,3.456014395E-1
2.437772145E2,1.472712755E0,-1.677000046E0,2.837326527E0
2.442772145E2,-1.236862659E0,-2.296023369E0,1.296452880E-1
2.447772145E2,3.875982761E0,-1.173510551E0,2.533875227E0
2.452772145E2,-2.463965416E-1,-1.278800011E0,6.491051912E-1
2.457772145E2,2.647953510E0,-2.005702019E0,1.241669893E0
2.462772145E2,-1.082246780E0,-1.503942490E0,-9.551554322E-1
2.467772145E2,2.015505314E0,-2.780241966E0,1.258924007E0
2.472772145E2,-2.364231110E0,-2.230432510E0,-2.460334301E-1
2.477772145E2,1.622643948E0,-2.212089062E0,1.086654425E0
2.482772145E2,-1.416986704E0,-1.748571396E0,-1.709548235E-1
2.487772145E2,1.203910828E0,-2.498379707E0,1.517808914E0
2.492772145E2,-2.259032011E0,-2.216077805E0,-1.994481087E-1
2.497772145E2,6.614098549E-1,-2.232150555E0,1.567886949E0
2.502772145E2,-1.892977476E0,-1.816397667E0,4.079988003E-1
2.507772145E2,-4.408874512E-1,-3.754618168E0,1.063118577E0
2.512772145E2,-9.077739716E-1,-1.469755173E0,3.131407499E-1
2.517772145E2,-3.473491669E-1,-5.584079742E0,1.255296230E0
2.522772145E2,1.591003656E0,-9.815635681E-1,3.829708099E-1
2.527772145E2,-1.699548721E0,-3.547259331E0,1.075437427E0
2.532772145E2,1.271282434E0,-9.334812164E-1,1.060364366E0
2.537772145E2,-1.192164421E0,-1.873973370E0,2.347447634E0
2.542772145E2,3.288767338E-1,-9.728918076E-1,2.281157970E-1
2.547772145E2,-2.167192459E0,-2.716117382E0,1.934627533E0
2.552772145E2,4.338631630E-1,-1.430002213E0,1.088718057E0
2.557772145E2,-2.302258968E0,-2.461559296E0,1.584970355E0
2.562772145E2,1.215611696E0,-1.061894417E0,9.226846099E-1
2.567772145E2,-1.997618198E0,-2.829015732E0,1.905567646E0
2.572772145E2,1.024108887E0,-9.102201462E-1,1.129472017E0
2.577772145E2,-3.619819641E0,-2.267046928E0,1.535210729E0
2.582772145E2,2.194453001E0,6.172275543E-2,1.092844486E0
2.587772145E2,1.697747231E0,-2.681908131E0,1.374152303E0
2.592772145E2,2.818248749E0,1.954987526E0,1.680414677E-1
2.597772145E2,-4.352283478E-2,-2.459452152E0,7.302791476E-1
2.602772145E2,4.024041653E0,3.215807915E0,4.304447174E-1
2.607772145E2,-1.566504478E0,-2.698408604E0,1.750667810E0
2.612772145E2,3.756151199E0,2.560537815E0,1.443637609E-1
2.617772145E2,-2.495881557E0,-2.924093246E0,2.724984407E0
2.622772145E2,3.750368595E0,2.476209164E0,7.226160765E-1
2.627772145E2,-2.572913647E0,-3.868240833E0,2.709846258E0
2.632772145E2,3.093837500E0,8.120422363E-1,1.642941952E0
2.637772145E2,-4.139800072E0,-4.106243610E0,2.503459454E0
2.642772145E2,2.357821703E0,-1.367065430E0,2.803863287E0
2.647772145E2,-3.987676144E0,-2.782536983E0,3.182661295E0
2.652772145E2,1.751795769E0,-2.199742317E0,2.547258854E0
2.657772145E2,-3.742301702E0,-1.472513199E0,8.231860399E-1
2.662772145E2,1.679863930E0,-2.966598034E0,4.280291557E0
2.667772145E2,-3.735210419E0,-2.352450371E0,1.276620388E0
2.672772145E2,3.496482849E0,-1.653333664E0,3.577722073E0
2.677772145E2,-1.332172871E0,7.662010193E-2,6.488143206E-1
2.682772145E2,2.661062241E0,-1.417738914E0,2.102572918E0
2.687772145E2,4.166650772E-1,-1.286506653E-3,3.227874041E-1
2.692772145E2,1.374840736E0,-1.719882011E0,2.090372086E0
2.697772145E2,1.565918922E-1,-1.247733116E0,-2.264248133E-1
2.702772145E2,3.133097887E0,-2.117093086E0,-1.157712698E0
2.707772145E2,-1.085252523E0,-1.871967316E0,1.154263139E0
2.712772145E2,-2.636270523E-1,1.433091640E0,1.243787050E0
2.717772145E2,-2.802286148E-1,-2.205057144E0,4.145187140E-1
2.722772145E2,4.156987667E-1,-3.520622253E-1,1.608203769E0
2.727772145E2,-5.819196701E-1,-2.912724972E0,9.615633488E-1
2.732772145E2,1.764677525E0,-1.780891418E-2,2.047038078E0
2.737772145E2,-1.321187019E-1,-2.372704506E0,1.569818258E0
2.742772145E2,3.696348667E0,7.654194832E-1,2.303312421E-1
2.747772145E2,6.458315849E-1,-1.734108925E0,1.455277085E0
2.752772145E2,2.788997173E0,-1.109315872E0,6.187057495E-1
2.757772145E2,8.557748795E-2,-1.520231247E0,3.569228649E-1
2.762772145E2,1.890436172E0,-1.818424225E0,3.523859978E-1
2.767772145E2,1.837189794E0,-9.434347153E-1,-3.396091461E-1
2.772772145E2,1.331837654E0,-3.500173569E0,-2.051589489E-1
2.777772145E2,1.999165535E0,1.192897797E0,-5.624070168E-1
2.782772145E2,2.765968323E0,-1.574462891E0,-1.138074279E0
2.787772145E2,1.006603718E0,1.757679462E0,-1.739660978E0
2.792772145E2,2.721511364E0,-1.665363312E0,-1.139255762E-1
2.797772145E2,1.265445232E0,2.926157475E0,-8.726787567E-1
2.802772145E2,2.852660656E0,5.336995125E-1,1.447352529E0
2.807772145E2,1.318951607E0,3.376552582E0,-2.760775328E0
2.812772145E2,1.107629776E0,-4.411363602E-2,1.437270880E0
2.817772145E2,1.993313551E0,3.354790211E0,-3.959970474E-1
2.822772145E2,5.380058289E-2,1.011347771E-1,1.691432953E0
2.827772145E2,1.677885890E0,3.205284595E0,1.179156303E-1
2.832772145E2,-7.154526711E-1,-3.128638268E-1,1.550451517E0
2.837772145E2,9.240279198E-1,-4.021348953E-1,5.122753382E-1
2.842772145E2,-2.937323093E0,-7.184028625E-2,2.299286127E0
2.847772145E2,9.503896236E-1,7.786130905E-1,-1.390731096E0
2.852772145E2,-2.516122580E0,5.999784470E-1,2.542873144E0
2.857772145E2,1.861460924E0,2.240552425E0,-9.116485119E-1
2.862772145E2,-2.352266073E0,9.159111977E-1,3.093957901E0
2.867772145E2,1.600305557E0,3.114249229E0,-1.666527510E0
2.872772145E2,-1.614530563E0,2.723522186E-1,2.341072321E0
2.877772145E2,8.964858055E-1,3.067681789E0,-1.301073313E0
2.882772145E2,-1.543274641E0,-2.183170319E-1,4.660543203E-1
2.887772145E2,1.177299023E0,3.198755264E0,-7.511482239E-1
2.892772145E2,-1.212916613E0,-1.315361977E0,-1.684905291E-1
2.897772145E2,8.652956486E-1,2.425283432E0,-2.792859077E-2
2.902772145E2,-6.537110806E-1,-1.097508430E0,-3.147575855E-1
2.907772145E2,1.040138245E0,2.267000675E0,2.578407526E-1
2.912772145E2,-1.234208345E0,-2.239368439E0,7.441463470E-1
2.917772145E2,9.875965118E-1,5.180206299E-1,1.520006657E0
2.922772145E2,-1.814866066E-1,-2.210109711E0,6.602606773E-1
2.927772145E2,9.895999432E-1,-1.106542587E0,1.033097863E0
2.932772145E2,7.956047058E-1,-1.901218414E0,9.022677541E-1
2.937772145E2,7.142133713E-1,-2.626515388E0,1.125126243E0
2.942772145E2,1.248687267E0,-1.969273567E0,1.012716174E0
2.947772145E2,1.465407848E0,-2.504120827E0,1.637419105E0
2.952772145E2,7.337088585E-1,-1.588522911E0,4.859762192E-1
2.957772145E2,1.610288620E0,-2.407020569E0,1.404849410E0
2.962772145E2,-1.512150049E0,-6.163454056E-1,-2.840461731E-1
2.967772145E2,1.941605568E0,-1.870625496E0,1.228285789E0
2.972772145E2,-8.443233967E-1,-8.556070328E-1,4.568219185E-2
2.977772145E2,2.695012569E0,-2.275178909E0,3.117139339E-1
2.982772145E2,1.025047302E-1,-1.680331230E0,3.888065219E-1
2.987772145E2,2.028697491E0,-1.572963715E0,3.948761225E-1
2.992772145E2,-2.354846001E-1,-2.447346687E0,5.431980491E-1
2.997772145E2,7.463364601E-1,3.295574188E-1,1.630328178E0
3.002772145E2,2.117724419E-1,-1.274955750E0,4.289771318E-1
3.007772145E2,-7.078995705E-1,8.090257645E-2,2.647767067E0
3.012772145E2,2.088063717E0,-8.797082901E-1,4.480842352E-1
3.017772145E2,-1.829235792E0,-3.731708527E-1,2.368548393E0
3.022772145E2,2.183341026E0,-3.119049072E-1,-4.784450531E-1
3.027772145E2,-2.042219400E0,1.629867554E0,1.173261881E0
3.032772145E2,-1.649849415E-1,9.711475372E-1,3.056038618E-1
3.037772145E2,-2.354154110E0,8.515458107E-1,2.809709787E0
3.042772145E2,1.267559290E0,2.557483196E0,-1.123824120E0
3.047772145E2,-2.185013056E0,2.977600098E-1,1.742213726E0
3.052772145E2,1.199727058E0,3.131600857E0,-1.683138013E0
3.057772145E2,-1.688415647E0,2.291231155E-1,1.152988553E0
3.062772145E2,1.437091112E0,2.905063629E0,-1.747829199E0
3.067772145E2,-1.244264483E0,-3.374319077E-1,-4.391144514E-1
3.072772145E2,8.502882719E-1,2.357196331E0,-9.134427309E-1
3.077772145E2,-1.507208109E0,-1.613217354E0,9.947633743E-2
3.082772145E2,4.301214218E-1,1.035903931E0,1.032018661E-2
3.087772145E2,-2.060619354E0,-2.534198761E-1,2.956427813E0
3.092772145E2,7.889599800E-1,-3.390722275E-1,2.042722940E0
3.097772145E2,-2.570461035E0,6.947951317E-1,9.768654704E-1
3.102772145E2,2.390513420E0,-1.406041145E0,1.727934241E0
3.107772145E2,-2.457432985E0,-4.783329964E-1,1.474495530E0
3.112772145E2,2.249471188E0,-2.196809769E0,1.380525351E0
3.117772145E2,-2.560289621E0,-1.438488960E0,5.023437738E-1
3.122772145E2,2.994864941E0,-2.291299820E0,9.096558094E-1
3.127772145E2,-2.520248652E0,-2.396641731E0,-2.579166293E-1
3.132772145E2,2.355595112E0,-1.659474373E0,1.140506506E0
3.137772145E2,-5.783305168E-1,-1.849553108E0,1.459671855E-1
3.142772145E2,9.296040535E-1,-1.335709572E0,1.683983803E-1
3.147772145E2,-6.801557541E-2,-1.994256973E0,1.403254271E-1
3.152772145E2,-1.745063305E0,-1.203940868E0,1.938468218E0
3.157772145E2,-3.681869507E-1,-1.456024170E0,2.241475582E-1
3.162772145E2,-3.470388174E0,-2.002625942E0,2.909465075E0
3.167772145E2,9.717979431E-1,5.921096802E-1,1.163759232E-1
3.172772145E2,-3.009064198E0,-6.219897270E-1,2.351597548E0
3.177772145E2,8.216249943E-1,3.478763103E0,-1.777081490E-1
3.182772145E2,-2.565956354E0,-7.942543030E-1,2.283312321E0
3.187772145E2,1.010472775E-1,2.128692627E0,1.534732103E0
3.192772145E2,-3.065891027E0,-1.800492287E0,5.034044981E-1
3.197772145E2,-4.720587730E-1,1.700242519E0,1.270713925E0
3.202772145E2,-9.024834633E-1,-2.306856155E0,4.061281085E-1
3.207772145E2,-3.587436676E-1,3.659715652E-1,1.311361670E0
3.212772145E2,-2.820890188E0,2.933492661E-1,2.482243061E0
3.217772145E2,1.853395939E0,-1.422461510E0,2.227045774E0
3.222772145E2,-2.443897963E0,-3.447566032E-1,4.379161835E0
3.227772145E2,4.155681133E-1,-2.610850334E0,3.200062275E0
3.232772145E2,-2.217639208E0,-5.323243141E-1,2.472243309E0
3.237772145E2,2.903684855E0,-1.787147522E0,2.628006458E0
3.242772145E2,-1.737963915E0,-7.127666473E-1,1.621614099E0
3.247772145E2,2.617901325E0,-3.213541985E0,2.734512806E0
3.252772145E2,-9.578306675E-1,-1.200781822E0,7.292000055E-1
3.257772145E2,3.095596313E0,-2.359972000E0,1.556021094E0
3.262772145E2,1.345636606E0,-1.480592728E0,8.602992296E-1
3.267772145E2,2.906208038E0,-1.228881836E0,1.654075742E0
3.272772145E2,1.185712099E0,-1.689465523E0,-1.398389339E-1
3.277772145E2,2.077816963E0,-8.491106033E-1,1.171416759E0
3.282772145E2,-1.616983414E-1,-3.314509392E0,1.253986835E0
3.287772145E2,2.559584141E0,-1.337776184E-1,2.075690746E0
3.292772145E2,-1.887610435E0,-3.996805668E0,9.302620888E-1
3.297772145E2,2.059097767E0,6.634535789E-1,1.777470827E0
3.302772145E2,3.898272514E-1,-1.843720436E0,4.175291061E-1
3.307772145E2,-2.122774124E-1,-1.278827667E0,2.697705746E0
3.312772145E2,4.003639221E-1,-1.590726852E0,1.386503458E0
3.317772145E2,-1.944112301E0,-5.788769722E-1,3.320938587E0
3.322772145E2,9.839468002E-1,2.870616913E-1,9.303882122E-1
3.327772145E2,-2.727580786E0,-1.067114353E0,3.070318937E0
3.332772145E2,9.558849335E-1,8.486480713E-1,7.204868793E-1
3.337772145E2,2.058141232E0,-2.120682716E0,1.793287158E0
3.342772145E2,6.487994194E-1,2.893472195E0,-9.097075462E-1
3.347772145E2,1.333842754E0,-7.880487442E-1,1.709747314E0
3.352772145E2,2.230947256E0,3.194648266E0,-9.827938080E-1
3.357772145E2,6.476426125E-1,-8.024606705E-1,1.408737421E0
3.362772145E2,2.351759195E0,2.803280354E0,-2.812333107E-1
3.367772145E2,7.504439354E-1,-4.851083755E-1,1.747651100E0
3.372772145E2,1.575403810E0,2.812722683E0,-1.428527832E-1
3.377772145E2,-6.016693115E-1,-8.119893074E-1,3.136138916E0
3.382772145E2,2.103091240E0,2.216228962E0,1.495988369E-1
3.387772145E2,-8.780794144E-1,-1.003068447E0,3.061637163E0
3.392772145E2,2.285619259E0,1.954113960E0,-1.062391043E0
3.397772145E2,-2.649356365E0,-1.915650845E0,2.831743717E0
3.402772145E2,1.338911057E0,2.729644775E-1,2.826093137E-1
3.407772145E2,-3.714255333E0,-2.407204151E0,2.922774315E0
3.412772145E2,2.546117306E0,5.356683731E-1,9.636110067E-2
3.417772145E2,-2.971074104E0,-2.516441822E0,3.047989845E0
3.422772145E2,2.743931532E0,8.085374832E-1,1.198058367E0
3.427772145E2,-3.373198986E0,-3.391740799E0,3.635252476E0
3.432772145E2,1.637069941E0,7.974357605E-1,8.219393492E-1
3.437772145E2,-3.008486509E0,-1.713532448E0,4.374468803E0
3.442772145E2,7.100317478E-1,7.224082947E-3,1.685916424E0
3.447772145E2,-3.372376442E0,-1.114605904E0,2.897624493E0
3.452772145E2,1.779501677E0,-1.420315742E0,2.636828423E0
3.457772145E2,-3.257138968E0,-1.651475430E0,2.385553360E0
3.462772145E2,3.295911551E0,3.173062801E0,-9.000031948E-1
3.467772145E2,-3.590970039E0,-8.013582230E-1,2.103136301E0
3.472772145E2,2.024813890E0,3.312538624E0,-9.298493862E-1
3.477772145E2,-2.116504192E0,-3.034315109E-1,8.663774133E-1
3.482772145E2,1.710380793E0,3.760667324E0,-4.651529789E-1
3.487772145E2,-1.891579866E0,-4.057855606E-1,1.677578449E0
3.492772145E2,1.728333235E0,2.946829319E0,6.164449453E-1
3.497772145E2,-1.758535624E0,-5.470705032E-1,5.080308914E-1
3.502772145E2,1.569251418E0,2.172243118E0,2.372968197E-1
3.507772145E2,-1.164376497E0,-6.526794434E-1,5.910310149E-1
3.512772145E2,2.325502396E0,1.977472782E0,1.481105328E0
3.517772145E2,-2.059213400E0,-9.705944061E-1,2.501436472E-1
3.522772145E2,1.602618694E0,1.068588257E0,1.486157775E0
3.527772145E2,-1.116738081E0,-1.618676186E0,-2.238743156E-1
3.532772145E2,1.717771292E0,1.736822128E-1,1.998225331E0
3.537772145E2,-2.861270905E-1,-1.550662994E0,8.323969245E-1
3.542772145E2,9.164009094E-1,5.884838104E-1,2.134040117E0
3.547772145E2,1.431159616E0,-7.294216156E-1,6.603956819E-1
3.552772145E2,1.552643776E0,3.833332062E-1,1.347386599E0
3.557772145E2,-2.020356417E0,-2.590083122E0,8.649711013E-1
3.562772145E2,1.408508778E0,-3.031597137E-1,1.389967084E0
3.567772145E2,-3.801002502E-1,-1.826050758E0,2.680337429E0
3.572772145E2,1.131008863E0,-5.708274841E-1,2.680756330E0
3.577772145E2,-9.135308266E-1,-2.635399818E0,2.299088955E0
3.582772145E2,3.379595280E0,-3.112640381E-1,-2.024185658E-1
3.587772145E2,-3.639806747E0,-1.874834538E0,2.741077662E0
3.592772145E2,2.894427299E0,-2.130517960E0,2.315107584E0
3.597772145E2,-2.926385641E0,-1.181185246E0,1.294999838E0
3.602772145E2,1.632105350E0,-1.839257240E0,2.015101433E0
3.607772145E2,-3.280297041E0,-1.137796402E0,6.312358379E-1
3.612772145E2,1.801065922E0,-2.311400414E0,2.434591532E0
3.617772145E2,-2.634614706E0,-1.245448112E0,-2.194035053E-1
3.622772145E2,1.876395702E0,-1.084766388E0,2.711426258E0
3.627772145E2,-2.853405476E0,-1.539021969E0,-3.580611944E-1
3.632772145E2,2.684322834E0,-2.318197250E0,2.578678370E0
3.637772145E2,-2.558472395E0,-8.014097214E-1,2.757337093E-1
3.642772145E2,3.072675228E0,-2.115207672E0,2.711523771E0
3.647772145E2,-3.371059418E0,-1.661513329E0,4.636189640E-1
3.652772145E2,2.854113102E0,-2.083331108E0,2.787868261E0
3.657772145E2,-2.695366144E0,-1.751723289E0,7.435618639E-1
3.662772145E2,2.724759579E0,-1.687975883E0,2.647007704E0
3.667772145E2,-3.013559818E0,-1.278510571E0,2.854970932E0
3.672772145E2,2.424343586E0,-8.136491776E-1,1.388536453E0
3.677772145E2,-3.101927757E0,-1.127215862E0,1.373234272E0
3.682772145E2,2.083014488E0,6.616020203E-1,8.470102549E-1
3.687772145E2,-2.551821232E0,-2.442960739E0,1.616239548E0
3.692772145E2,1.977756023E0,6.015367508E-1,2.289435863E-1
3.697772145E2,8.867931366E-2,-1.208200455E-1,1.216188908E0
3.702772145E2,-5.109095573E-2,2.743549347E-1,1.186516583E-1
3.707772145E2,1.959149361E0,5.151090622E-1,1.436166286E0
3.712772145E2,-1.488712311E0,-8.119306564E-1,4.137850106E-1
3.717772145E2,8.328251839E-1,4.353923798E-1,6.711305380E-1
3.722772145E2,-3.945264816E-1,1.030530930E-1,3.608656824E-1
3.727772145E2,2.059087753E-1,1.861152649E-1,3.573287725E-1
3.732772145E2,-1.378107071E-2,1.050109863E-1,1.062034369E-1
3.737772145E2,6.693124771E-2,8.532428741E-2,-1.616337895E-2
3.742772145E2,1.805562973E-1,9.046554565E-3,2.823591232E-1
3.747772145E2,-7.063827515E-1,-2.911005020E-1,-1.897020638E-1
3.752772145E2,1.922582626E0,1.213775635E0,3.393898010E-1
3.757772145E2,2.911481857E-1,7.636566162E-1,1.195217609E0
3.762772145E2,2.112114906E0,-6.595697403E-1,-2.681468129E-1
3.767772145E2,-1.858722210E0,-3.790149689E-1,1.218533158E0
3.772772145E2,1.740150213E0,2.405399799E0,-6.839451790E-1
3.777772145E2,-2.827123404E0,-2.114020348E0,-1.246386886E0
3.782772145E2,8.999831676E-1,1.515480042E0,-1.087348461E-1
3.787772145E2,-2.460222006E0,-2.590081692E0,-6.151770353E-1
3.792772145E2,1.140385151E0,-1.395291328E0,2.255766392E0
3.797772145E2,-3.010916710E-1,-2.577826500E0,1.335234165E0
3.802772145E2,2.583725929E0,-2.672655106E0,2.396780252E0
3.807772145E2,2.875931263E-1,1.442463398E0,5.168421268E-1
3.812772145E2,9.535536766E-1,-3.287477970E0,2.878999710E-2
3.817772145E2,2.916068792E0,2.232272148E0,-1.127098918E0
3.822772145E2,-1.938336849E0,-3.166229725E0,1.188206792E0
3.827772145E2,4.400936604E0,3.141619682E0,4.198321700E-1
3.832772145E2,-1.163576603E0,-2.916714191E0,2.242923737E0
3.837772145E2,3.800699711E-1,4.758262634E-2,1.013024449E0
3.842772145E2,-2.020501137E0,-1.712520599E0,3.372725725E0
3.847772145E2,2.952292442E0,4.504709244E-1,1.373824000E0
3.852772145E2,-2.647186279E0,-1.570520878E0,4.167652130E0
3.857772145E2,2.029795170E0,1.372828007E0,1.185395360E0
3.862772145E2,-3.151542902E0,-7.152819633E-1,2.994307995E0
3.867772145E2,1.738147020E0,2.747637749E0,-4.385950565E-1
3.872772145E2,-1.988965034E0,-1.153334618E0,5.365300179E-2
3.877772145E2,1.875802517E0,2.911911488E0,1.666221619E-1
3.882772145E2,-2.338958025E0,-1.908220291E0,-3.451994658E-1
3.887772145E2,1.782380581E0,1.530603886E0,7.769354582E-1
3.892772145E2,-8.703427315E-1,-2.240621567E0,1.215660691E0
3.897772145E2,2.190504551E0,-1.505692482E0,3.140412807E0
3.902772145E2,5.706152916E-1,-1.537631035E0,7.187944055E-1
3.907772145E2,2.045876980E0,-1.301208496E0,3.283252954E0
3.912772145E2,1.248976469E0,-1.406889915E0,7.436401844E-1
3.917772145E2,3.146253109E0,-3.277613640E0,3.296145678E0
3.922772145E2,1.770669818E0,1.291522980E-1,9.099879265E-1
3.927772145E2,3.281454086E0,-1.951272011E0,1.644354939E0
3.932772145E2,2.237822533E0,2.467691898E0,6.065683365E-1
3.937772145E2,2.156827927E0,-8.404512405E-1,1.684986115E0
3.942772145E2,5.242056847E0,3.548149586E0,-9.752475023E-1
3.947772145E2,8.424201012E-1,1.127865791E0,2.084674120E0
3.952772145E2,5.403537750E-1,2.223099709E0,-9.490063787E-2
3.957772145E2,-5.847320557E-1,-4.624609947E-1,2.970711470E0
3.962772145E2,1.509033918E0,-5.607728958E-1,1.921245337E0
3.967772145E2,-2.759657621E0,-8.999824524E-3,2.826282024E0
3.972772145E2,2.014172077E0,1.164775848E0,-6.877657175E-1
3.977772145E2,-2.439069986E0,8.265752792E-1,1.973324776E0
3.982772145E2,1.925996423E0,2.180214405E0,-1.860823631E-1
3.987772145E2,-1.558397174E0,6.224966049E-1,1.029343843E0
3.992772145E2,6.722884178E-1,2.505940914E0,3.264590204E-1
3.997772145E2,-1.074803352E0,7.664270401E-1,1.438797712E0
4.002772145E2,7.020902634E-2,2.897863865E0,-9.568881989E-1
4.007772145E2,-6.967067719E-1,-9.083871841E-1,1.102073550E0
4.012772145E2,-2.535467148E-1,1.538218975E0,5.114205480E-1
4.017772145E2,-7.971763611E-3,-2.380452156E0,2.543605089E0
4.022772145E2,1.518696308E0,-6.139793396E-1,2.224195957E0
4.027772145E2,2.739233971E-1,-2.131731987E0,7.700544596E-1
4.032772145E2,2.453186750E0,-1.781965256E0,1.961001992E0
4.037772145E2,1.046799660E0,-3.825664520E-2,1.128164768E0
4.042772145E2,2.524065495E0,-2.371809006E0,1.840690136E0
4.047772145E2,2.082441568E0,2.047783375E0,4.290845394E-1
4.052772145E2,6.075634956E-1,-2.209204674E0,1.589928389E0
4.057772145E2,3.206275940E0,3.456215858E0,3.239620924E-1
4.062772145E2,-6.007809639E-1,-2.697636604E0,2.463692188E0
4.067772145E2,4.094351768E0,2.711103439E0,-2.313423157E-2
4.072772145E2,-1.967541218E0,-2.634684086E0,2.506625891E0
4.077772145E2,4.011011600E0,1.283637047E0,1.604001999E0
4.082772145E2,-3.959989309E0,-3.408159733E0,3.074934959E0
4.087772145E2,2.681004047E0,7.090625763E-1,1.283978939E0
4.092772145E2,-4.520800114E0,-2.820654392E0,3.070842028E0
4.097772145E2,2.603280544E0,2.375682354E0,1.359416485E0
4.102772145E2,-3.065398693E0,-2.822011471E0,2.224582434E0
4.107772145E2,2.349454880E0,3.457719326E0,-2.892706394E-1
4.112772145E2,-2.097720385E0,-1.299219131E0,3.036987782E-1
4.117772145E2,2.285285234E0,2.512874126E0,1.571786404E-1
4.122772145E2,-2.351705790E0,-2.125400543E0,-1.155877113E-2
4.127772145E2,1.554589272E0,1.362392902E0,1.577350378E0
4.132772145E2,-7.277481556E-1,-2.055665016E0,-1.184520721E-1
4.137772145E2,6.350123882E-1,-1.480468750E0,2.921195507E0
4.142772145E2,-1.144779205E0,-1.894238472E0,4.827514291E-1
4.147772145E2,7.281956673E-1,-3.264073372E0,3.831118584E0
4.152772145E2,-1.838548183E-1,-2.065780640E0,1.347169757E0
4.157772145E2,7.818231583E-1,-3.741685867E0,3.813291311E0
4.162772145E2,1.081000090E0,-1.402740479E0,2.038866282E0
4.167772145E2,1.337301731E0,-3.844306469E0,2.740285158E0
4.172772145E2,3.306640148E0,-2.374992371E-1,1.779674649E0
4.177772145E2,3.452033997E-1,-3.517228603E0,2.347795248E0
4.182772145E2,3.244196653E0,2.181170464E0,3.825204372E-1
4.187772145E2,9.346132278E-1,-2.397722721E0,5.805393457E-1
4.192772145E2,2.900735378E0,2.995286465E0,8.601257801E-1
4.197772145E2,-7.920222282E-1,-4.090548038E0,1.162388325E0
4.202772145E2,2.917894840E0,2.999073982E0,1.111394882E0
4.207772145E2,-9.826254845E-1,-3.082853794E0,1.991182446E0
4.212772145E2,-1.787624359E-1,-1.210842133E0,1.853449225E0
4.217772145E2,-3.681528568E0,-1.244773865E0,1.296132803E0
4.222772145E2,6.471905708E-1,1.906280518E-1,1.603106499E0
4.227772145E2,-4.868843079E0,-4.285886288E0,2.973967314E0
4.232772145E2,3.462820530E0,5.534381866E-1,1.256677628E0
4.237772145E2,-5.232959747E0,-3.636504173E0,2.739641190E0
4.242772145E2,3.541597843E0,1.717748642E0,1.480086565E0
4.247772145E2,-5.029356956E0,-4.152441025E0,1.876128435E0
4.252772145E2,5.061109543E0,1.091001511E0,1.824386477E0
4.257772145E2,-4.911437511E0,-4.289507866E0,1.018738985E0
4.262772145E2,4.665370464E0,1.461570740E0,1.252346516E0
4.267772145E2,-4.003147125E0,-2.869135857E0,8.086814880E-1
4.272772145E2,3.914553642E0,2.690532207E0,1.043441534E0
4.277772145E2,-4.159271240E0,-3.085245132E0,7.196581364E-2
4.282772145E2,3.178497314E0,2.059926510E0,1.222812653E0
4.287772145E2,-3.272047758E0,-2.685648918E0,-1.707692266E0
4.292772145E2,3.023408413E0,-6.926345825E-2,2.973007202E0
4.297772145E2,-2.766304731E0,-1.769270897E0,-1.099868655E0
4.302772145E2,2.257010460E0,-1.418648720E0,4.457294941E0
4.307772145E2,-1.575853825E0,-2.836466789E0,6.439012289E-1
4.312772145E2,3.504457474E0,-1.975884438E0,3.420860529E0
4.317772145E2,3.489251137E-1,-2.476031303E0,8.608987331E-1
4.322772145E2,1.465948582E0,-3.052398682E0,2.958274364E0
4.327772145E2,1.912264824E-1,-9.040107727E-1,2.922712326E0
4.332772145E2,2.222487450E0,-2.408858299E0,2.133492947E0
4.337772145E2,-2.546719551E0,-2.040688515E0,-1.109551311E0
4.342772145E2,1.968600273E0,-9.211387634E-1,1.718547344E0
4.347772145E2,-2.163486242E0,-4.035216331E0,5.868813992E-1
4.352772145E2,1.766852379E0,-2.037734985E-1,1.674024463E0
4.357772145E2,-2.015329838E0,-3.391372681E0,9.897766113E-1
4.362772145E2,-2.413301468E-1,-1.107177734E-1,2.852846384E0
4.367772145E2,3.753018379E-1,-1.125593185E0,2.233191967E0
4.372772145E2,-2.760324001E0,-2.996845245E-1,2.718261242E0
4.377772145E2,1.790771961E0,1.621363640E0,1.387813091E-1
4.382772145E2,7.594060898E-2,2.017001152E0,3.419159651E0
4.387772145E2,-2.140215158E0,2.588858128E0,8.648302555E-1
4.392772145E2,-1.570085526E0,-1.514924526E0,3.102848530E0
4.397772145E2,-6.684145927E-1,1.516125679E0,5.789179802E-1
4.402772145E2,-4.347615242E-1,-2.499617100E0,1.345222831E0
4.407772145E2,2.538539410E0,-1.948680878E0,9.247891903E-1
4.412772145E2,8.144063950E-1,3.707599640E-2,2.663142681E-1
4.417772145E2,1.027741909E0,-3.238237858E0,1.553843498E0
4.422772145E2,1.584914684E0,3.470154762E0,-1.267345786E0
4.427772145E2,2.642025948E-1,-7.156462669E-1,1.683398008E0
4.432772145E2,1.730509162E0,2.555162907E0,-5.448408723E-1
4.437772145E2,-2.525172234E0,-2.374738693E0,5.354532242E0
4.442772145E2,9.540071487E-1,-4.468431473E-1,2.039391279E0
4.447772145E2,-3.519640207E0,-9.027070999E-1,1.524906516E0
4.452772145E2,1.795563698E0,-6.451067924E-1,2.265753269E0
4.457772145E2,-3.206189871E0,-4.064846039E-1,-5.440241098E-1
4.462772145E2,2.458423376E0,3.879681587E0,-1.280307531E0
4.467772145E2,-2.270969152E0,-1.136333466E0,-3.946760297E-1
4.472772145E2,3.396348953E0,2.196742535E0,-4.457604885E-2
4.477772145E2,-2.606026173E0,-1.467081070E0,-1.838003397E-1
4.482772145E2,1.259787321E0,1.890123844E0,1.984480619E0
4.487772145E2,-2.818767548E0,-2.926640511E0,1.586737037E0
4.492772145E2,7.732152939E-2,6.643719673E-1,6.531260014E-1
4.497772145E2,1.508857727E0,-2.129060745E0,-5.071533918E-1
4.502772145E2,1.776666641E-1,-8.547592163E-1,2.293303728E0
4.507772145E2,1.030382156E0,-1.297370911E0,3.185427189E0
4.512772145E2,1.427392006E0,-2.384867668E0,2.293910503E0
4.517772145E2,9.504318237E-2,6.282763481E-1,6.541987658E-1
4.522772145E2,1.502190590E0,-1.754916191E0,1.285993695E0
4.527772145E2,7.010140419E-1,2.517788410E0,4.477690458E-1
4.532772145E2,3.943157196E-2,-8.332753181E-1,1.308588028E0
4.537772145E2,-5.490064621E-2,2.812537670E0,2.361071110E-1
4.542772145E2,-1.556573868E0,-7.128677368E-1,2.385252953E0
4.547772145E2,8.912620544E-1,1.504941940E0,7.254043818E-1
4.552772145E2,-2.761253119E0,-3.869261742E-1,3.613146782E0
4.557772145E2,4.958446026E-1,-3.134384155E-1,1.532725215E0
4.562772145E2,-4.245607376E0,-2.475118160E0,2.119555712E0
4.567772145E2,3.197480202E0,-5.531549454E-1,1.014565229E0
4.572772145E2,-1.016131043E0,7.547540665E-1,2.775824547E0
4.577772145E2,1.473228931E0,-1.752417564E0,4.333281517E-2
4.582772145E2,-2.085938215E0,-1.082674026E0,2.490145683E0
4.587772145E2,1.839684963E0,-2.599923134E0,1.886595488E-1
4.592772145E2,-1.149805307E0,-1.812685013E0,1.643019319E-1
4.597772145E2,1.043725371E0,1.127577782E0,-1.802402139E-1
4.602772145E2,-1.160778046E0,-2.976859093E0,9.370267391E-1
4.607772145E2,2.152966499E0,-1.067647934E-1,1.379187226E0
4.612772145E2,-1.354815245E0,-3.458921432E0,1.779219866E0
4.617772145E2,2.706207037E0,2.334527969E-1,9.279778004E-1
4.622772145E2,-1.673348665E0,-3.462941170E0,-4.403325617E-1
4.627772145E2,2.844687939E0,-8.015127182E-1,2.551592350E0
4.632772145E2,1.237320900E-1,-1.863829613E0,8.845940232E-1
4.637772145E2,2.331512928E0,-1.469857216E0,2.699478388E0
4.642772145E2,5.195975304E-1,-1.726673126E0,8.455176353E-1
4.647772145E2,2.198304653E0,-2.635728836E0,2.480957031E0
4.652772145E2,2.234064341E0,2.223157883E-1,1.938852072E-1
4.657772145E2,1.959648132E0,-3.118852139E0,2.085201025E0
4.662772145E2,3.614786863E0,3.465461731E-2,7.044887543E-1
4.667772145E2,1.557147026E0,-2.446748257E0,1.897021770E0
4.672772145E2,-2.912054062E-1,2.368237495E0,5.903162956E-1
4.677772145E2,2.733287334E0,-7.447390556E-1,2.403021097E0
4.682772145E2,2.484798193E0,3.700761318E0,-1.538266540E0
4.687772145E2,3.795833588E-1,-1.409475803E0,2.445458889E0
4.692772145E2,2.925976276E0,3.612756729E0,-8.279666901E-1
4.697772145E2,-1.461240292E0,-2.455923557E0,2.873845339E0
4.702772145E2,2.207573891E0,2.210004807E0,4.992375970E-1
4.707772145E2,-2.120907784E0,-4.701708317E0,4.130422592E0
4.712772145E2,2.396199703E0,4.485578537E-1,2.907095194E0
4.717772145E2,-3.323795319E0,-3.672940731E0,4.431237698E0
4.722772145E2,5.841450691E0,1.353757381E0,2.553890228E0
4.727772145E2,-2.891064882E0,-3.340355396E0,4.564265251E0
4.732772145E2,5.707645416E0,3.158398151E0,1.357679129E0
4.737772145E2,-2.633782625E0,-1.288441658E0,2.478863001E0
4.742772145E2,3.863899708E0,3.907935143E0,-6.142885685E-1
4.747772145E2,-2.484307766E0,-5.150356293E-1,2.068462849E0
4.752772145E2,2.758926392E0,3.170231819E0,3.471622467E-1
4.757772145E2,-3.071190834E0,-1.839087963E0,2.197559118E0
4.762772145E2,1.581788063E-1,4.648218155E-1,2.250913620E0
4.767772145E2,-6.732282639E-1,-1.208198547E0,1.249606967E0
4.772772145E2,2.306845665E0,4.119138718E-1,3.434841871E0
4.777772145E2,4.094555378E-1,-1.613292694E0,7.507160306E-2
4.782772145E2,4.496306419E0,-1.785652161E0,4.114985466E0
4.787772145E2,2.631362915E0,-1.467478752E0,5.534613132E-2
4.792772145E2,2.434169292E0,-3.351541519E0,4.296744823E0
4.797772145E2,3.403540134E0,-2.243690491E0,2.296182871E0
4.802772145E2,2.138450146E0,-4.557779312E0,5.816083908E0
4.807772145E2,4.698678970E0,-2.994365692E-1,3.356886148E0
4.812772145E2,2.555109024E0,-3.257037640E0,4.211493015E0
4.817772145E2,5.385240078E0,2.069471359E0,2.185866356E0
4.822772145E2,2.475022316E0,-2.048164845E0,3.162691593E0
4.827772145E2,5.240656853E0,2.434278488E0,-5.831995010E-1
4.832772145E2,-5.547237396E-1,-4.588551521E0,2.514290333E0
4.837772145E2,5.374505997E0,2.582349777E0,1.410781860E0
4.842772145E2,-7.171754837E-1,-3.646993637E0,-2.280589342E-1
4.847772145E2,1.011879444E-1,-6.896162033E-1,1.946725011E0
4.852772145E2,-1.464493275E0,-3.438227177E0,2.613594770E0
4.857772145E2,2.946481943E0,1.045200348E0,1.128673911E0
4.862772145E2,-2.200976849E0,-2.294493198E0,5.665206432E0
4.867772145E2,3.511342049E0,5.604104996E-1,4.720536470E-1
4.872772145E2,-2.139162064E0,-1.355312347E0,4.941531181E0
4.877772145E2,3.937283993E0,2.212177277E0,3.278708458E-2
4.882772145E2,-2.403469324E0,-4.098157883E-1,3.974018574E0
4.887772145E2,2.689697266E0,3.656621456E0,-3.138778210E-1
4.892772145E2,-1.306146860E0,-1.368019104E0,1.965160370E0
4.897772145E2,1.511484504E0,2.722242832E0,6.962342262E-1
4.902772145E2,-6.847059727E-1,-2.113542557E-1,8.570255637E-1
4.907772145E2,2.961981297E0,2.579449177E0,-7.525978088E-1
4.912772145E2,-2.174088955E-1,-1.027611732E0,1.211916089E0
4.917772145E2,2.337146759E0,4.516630173E-1,2.360584497E0
4.922772145E2,1.040529490E0,-1.412370682E0,1.181811094E0
4.927772145E2,2.829624653E0,-1.433185577E0,2.188440800E0
4.932772145E2,1.245789289E0,-1.490468979E0,1.106399059E0
4.937772145E2,2.446239710E0,-2.142724991E0,3.085383177E0
4.942772145E2,1.239204407E0,-5.386753082E-1,1.529826164E0
4.947772145E2,3.142878532E0,-2.845631599E0,1.698480368E0
4.952772145E2,9.980292320E-1,-2.800664902E-1,8.974516392E-1
4.957772145E2,4.214620590E0,-2.012361526E0,2.807352543E0
4.962772145E2,1.975548863E0,1.652114868E0,3.441896439E-1
4.967772145E2,2.419732094E0,-1.155989647E0,1.261525154E0
4.972772145E2,2.739286423E-2,-1.572942734E0,5.144221708E-2
4.977772145E2,9.418563843E-1,-1.871537209E0,2.421312809E0
4.982772145E2,1.365791798E0,-2.640138626E0,1.408020616E0
4.987772145E2,-1.083723545E0,9.472179413E-2,1.775366306E0
4.992772145E2,5.262845516E0,-2.981195450E-1,3.952108383E0
4.997772145E2,-2.311084270E0,-1.315511703E0,2.941899776E0
5.002772145E2,5.256463528E0,1.062084198E0,6.794524193E-1
5.007772145E2,-3.779575109E0,-1.337849140E0,2.302400112E0
5.012772145E2,2.911449909E0,2.324547768E0,6.367752552E-1
5.017772145E2,-4.012976646E0,-1.465077400E0,1.497868299E0
5.022772145E2,1.780639529E0,3.637613297E0,3.984608650E-1
5.027772145E2,-1.130632639E0,-1.129927635E0,1.029191732E0
5.032772145E2,1.857869744E0,2.572495461E0,-1.071472764E0
5.037772145E2,-1.886177540E0,-1.928366661E0,-3.682407141E-1
5.042772145E2,8.094246387E-1,6.126766205E-1,1.161989450E0
5.047772145E2,2.005422115E-1,-1.214513779E0,3.793221116E-1
5.052772145E2,1.450058222E0,-3.686113358E-1,1.255907297E0
5.057772145E2,-1.208691597E0,-2.919415474E0,2.006037712E0
5.062772145E2,2.480848789E0,-8.700876236E-1,2.910114527E0
5.067772145E2,2.946524620E-1,-1.214723587E0,8.391635418E-1
5.072772145E2,2.677111387E0,-2.418288231E0,2.369132042E0
5.077772145E2,-1.520662308E-1,-1.432489395E0,5.184403658E-1
5.082772145E2,3.086266994E0,-1.996053696E0,1.646829367E0
5.087772145E2,8.553171158E-2,1.134996414E-1,1.098647118E0
5.092772145E2,1.468558311E0,-2.360114098E0,2.960035801E-1
5.097772145E2,-1.765759945E0,-1.777729034E0,-5.485806465E-1
5.102772145E2,1.339643478E0,-1.795821190E0,2.478945255E-1
5.107772145E2,-1.685580015E0,-2.624261856E0,6.875863075E-1
5.112772145E2,7.313809395E-1,-2.369379520E0,1.523505688E0
5.117772145E2,3.721251488E-1,-2.107631683E0,5.006283522E-1
5.122772145E2,-2.088939905E0,-2.693514824E-1,2.925070047E0
5.127772145E2,1.411874533E0,-4.086675644E-1,1.133951187E0
5.132772145E2,-3.657955647E0,-1.953995228E0,4.080286503E0
5.137772145E2,2.225210428E0,2.631511688E-1,1.685750723E0
5.142772145E2,-3.089357615E0,-1.411749840E0,3.415747643E0
5.147772145E2,2.045064449E0,2.242431164E0,-1.183150530E0
5.152772145E2,-2.267778873E0,6.372256279E-1,9.065430760E-1
5.157772145E2,1.333820581E0,3.305326939E0,-1.298915625E0
5.162772145E2,-1.198810101E0,7.571039200E-1,6.405453682E-1
5.167772145E2,-5.844013691E-1,2.956015110E0,-1.679942489E0
5.172772145E2,-1.327326059E0,-6.898527145E-1,-5.506581664E-1
5.177772145E2,-6.206202507E-1,2.258912086E0,-9.992648363E-1
5.182772145E2,-1.261186361E0,-1.664434433E0,-1.513795376E0
5.187772145E2,4.087107182E-1,7.790660858E-2,3.749562502E-1
5.192772145E2,-8.116841316E-1,-2.318827629E0,1.144848317E-1
5.197772145E2,1.243895650E0,-3.892183304E-1,2.219311237E0
5.202772145E2,-7.050654888E-1,-2.385347366E0,6.211696863E-1
5.207772145E2,1.142897606E0,-5.026235580E-1,2.164336681E0
5.212772145E2,-1.074775457E0,-1.857439041E0,-2.845582962E-1
5.217772145E2,2.265236378E0,-1.080591202E0,2.299715996E0
5.222772145E2,-2.795166969E0,-1.243328571E0,2.967574358E0
5.227772145E2,2.752504826E0,-1.176007271E0,2.255112171E0
5.232772145E2,-2.243098974E0,-8.953018188E-1,1.815620422E0
5.237772145E2,4.193798065E0,-2.055999756E0,3.321789742E0
5.242772145E2,-1.207497120E0,9.983077049E-1,3.285827875E0
5.247772145E2,1.851046562E0,-1.578073502E-1,1.967114687E0
5.252772145E2,-1.330286503E0,7.604675293E-1,1.829449654E0
5.257772145E2,2.738744736E0,-4.969596863E-1,1.314763784E0
5.262772145E2,-1.569555759E0,3.059568405E-1,1.763212919E0
5.267772145E2,1.616202116E0,-2.055195808E0,1.347190976E0
5.272772145E2,-1.209105492E0,2.962331772E-1,8.246744871E-1
5.277772145E2,1.790313244E0,-2.443552017E0,1.380953908E0
5.282772145E2,-1.301826239E0,-7.130689621E-1,1.837432623E0
5.287772145E2,3.479350567E0,-6.715946198E-1,6.144961119E-1
5.292772145E2,-5.885658264E-1,-6.731033325E-2,1.543609023E0
5.297772145E2,2.962975264E0,-1.557923317E0,1.286859751E0
5.302772145E2,-2.369906902E0,-1.387082100E0,1.393381119E0
5.307772145E2,3.823432446E0,-2.028072357E0,2.796355724E0
5.312772145E2,-1.775216341E0,-1.304192543E0,1.377496481E0
5.317772145E2,4.444311619E0,-1.520523071E0,2.440150261E0
5.322772145E2,-2.055504084E0,-1.405120850E0,2.276222706E0
5.327772145E2,2.496364355E0,-1.066493988E0,2.948186159E0
5.332772145E2,-2.566368341E0,-9.345269203E-1,1.491568089E0
5.337772145E2,1.860651970E0,-9.853820801E-1,2.598910570E0
5.342772145E2,-3.136554003E0,-1.433764458E0,1.811685085E0
5.347772145E2,3.235574722E0,1.984619617E0,1.748824120E-1
5.352772145E2,-3.534861565E0,-1.230026245E0,1.708875179E0
5.357772145E2,2.356958151E0,1.976826668E0,-8.588910103E-1
5.362772145E2,-3.457608700E0,-1.302334785E0,1.854114175E0
5.367772145E2,1.196178436E0,9.198131561E-1,-1.525576115E-1
5.372772145E2,-2.160071373E0,-1.362473488E0,2.087977409E0
5.377772145E2,6.031036377E-2,-5.860967636E-1,8.526583910E-1
5.382772145E2,-5.530447960E-1,-1.811490059E0,1.588767409E0
5.387772145E2,-7.515490055E-1,-9.990510941E-1,-2.065548897E-1
5.392772145E2,-2.329502106E-1,-1.239738941E0,2.113884449E0
5.397772145E2,-1.680083990E0,-1.316009521E0,-4.003837109E-1
5.402772145E2,9.994482994E-1,-2.593994141E-1,1.612593174E0
5.407772145E2,-1.745053053E0,-1.963732719E0,-1.385262251E0
5.412772145E2,1.743159294E0,-1.450191021E0,1.590523481E0
5.417772145E2,-2.375737667E0,-2.122075081E0,-2.115523338E0
5.422772145E2,1.426475525E0,-2.219964027E0,8.110977709E-2
5.427772145E2,3.556270599E-1,-9.724431038E0,-3.451090097E0
5.432772145E2,6.653473377E-1,1.668605566E0,-1.624106884E0
