"Time (s)","Linear Acceleration x (m/s^2)","Linear Acceleration y (m/s^2)","Linear Acceleration z (m/s^2)"
1.159159410E-1,4.173226357E-1,1.183631420E0,-2.514247894E-1
3.175578160E-1,-1.931424141E-1,2.059402943E0,-2.021570206E-1
8.175578160E-1,1.254419327E0,1.260428667E0,-7.247071266E-1
1.317557816E0,-2.636118889E0,1.489313483E0,-2.014752865E0
1.817557816E0,-4.130224228E0,-8.697099686E-1,3.695508003E0
2.317557816E0,-1.388863564E0,-2.946764946E0,1.646232605E0
2.817557816E0,3.410472870E-1,5.203962326E-2,1.191472888E0
3.317557816E0,1.622271061E0,1.238581657E0,-8.880802393E-1
3.817557816E0,8.366255760E-1,4.341793060E-2,-1.846448183E-1
4.317557816E0,-8.854379654E-1,-1.160505295E0,2.449238002E-1
4.817557816E0,9.542417526E-2,-6.002173424E-1,-1.698979139E-1
5.317557816E0,-3.125000000E-1,-8.348131180E-2,1.019392833E-1
5.817557816E0,-3.178715706E-1,-5.465922356E-1,-6.010004133E-2
6.317557816E0,-8.020925522E-2,-2.108030319E-1,1.804813743E-2
6.817557816E0,-1.149172783E-1,7.793569565E-2,3.995674849E-2
7.317557816E0,9.243392944E-2,-4.769945145E-2,-1.293888092E-1
7.817557816E0,2.521834373E-1,-4.733276367E-2,-4.908519983E-2
8.317557816E0,-2.125196457E-1,-4.640722275E-2,8.554108441E-2
8.817557816E0,2.080922127E-1,2.468366623E-1,2.913194895E-1
9.317557816E0,8.441972733E-2,-2.385902405E-2,-3.177130222E-2
9.817557816E0,1.490316391E-1,6.841564178E-2,-1.621263027E-1
1.031755782E1,-1.640844345E-2,-9.616184235E-2,-1.934391260E-2
1.081755782E1,2.979917526E-1,7.717990875E-2,-1.089873910E-1
1.131755782E1,-4.580593109E-2,-1.538457870E-1,-1.682719588E-2
1.181755782E1,7.334089279E-2,-3.523101807E-1,-8.032620549E-1
1.231755782E1,-2.610092163E-1,-1.158809662E-2,-5.947470665E-2
1.281755782E1,2.000436783E-1,4.687738419E-2,-8.372437954E-2
1.331755782E1,-9.124135971E-2,3.352856636E-1,-4.382687807E-1
1.381755782E1,-6.853818893E-2,6.508445740E-2,-8.277576566E-1
1.431755782E1,3.171110153E-1,-1.582117081E-1,-4.677799940E-1
1.481755782E1,1.699590683E-2,-1.851887703E-1,3.260758519E-1
1.531755782E1,-8.040738106E-1,1.575393677E-1,-8.366484642E-1
1.581755782E1,8.245725632E-1,3.288803101E-1,3.131316304E-1
1.631755782E1,6.894397736E-2,2.445473671E-1,-2.253196239E-1
1.681755782E1,3.472089767E-1,-4.960684776E-1,4.655219913E-1
1.731755782E1,2.493491173E-1,-9.879589081E-3,-3.369280100E-1
1.781755782E1,1.398825645E-1,4.176950455E-2,1.564174891E-1
1.831755782E1,-4.201173782E-2,-2.395963669E-2,-3.470040560E-1
1.881755782E1,2.301096916E-1,2.908287048E-1,4.409125447E-1
1.931755782E1,-2.826695442E-1,-1.142320633E-1,2.894815207E-1
1.981755782E1,-1.648683548E-1,-4.471874237E-2,-3.360757828E-1
2.031755782E1,1.076030731E-2,6.953239441E-3,-2.573995590E-1
2.081755782E1,-1.303811073E-1,-2.077264786E-1,-2.231752872E-2
2.131755782E1,-5.277395248E-2,5.719852448E-2,-2.621328831E-2
2.181755782E1,6.231403351E-2,-8.673667908E-2,-1.063615084E-1
2.231755782E1,1.714167595E-1,7.745838165E-2,2.855908871E-2
2.281755782E1,-2.379050255E-1,-1.353483200E-1,-9.846520424E-2
2.331755782E1,-1.449351311E-1,-3.537082672E-2,-8.260691166E-2
2.381755782E1,-1.333522797E-2,5.843257904E-2,-1.605199575E-1
2.431755782E1,2.529764175E-2,7.381820679E-2,6.971704960E-2
2.481755782E1,-6.206655502E-2,-6.289196014E-2,2.529702187E-1
2.531755782E1,2.132940292E-2,1.704216003E-2,-1.280524731E-1
2.581755782E1,6.425285339E-2,-9.996414185E-3,5.791258812E-2
2.631755782E1,-8.795213699E-2,-8.293628693E-2,-3.523945808E-2
2.681755782E1,1.513485909E-1,1.207733154E-2,3.720545769E-2
2.731755782E1,1.161108017E-1,-3.698635101E-2,5.158209801E-2
2.781755782E1,3.063535690E-2,-5.557727814E-2,-1.434643269E-1
2.831755782E1,1.804132462E-1,1.048216820E-1,-5.157017708E-2
2.881755782E1,-5.084228516E-2,-2.861309052E-2,4.844355583E-2
2.931755782E1,-2.241659164E-2,-7.898330688E-3,-2.707552910E-2
2.981755782E1,9.760904312E-2,6.899166107E-2,1.478507519E-1
3.031755782E1,3.329453468E-1,1.537065506E-1,9.982955456E-1
3.081755782E1,5.000572205E-1,-3.912978172E-1,1.879573226E0
3.131755782E1,-8.953146935E-1,-1.948881149E-1,-9.886903763E-1
3.181755782E1,2.900838852E-1,-1.567506790E-1,9.080227613E-1
3.231755782E1,-1.578440666E-1,-5.048274994E-2,1.805232167E-1
3.281755782E1,1.353645325E-2,-6.544113159E-3,3.078851700E-1
3.331755782E1,-2.531561852E-1,-1.467771530E-1,-4.644817114E-2
3.381755782E1,1.179461479E-1,9.880924225E-2,2.228544801E-1
3.431755782E1,-3.116655350E-2,-3.114032745E-2,-8.335001767E-4
3.481755782E1,5.314826965E-2,2.499866486E-2,1.466744114E-3
3.531755782E1,5.924558640E-2,4.370212555E-2,7.789129019E-2
3.581755782E1,2.278666496E-1,1.582098007E-1,4.143443704E-1
3.631755782E1,-5.079698563E-2,-7.840061188E-2,2.897971272E-1
3.681755782E1,2.892689705E-1,1.836709976E-1,-2.912151814E-2
3.731755782E1,1.165108681E-1,8.404636383E-2,-1.118588448E-2
3.781755782E1,2.502918243E-3,7.843971252E-3,1.176293492E-1
3.831755782E1,-3.294420242E-2,-6.011295319E-2,-8.351358771E-2
3.881755782E1,2.054371834E-1,1.920766830E-1,4.174464941E-2
3.931755782E1,8.177518845E-2,1.198606491E-1,-9.663800150E-2
3.981755782E1,3.579568863E-2,-3.376007080E-4,-8.653938770E-3
4.031755782E1,6.790151596E-1,2.758803368E-1,2.793526649E-1
4.081755782E1,-7.845926285E-2,5.690383911E-2,-6.122512817E-1
4.131755782E1,3.226184845E-1,9.271621704E-2,6.904123724E-2
4.181755782E1,-2.718968391E-1,-9.901762009E-2,-4.848085046E-1
4.231755782E1,9.336609840E-1,6.572961807E-1,1.414578557E-1
4.281755782E1,6.746969223E-1,2.537875175E-1,1.115579531E-1
4.331755782E1,2.331676483E-1,2.601985931E-1,-4.350455701E-1
4.381755782E1,9.195132256E-1,5.410609245E-1,2.936398983E-2
4.431755782E1,2.031111717E-1,2.150363922E-1,-1.859698296E-1
4.481755782E1,3.003644943E-1,2.551031113E-1,-2.206528783E-1
4.531755782E1,7.829952240E-2,-1.915168762E-2,-1.448174417E-1
4.581755782E1,9.897756577E-2,-3.405284882E-2,-1.101841033E-1
4.631755782E1,3.125810623E-1,3.674311638E-1,-1.696240455E-1
4.681755782E1,1.735434532E-1,9.420442581E-2,-1.613669693E-1
4.731755782E1,1.265673637E-1,-1.884460449E-2,-1.290767193E-1
4.781755782E1,2.713017464E-1,7.418246269E-1,-6.807374954E-1
4.831755782E1,-1.825521469E0,-1.814204216E0,1.234098911E0
4.881755782E1,-1.844197750E0,-1.734692574E0,-2.641113102E-1
4.931755782E1,7.273101807E-2,-3.151559830E-1,1.523509026E0
4.981755782E1,-2.941514015E0,-1.816663265E0,8.554674387E-1
5.031755782E1,3.551249504E-1,3.468065262E-1,-2.656044066E-1
5.081755782E1,-1.465272903E0,-1.038983822E0,2.857789397E-1
5.131755782E1,-4.327430725E-1,-1.137437820E-1,-4.467247128E-1
5.181755782E1,4.882946014E-1,3.879232407E-1,3.496873379E-1
5.231755782E1,-6.236376762E-1,-3.683757782E-1,3.768289089E-1
5.281755782E1,-2.359790802E-1,-1.087741852E-1,1.257637739E-1
5.331755782E1,-4.438576698E-1,-2.375173569E-1,1.336091757E-2
5.381755782E1,-5.248069763E-3,-1.498985291E-1,-4.358069897E-1
5.431755782E1,-2.136921883E-1,-1.034898758E-1,-1.988109350E-1
5.481755782E1,7.069778442E-2,1.434926987E-1,1.662852466E-1
5.531755782E1,2.470889091E-1,2.541160583E-1,6.647264957E-2
5.581755782E1,-2.943205833E-1,-4.494342804E-1,5.139515400E-1
5.631755782E1,-2.865633965E-1,-1.729564667E-1,9.671828896E-2
5.681755782E1,7.491111755E-4,-9.329795837E-3,2.161435038E-2
5.731755782E1,-1.907916069E-1,-4.675769806E-2,-1.431807131E-1
5.781755782E1,-1.016888618E-1,5.724811554E-2,-1.716138609E-2
5.831755782E1,-1.779699326E-2,1.468629837E-1,-1.429819763E-1
5.881755782E1,-1.590952873E-1,2.124118805E-2,-1.226244122E-2
5.931755782E1,4.088587761E-1,2.384500504E-1,3.233581781E-3
5.981755782E1,-5.826759338E-1,-3.386297226E-1,-1.912658811E-1
6.031755782E1,1.959934235E-1,3.333759308E-2,9.508149326E-2
6.081755782E1,-6.574344635E-2,-8.148670197E-2,-1.648807526E-1
6.131755782E1,1.425814629E-1,3.148927689E-1,-6.346401572E-2
6.181755782E1,1.561818123E-1,-1.188009262E0,4.475896358E-1
6.231755782E1,-1.039419651E0,6.619734764E-1,2.908551991E-1
6.281755782E1,2.662467957E-2,-4.816055298E-3,-2.825723886E-1
6.331755782E1,-3.994975090E-1,-1.310524940E-1,-2.025033832E-1
6.381755782E1,2.574505806E-1,-3.613348007E-1,-1.084223986E-1
6.431755782E1,-8.065176010E-2,-1.567335129E-1,3.986531496E-2
6.481755782E1,1.587090492E-1,9.144496918E-2,7.419985533E-2
6.531755782E1,-2.710771561E-2,-1.742553711E-2,-2.321411967E-1
6.581755782E1,-2.125644684E-2,5.685043335E-2,-8.098822832E-2
6.631755782E1,6.381988525E-2,-1.996049881E-1,2.062672377E-2
6.681755782E1,-1.173305511E-2,5.932331085E-2,5.337470770E-2
6.731755782E1,9.213066101E-2,7.554149628E-2,-7.285577059E-2
6.781755782E1,7.291316986E-3,5.592250824E-2,1.490563154E-2
6.831755782E1,-1.483068466E-1,-3.025150299E-2,1.221269965E-1
6.881755782E1,1.001968384E-1,1.674337387E-1,2.881234884E-2
6.931755782E1,6.522607803E-2,6.562709808E-2,-1.062616110E-1
6.981755782E1,1.872849464E-1,2.849578857E-2,-1.495367289E-2
7.031755782E1,8.083963394E-2,-5.561161041E-2,1.094444394E-1
7.081755782E1,-6.971883774E-2,1.142492294E-1,4.578012228E-2
7.131755782E1,-1.154770851E-1,2.072143555E-2,1.193153858E-2
7.181755782E1,-3.970479965E-2,-3.202915192E-2,-3.773045540E-2
7.231755782E1,-2.999591827E-2,-8.210277557E-2,-6.292539835E-2
7.281755782E1,3.719091415E-2,8.692646027E-2,3.861677647E-2
7.331755782E1,4.651403427E-2,-6.636047363E-2,-8.575499058E-3
7.381755782E1,5.475473404E-2,4.218387604E-2,6.293290854E-2
7.431755782E1,-6.204175949E-2,1.834392548E-2,-1.006255746E-1
7.481755782E1,2.239227295E-3,-1.769161224E-2,-3.477048874E-2
7.531755782E1,3.562545776E-2,1.123332977E-2,7.775723934E-3
7.581755782E1,6.087160110E-2,3.448581696E-2,6.382960081E-2
7.631755782E1,3.550529480E-2,-3.630638123E-3,-2.145040035E-2
7.681755782E1,-7.192039490E-2,-8.529758453E-2,-9.695029259E-2
7.731755782E1,5.363512039E-2,1.716136932E-2,-7.274574041E-2
7.781755782E1,1.162052155E-3,-1.197242737E-2,5.981332064E-2
7.831755782E1,-4.528760910E-2,5.038547516E-2,-3.084659576E-2
7.881755782E1,7.271242142E-2,-3.281784058E-2,3.741633892E-2
7.931755782E1,-6.307363510E-2,-4.312419891E-2,6.173247099E-2
7.981755782E1,2.708959579E-2,1.343727112E-2,5.929827690E-3
8.031755782E1,8.572101593E-3,7.792472839E-3,9.851223230E-2
8.081755782E1,2.385616302E-3,-3.170871735E-2,4.407644272E-2
8.131755782E1,4.376268387E-2,-9.412765503E-3,4.133385420E-2
8.181755782E1,1.198768616E-2,-4.466056824E-3,3.542560339E-2
8.231755782E1,-3.829479218E-2,-3.006649017E-2,1.259940863E-2
8.281755782E1,6.696367264E-2,4.822635651E-2,1.530462503E-2
8.331755782E1,-2.005815506E-2,2.781772614E-2,-6.945550442E-3
8.381755782E1,-9.083271027E-3,-3.047847748E-2,3.574699163E-2
8.431755782E1,2.392625809E-2,3.314876556E-2,1.383209229E-2
8.481755782E1,4.875850677E-2,-2.680778503E-3,1.733481884E-3
8.531755782E1,1.300334930E-3,1.121520996E-3,1.267099380E-2
8.581755782E1,1.632976532E-2,-7.220268250E-3,6.262159348E-2
8.631755782E1,-1.961660385E-2,2.183914185E-4,7.231962681E-2
8.681755782E1,-6.797504425E-2,-5.892372131E-2,3.214895725E-3
8.731755782E1,-1.657662392E-1,-1.231260300E-1,-2.235469818E-1
8.781755782E1,-4.880061150E-1,3.184795380E-2,-8.516274691E-1
8.831755782E1,-1.681327820E-3,2.249217033E-1,4.738402367E-2
8.881755782E1,-2.152037621E-1,1.906838417E-1,-6.370753050E-1
8.931755782E1,2.669095993E-2,-1.283836365E-2,-4.868217111E-1
8.981755782E1,6.829190254E-1,3.735027313E-1,1.389102340E0
9.031755782E1,-6.197252274E-1,-2.950334549E-1,-5.110108852E-2
9.081755782E1,8.512048721E-1,7.327389717E-1,9.891881347E-1
9.131755782E1,-1.185657978E0,-4.185104370E-1,-2.186083794E-2
9.181755782E1,1.261598110E0,5.359234810E-1,1.295632362E0
9.231755782E1,4.233169556E-2,-6.522560120E-2,2.547815442E-1
9.281755782E1,1.717586517E-1,3.275141716E-1,5.507928729E-1
9.331755782E1,2.063183784E-1,1.031913757E-1,4.428356886E-2
9.381755782E1,1.766824722E-2,-6.705951691E-2,1.089499593E-1
9.431755782E1,-5.912303925E-3,5.036640167E-2,-1.523918509E-1
9.481755782E1,8.090591431E-2,1.441764832E-2,2.962452173E-2
9.531755782E1,8.797168732E-3,-1.185321808E-2,-3.373622894E-3
9.581755782E1,-2.718925476E-3,1.020145416E-2,-4.720008373E-2
9.631755782E1,4.057121277E-2,2.481460571E-2,6.909865141E-2
9.681755782E1,5.302190781E-2,-1.652336121E-2,1.248357594E-1
9.731755782E1,-1.493175030E0,-2.465275764E0,9.417127371E-1
9.781755782E1,9.781551361E-2,1.401071548E-1,1.126358747E0
9.831755782E1,7.888936996E-1,-3.540134430E-2,6.096349955E-1
9.881755782E1,6.054410934E-1,7.508082390E-1,4.138107300E-1
9.931755782E1,2.421798706E-1,-3.927435875E-1,-1.788568497E-2
9.981755782E1,1.389340878E0,2.411370277E-1,-6.519424319E-1
1.003175578E2,1.249865532E0,7.994208336E-1,5.677593946E-1
1.008175578E2,-6.558861732E-1,-2.326679230E-1,-3.971901163E-2
1.013175578E2,-4.280045033E-1,-3.152856827E-1,1.142148450E-1
1.018175578E2,-1.733369827E-1,-7.438755035E-2,1.645449921E-2
1.023175578E2,-6.484746933E-2,1.826858521E-2,2.343988419E-2
1.028175578E2,5.636024475E-2,-3.874111176E-2,1.734836400E-2
1.033175578E2,2.705526352E-2,1.930809021E-2,-3.872916102E-3
1.038175578E2,-5.219936371E-3,-4.587173462E-3,5.818119273E-3
1.043175578E2,3.313207626E-2,-3.246593475E-2,3.030474111E-2
1.048175578E2,-4.274845123E-3,1.401424408E-2,4.371382669E-2
1.053175578E2,-4.115676880E-2,2.365398407E-2,2.065727860E-2
1.058175578E2,3.444147110E-2,2.196121216E-2,1.518736780E-2
1.063175578E2,-6.353378296E-3,6.906509399E-3,9.563639760E-3
1.068175578E2,3.099536896E-2,2.175617218E-2,-2.350114286E-2
1.073175578E2,-3.875350952E-2,8.063316345E-3,-2.401725948E-2
1.078175578E2,8.237600327E-2,3.939723969E-2,2.919001877E-2
1.083175578E2,6.063318253E-2,4.444789886E-2,3.436796367E-2
1.088175578E2,3.367424011E-2,-7.679939270E-3,-5.169898272E-3
1.093175578E2,-4.012250900E-2,-2.981948853E-2,5.078554153E-3
1.098175578E2,-1.209592819E-2,-9.771347046E-3,-3.933519125E-3
1.103175578E2,2.706003189E-2,-1.828098297E-2,-8.490177989E-2
1.108175578E2,-4.751443863E-2,-2.108192444E-2,-2.732661366E-2
1.113175578E2,-3.815412521E-2,3.053379059E-2,5.278179049E-2
1.118175578E2,1.520395279E-2,2.846050262E-2,3.413239121E-2
1.123175578E2,2.759265900E-2,2.061653137E-2,-1.718077064E-2
1.128175578E2,1.552581787E-3,-1.505851746E-2,4.695941508E-2
1.133175578E2,-5.258989334E-2,-4.281234741E-2,1.699694991E-2
1.138175578E2,-9.689664841E-2,-4.990291595E-2,-2.392008901E-2
1.143175578E2,8.276605606E-2,3.155994415E-2,8.449435234E-3
1.148175578E2,2.746438980E-2,4.071331024E-2,-5.402448773E-2
1.153175578E2,3.250980377E-2,5.113697052E-2,-1.967844367E-2
1.158175578E2,4.347753525E-2,-5.246543884E-2,4.324935377E-2
1.163175578E2,-3.396081924E-2,-5.172729492E-2,3.835707903E-3
1.168175578E2,2.995538712E-2,8.057594299E-3,3.010241687E-2
1.173175578E2,1.111674309E-1,3.129100800E-2,-2.305284142E-2
1.178175578E2,-1.185464859E-2,1.182203293E-1,2.124228776E-1
1.183175578E2,-3.474702835E-1,7.840824127E-2,-5.830066204E-1
1.188175578E2,4.948773384E-1,2.724218369E-1,-1.194416642E0
1.193175578E2,-8.535051346E-2,-1.069393158E-1,-1.340674013E-1
1.198175578E2,-1.182141304E-1,-3.273677826E-2,-9.156692028E-2
1.203175578E2,6.443276405E-1,-3.970050812E-2,-1.060576797E0
1.208175578E2,1.419653893E-1,2.701759338E-1,-3.255670667E-1
1.213175578E2,2.726290226E-1,6.277561188E-2,-2.879834175E-1
1.218175578E2,8.054494858E-3,1.409492493E-1,-1.396287680E-1
1.223175578E2,-5.096721649E-2,-2.203464508E-2,-3.014191389E-1
1.228175578E2,2.078075409E-1,1.091222763E-1,1.685285568E-1
1.233175578E2,-1.984493971E0,-1.459158897E0,-2.404732704E-1
1.238175578E2,-6.881332397E-2,1.567602158E-1,-8.004999161E-1
1.243175578E2,6.687974930E-1,8.197212219E-2,-4.763519764E-1
1.248175578E2,2.741584778E-1,1.908636093E-1,-6.994718313E-1
1.253175578E2,1.710395813E-1,-1.850128174E-4,-5.538284779E-1
1.258175578E2,-2.411231995E-1,-2.730188370E-1,8.653032780E-2
1.263175578E2,1.675658226E-1,6.141471863E-2,-3.392577171E-3
1.268175578E2,3.338766098E-2,1.095485687E-2,-2.057653666E-2
1.273175578E2,-5.742073059E-3,-3.697204590E-2,3.654539585E-2
1.278175578E2,4.494857788E-2,3.883647919E-2,3.835862875E-2
1.283175578E2,7.764816284E-3,8.989334106E-3,2.026617527E-2
1.288175578E2,-2.836942673E-2,-1.516819000E-2,-1.665461063E-2
1.293175578E2,2.760410309E-2,-5.700111389E-3,-1.862442493E-2
1.298175578E2,7.903575897E-3,3.620529175E-2,1.182305813E-2
1.303175578E2,9.640455246E-2,1.809473038E-1,4.971070886E-1
1.308175578E2,1.280259609E0,9.116077423E-2,1.086310983E0
1.313175578E2,2.535223961E-1,-1.545352936E-1,1.253145814E0
1.318175578E2,5.975327492E-1,2.460660934E-1,6.914416552E-1
1.323175578E2,-1.920843124E-2,1.125240326E-2,1.761884093E-1
1.328175578E2,7.041406631E-2,5.044078827E-2,-1.681705117E-1
1.333175578E2,1.579856873E-2,1.414585114E-2,1.440156102E-1
1.338175578E2,1.551327705E-1,-1.564273834E-1,7.484173775E-2
1.343175578E2,-7.379102707E-2,-2.079582214E-2,9.205979109E-2
1.348175578E2,-1.537117958E-1,6.754684448E-2,-1.985207796E-1
1.353175578E2,6.424427032E-3,4.730510712E-2,-3.350442648E-2
1.358175578E2,-1.260914803E-1,5.495357513E-2,-2.910083532E-1
1.363175578E2,-1.644587517E-1,-9.832286835E-2,-1.947274208E-1
1.368175578E2,9.613466263E-2,1.417446136E-2,1.307902932E-1
1.373175578E2,-3.354310989E-2,8.821487427E-4,-3.152441978E-2
1.378175578E2,-1.327662468E-1,-2.809047699E-2,-1.213030815E-1
1.383175578E2,1.221823692E-1,-1.199817657E-2,3.029114008E-2
1.388175578E2,-2.025365829E-2,-1.132702827E-1,7.029399276E-1
1.393175578E2,8.188576698E-1,9.346203804E-1,-1.087781549E0
1.398175578E2,6.176710129E-2,-8.880710602E-2,-9.529817104E-2
1.403175578E2,5.214381218E-1,6.305918694E-1,-3.110175133E-1
1.408175578E2,2.029566765E-1,1.223874092E-1,-1.070539951E-1
1.413175578E2,-6.377744675E-1,-7.796645164E-1,1.057800531E0
1.418175578E2,-1.551027298E-1,-2.281637192E-1,4.517803192E-1
1.423175578E2,-3.570322990E-1,-3.768868446E-1,-2.834403515E-2
1.428175578E2,-3.596258163E-2,1.252660751E-1,4.136437774E-1
1.433175578E2,1.292265415E0,1.186114311E0,-6.447924376E-1
1.438175578E2,-1.505804062E-1,-1.125598907E0,5.233070850E-1
1.443175578E2,2.895765305E-1,1.369614601E-1,-1.037958264E-2
1.448175578E2,7.370424271E-1,2.408456802E-1,-3.289670944E-1
1.453175578E2,2.499718666E-1,-3.906521797E-1,1.162734032E-1
1.458175578E2,-1.290059090E-1,-4.494285583E-2,-1.630222499E-1
1.463175578E2,9.553618431E-1,5.505523682E-1,3.187301755E-2
1.468175578E2,-1.488637924E-1,-7.255449295E-1,1.827763468E-1
1.473175578E2,-4.047346115E-1,-2.317171097E-1,-1.003476024E0
1.478175578E2,1.820569038E-1,-2.085886002E-1,-1.252704859E0
1.483175578E2,-1.457424164E-1,-1.411151886E-2,-1.016041398E0
1.488175578E2,5.973291397E-2,1.513166428E-1,-3.344051838E-1
1.493175578E2,-1.953082085E-1,-2.043523788E-1,-1.903221607E-1
1.498175578E2,1.503987312E-1,6.188869476E-2,-1.044684649E-1
1.503175578E2,-1.646142006E-1,-1.049947739E-1,-1.547709703E-1
1.508175578E2,3.495259285E-1,1.807088852E-1,-8.926451206E-2
1.513175578E2,-2.347593307E-1,-1.000013351E-1,5.600059032E-2
1.518175578E2,8.428478241E-2,-7.974624634E-3,1.291205883E-1
1.523175578E2,-3.873300552E-2,-1.346397400E-2,-2.734637260E-2
1.528175578E2,4.049253464E-2,5.556106567E-2,6.337285042E-2
1.533175578E2,-1.098141670E-1,-6.758689880E-2,-2.025055885E-2
1.538175578E2,8.297967911E-2,2.325534821E-2,-2.699494362E-3
1.543175578E2,1.053285599E-2,-1.809978485E-2,1.403141022E-2
1.548175578E2,6.324815750E-2,6.076335907E-2,8.732974529E-2
1.553175578E2,-4.577159882E-3,-3.187084198E-2,-1.570129395E-2
1.558175578E2,-4.277229309E-4,4.652976990E-2,8.271574974E-3
1.563175578E2,-3.406190872E-2,-3.000068665E-2,-6.372284889E-2
1.568175578E2,-2.786111832E-2,-2.640628815E-2,4.120028019E-2
1.573175578E2,3.814935684E-2,1.656818390E-2,6.627202034E-3
1.578175578E2,-5.913066864E-2,-1.899623871E-2,-6.234800816E-2
1.583175578E2,-3.743505478E-2,1.667308807E-2,-4.172110558E-2
1.588175578E2,1.346111298E-3,4.523563385E-2,-3.127241135E-2
1.593175578E2,-4.893636703E-2,-1.866245270E-2,8.996486664E-3
1.598175578E2,1.672315598E-2,-5.890846252E-3,1.109749079E-1
1.603175578E2,4.615211487E-2,1.341533661E-2,1.461184025E-2
1.608175578E2,1.396617889E-1,1.762876511E-1,7.766866684E-2
1.613175578E2,-2.574920654E-5,-8.747768402E-2,2.499645948E-1
1.618175578E2,8.783292770E-2,1.257019043E-1,6.931715012E-1
1.623175578E2,8.475775719E-1,3.453636169E-2,1.052289963E0
1.628175578E2,4.566898346E-1,1.933460236E-1,2.940388918E-1
1.633175578E2,2.817988396E-1,5.815696716E-2,3.822664022E-1
1.638175578E2,-1.944017410E-2,-5.681133270E-2,1.605948210E-1
1.643175578E2,-1.279783249E-2,-2.314567566E-3,-2.085196972E-2
1.648175578E2,1.396851540E-1,4.165649414E-2,1.588352919E-1
1.653175578E2,-4.367613792E-1,-3.728132248E-1,1.053255796E-1
1.658175578E2,3.847985268E-1,2.062444687E-1,-3.133428097E-2
1.663175578E2,-1.575487614E0,-1.322090149E0,2.098014355E-1
1.668175578E2,-1.123609543E-1,-5.057239532E-2,-2.543730736E-1
1.673175578E2,-7.662167549E-1,-6.929159164E-1,4.608565569E-1
1.678175578E2,-1.455404758E0,-1.085056305E0,3.161879778E-1
1.683175578E2,-5.030446053E-1,-7.190523148E-1,-4.754984081E-1
1.688175578E2,-7.697191238E-1,-2.854175568E-1,-6.150472164E-1
1.693175578E2,-5.479512215E-1,-3.289480209E-1,-4.669762254E-1
1.698175578E2,-1.045084000E-1,-1.595067978E-1,-5.194032192E-2
1.703175578E2,-3.362841606E-1,-1.620912552E-1,-6.681120396E-2
1.708175578E2,1.405625343E-1,3.513593674E-1,-1.371526718E-2
1.713175578E2,-1.037612438E0,-8.133134842E-1,9.252351522E-1
1.718175578E2,7.620000839E-2,6.367464066E-1,-1.610669494E-1
1.723175578E2,5.109262466E-1,5.379371643E-1,-9.851388931E-1
1.728175578E2,-4.393577576E-3,9.466648102E-2,-1.243445277E-1
1.733175578E2,1.923220634E0,8.759002686E-1,3.843828440E-1
1.738175578E2,1.718707085E-1,9.507179260E-3,2.018257082E-1
1.743175578E2,2.924952507E-1,4.089102745E-1,-1.045356989E-1
1.748175578E2,-6.016302109E-2,1.502676010E-1,-6.887687445E-1
1.753175578E2,-1.944303513E-1,-5.947875977E-2,-7.631775141E-1
1.758175578E2,-1.560416222E-1,-2.336530685E-1,-1.155824661E-1
1.763175578E2,-2.618312836E-3,-9.095764160E-2,-5.662095547E-2
1.768175578E2,-9.975671768E-2,-1.389865875E-1,-1.806793213E-1
1.773175578E2,1.140208244E-1,1.041889191E-2,5.023491383E-2
1.778175578E2,-3.954648972E-2,-1.932888031E-1,-1.475030184E-1
1.783175578E2,-4.727411270E-2,7.372856140E-3,-1.850157976E-2
1.788175578E2,-1.121840477E-1,-1.493997574E-1,-3.573397398E-1
1.793175578E2,1.206302643E-1,8.868694305E-2,-2.664226294E-1
1.798175578E2,-2.154631615E-1,-2.215566635E-1,-2.759802341E-1
1.803175578E2,3.129005432E-1,3.018012047E-1,-2.052887678E-1
1.808175578E2,4.434251785E-2,-1.079282761E-1,-3.173580170E-1
1.813175578E2,-2.704858780E-1,-3.961658478E-2,-2.017612457E-1
1.818175578E2,-5.890512466E-2,-6.570816040E-3,-1.326029301E-1
1.823175578E2,1.377172470E-1,2.373738289E-1,-1.034653187E-1
1.828175578E2,-2.156991959E-1,-1.927647591E-1,-2.150260210E-1
1.833175578E2,5.680036545E-2,-6.080627441E-3,-1.335561275E-1
1.838175578E2,-1.018271446E-1,-7.427883148E-2,4.799926281E-2
1.843175578E2,-8.815622330E-2,-6.351757050E-2,-4.534661770E-2
1.848175578E2,1.516785622E-1,1.531314850E-1,1.370384693E-1
1.853175578E2,3.154768944E-1,3.303060532E-1,9.150853157E-1
1.858175578E2,6.334667206E-1,7.578849792E-2,-9.104108810E-2
1.863175578E2,1.752290726E-1,3.149890900E-2,8.323357701E-1
1.868175578E2,6.094565392E-1,-1.255054474E-1,1.785042644E0
1.873175578E2,2.235193253E-1,2.181911469E-2,1.463910341E-1
1.878175578E2,2.569975853E-1,-6.100845337E-2,8.303773999E-1
1.883175578E2,1.593661308E-1,1.301078796E-1,6.546354294E-2
1.888175578E2,3.003077507E-1,4.272842407E-2,9.843403101E-2
1.893175578E2,1.463842392E-2,-5.983257294E-2,2.361657023E-1
1.898175578E2,2.426686287E-1,1.388902664E-1,-1.409880519E-1
1.903175578E2,-2.069568634E-1,-3.034496307E-2,7.339465618E-2
1.908175578E2,9.914541245E-2,1.159944534E-1,5.898469687E-2
1.913175578E2,-1.024537086E-1,-1.680250168E-1,-1.089387536E-1
1.918175578E2,-8.940696716E-2,-6.719779968E-2,-7.409507036E-2
1.923175578E2,8.950328827E-2,2.031707764E-2,-9.550750256E-3
1.928175578E2,5.906200409E-2,2.755451202E-2,8.985006809E-2
1.933175578E2,-1.722049713E-2,-3.630542755E-2,1.011848450E-2
1.938175578E2,6.221485138E-2,4.677486420E-2,2.494519949E-2
1.943175578E2,-1.305842400E-1,-6.958293915E-2,1.013892889E-2
1.948175578E2,8.466482162E-2,9.513950348E-2,1.188256145E-1
1.953175578E2,-2.053165436E-2,-1.874351501E-2,-9.545820951E-2
1.958175578E2,3.020524979E-2,3.317832947E-3,-1.330929995E-2
1.963175578E2,-1.461448669E-1,-4.207706451E-2,-2.156857848E-1
1.968175578E2,8.825159073E-2,-4.147434235E-2,-1.687090397E-1
1.973175578E2,-1.328001022E-1,-5.845355988E-2,-4.749405384E-2
1.978175578E2,6.623268127E-4,-3.913879395E-3,-1.432440281E-1
1.983175578E2,6.669425964E-2,9.095191956E-2,-6.877803802E-2
1.988175578E2,-2.112865448E-3,2.410507202E-2,6.249189377E-3
1.993175578E2,-1.168489456E-2,3.006935120E-3,-6.044352055E-2
1.998175578E2,-1.559877396E-2,-2.757072449E-2,-1.323175430E-2
2.003175578E2,6.261873245E-2,1.278686523E-2,2.296544313E-1
2.008175578E2,1.424746513E-1,5.486297607E-2,4.354344606E-1
2.013175578E2,5.564260483E-2,1.850509644E-2,4.357994199E-1
2.018175578E2,-7.311964035E-2,-6.789875031E-2,1.663030982E-1
2.023175578E2,-5.976247787E-2,3.502845764E-3,-9.983527660E-2
2.028175578E2,-5.591058731E-2,-4.399490356E-2,7.672101259E-2
2.033175578E2,-3.024435043E-2,-2.633380890E-2,1.838177443E-2
2.038175578E2,2.969646454E-2,7.864952087E-3,-2.942752838E-2
2.043175578E2,1.697349548E-2,-3.652572632E-4,9.886920452E-3
2.048175578E2,2.647066116E-2,3.779506683E-2,1.247912645E-2
2.053175578E2,-2.911949158E-2,7.422447205E-3,4.347145557E-3
2.058175578E2,2.896022797E-2,3.292083740E-3,-2.417266369E-3
2.063175578E2,-4.954338074E-4,1.592159271E-2,1.490437984E-2
2.068175578E2,2.032518387E-2,4.463195801E-3,-4.676645994E-2
2.073175578E2,-1.866054535E-2,-2.556610107E-2,-1.597219706E-2
2.078175578E2,-1.957893372E-3,-3.731727600E-3,4.904812574E-2
2.083175578E2,1.776838303E-2,-4.267692566E-3,2.355527878E-2
2.088175578E2,-1.261711121E-3,2.094554901E-2,-6.118714809E-3
2.093175578E2,-2.356386185E-2,3.614425659E-4,-4.042428732E-2
2.098175578E2,4.490375519E-3,-3.207206726E-3,1.200187206E-2
2.103175578E2,-1.910591125E-2,-1.659488678E-2,1.098173857E-2
2.108175578E2,-4.311084747E-3,1.032829285E-3,-1.782578230E-2
2.113175578E2,6.625175476E-3,1.971530914E-2,2.810665965E-2
2.118175578E2,-2.492856979E-2,-5.726814270E-3,3.077220917E-2
2.123175578E2,6.312847137E-3,1.358699799E-2,-6.716954708E-2
2.128175578E2,-1.622200012E-2,-3.487586975E-3,-1.505637169E-2
2.133175578E2,1.587390900E-3,-3.743171692E-3,1.880341768E-2
2.138175578E2,-3.728818893E-2,-2.019596100E-2,1.861810684E-2
2.143175578E2,4.170227051E-2,2.704620361E-2,-3.345522285E-2
2.148175578E2,-1.499986649E-2,1.023292542E-3,1.821485162E-2
2.153175578E2,-3.437280655E-2,-2.121829987E-2,5.031010509E-2
2.158175578E2,1.268720627E-2,1.352024078E-2,2.241733670E-2
2.163175578E2,4.912805557E-2,7.184028625E-3,8.547127247E-2
2.168175578E2,-1.296381950E-1,-1.176614761E-1,-4.729530215E-2
2.173175578E2,2.404284477E-1,7.961368561E-2,1.065995097E-1
2.178175578E2,1.209959984E-1,5.457401276E-2,7.327526808E-2
2.183175578E2,-1.914973259E-1,-2.479028702E-1,9.539017677E-1
2.188175578E2,1.151248932E0,2.468776703E-1,7.097043991E-1
2.193175578E2,-1.381263733E-1,-1.529970169E-1,1.709700823E-1
2.198175578E2,1.089534760E-1,2.957057953E-2,4.625306129E-1
2.203175578E2,-1.219658852E-1,-3.477382660E-2,1.636044383E-1
2.208175578E2,-2.205233574E-1,-1.683053970E-1,2.440609038E-3
2.213175578E2,1.165881157E-1,2.103710175E-2,1.398850232E-1
2.218175578E2,-4.629707336E-2,1.383686066E-2,-1.281270981E-1
2.223175578E2,-2.598958015E-1,-1.984634399E-1,-2.009598911E-2
2.228175578E2,2.197642326E-1,1.298561096E-1,1.708660424E-1
2.233175578E2,-1.087040901E-1,-2.019662857E-1,-3.330451250E-1
2.238175578E2,-5.842685699E-3,1.711988449E-1,-9.008322954E-1
2.243175578E2,1.002416611E-1,-3.329849243E-2,-1.445811391E-1
2.248175578E2,-5.963754654E-2,7.790660858E-2,-9.174609184E-2
2.253175578E2,-9.793758392E-3,-2.311897278E-2,6.390753388E-2
2.258175578E2,2.456679344E-1,1.805553436E-1,2.094265819E-1
2.263175578E2,-2.008023262E-1,-5.377769470E-2,1.349693686E-1
2.268175578E2,8.575487137E-2,9.119987488E-3,1.340167820E-1
2.273175578E2,-7.496738434E-2,1.050081253E-1,4.506933689E-2
2.278175578E2,-1.437964439E-1,-5.638790131E-2,-2.384659648E-2
2.283175578E2,1.492929459E-1,8.374595642E-2,1.774382591E-2
2.288175578E2,-4.862165451E-2,-9.493160248E-2,-1.017865539E-1
2.293175578E2,-7.283687592E-3,1.988229752E-1,-1.154049337E-1
2.298175578E2,-1.149125099E-1,-6.829452515E-2,3.557279706E-2
2.303175578E2,-4.613161087E-2,4.846286774E-2,-2.402059138E-1
2.308175578E2,-4.370689392E-2,1.459312439E-2,6.048920751E-2
2.313175578E2,-4.323053360E-2,-3.260545731E-1,-8.674722910E-2
2.318175578E2,1.512122154E-1,1.348514557E-1,-1.259115040E-1
2.323175578E2,3.471851349E-2,-1.975698471E-1,4.429736733E-2
2.328175578E2,8.841562271E-2,4.850387573E-2,-1.934963763E-1
2.333175578E2,1.425232887E-1,1.216201782E-1,-3.335104585E-1
2.338175578E2,1.247487068E-1,1.211366653E-1,4.585385323E-3
2.343175578E2,-1.027379036E-1,7.398605347E-3,-1.012521982E-2
2.348175578E2,-1.836390495E-1,1.629858017E-1,4.957777262E-2
2.353175578E2,2.796792984E-2,6.272411346E-2,5.611443520E-2
2.358175578E2,-9.325981140E-2,-2.657032013E-2,-1.254099607E-2
2.363175578E2,-9.137439728E-2,-7.486438751E-2,9.775990248E-2
2.368175578E2,-1.489958763E-1,-2.453804016E-3,7.136106491E-2
2.373175578E2,-2.292537689E-2,-2.158164978E-3,-7.379478216E-2
2.378175578E2,4.607915878E-2,1.182336807E-1,8.959174156E-4
2.383175578E2,5.163908005E-2,-5.865192413E-2,2.407121658E-2
2.388175578E2,-5.679130554E-4,-3.824329376E-2,4.870891571E-2
2.393175578E2,-2.394151688E-2,4.697322845E-2,-6.028747559E-2
2.398175578E2,1.834330559E-1,1.936750412E-1,-7.602477074E-2
2.403175578E2,-2.753415108E-1,-1.009817123E-1,8.691591024E-2
2.408175578E2,2.824368477E-1,1.161136627E-1,5.422967672E-2
2.413175578E2,-1.965060234E-1,-2.087335587E-1,4.263222218E-3
2.418175578E2,3.215289116E-1,1.222419739E-1,6.287664175E-2
2.423175578E2,4.734849930E-2,1.423168182E-2,1.568019390E-3
2.428175578E2,8.888721466E-2,-1.619148254E-2,3.528846502E-1
2.433175578E2,1.342539787E-1,-3.900623322E-2,-1.638350487E-1
2.438175578E2,1.559591293E-2,2.999305725E-3,6.282430887E-2
2.443175578E2,1.281298637E0,2.219257355E-1,3.736174107E-1
2.448175578E2,1.067204475E-1,-8.364582062E-2,-4.960137606E-2
2.453175578E2,-4.546489716E-1,-1.425423622E-1,-1.313927472E-1
2.458175578E2,6.893301010E-2,9.573268890E-2,-3.103526235E-1
2.463175578E2,7.543396950E-1,1.925606728E-1,-6.031316519E-1
2.468175578E2,-3.559494019E-2,-5.258121490E-1,-6.274287105E-1
2.473175578E2,-6.350088120E-2,-9.107112885E-2,-7.714945078E-2
2.478175578E2,-1.257801533E0,-4.691352844E-1,-2.003505379E-1
2.483175578E2,9.562511444E-1,3.874197006E-1,-2.602633834E-1
2.488175578E2,-7.596015930E-1,-3.366012573E-1,-4.870767295E-1
2.493175578E2,2.182774544E-1,-7.371807098E-2,-3.076038361E-1
2.498175578E2,1.332492828E-1,-5.047035217E-2,-2.218388319E-1
2.503175578E2,-6.644501686E-1,-5.509424210E-1,-4.577044249E-1
2.508175578E2,6.793642044E-2,-8.664703369E-2,-2.307277918E-1
2.513175578E2,-2.110795975E-1,3.531265259E-2,-6.169736385E-2
2.518175578E2,-2.164158821E-1,-8.637619019E-2,-4.140269756E-2
2.523175578E2,1.086649895E-1,4.660701752E-2,4.100930691E-2
2.528175578E2,-1.983437538E-1,-7.160091400E-2,4.457914829E-2
2.533175578E2,2.345585823E-1,-1.096258163E-1,-1.731811762E-1
2.538175578E2,-8.044385910E-2,-1.440496445E-1,-2.628791332E-2
2.543175578E2,1.229286194E-2,3.253459930E-2,-6.420075893E-2
2.548175578E2,-9.989690781E-2,5.092144012E-2,1.967519522E-2
2.553175578E2,1.197500229E-1,6.856536865E-2,-4.257678986E-2
2.558175578E2,-4.194164276E-2,-1.104269028E-1,-5.661308765E-3
2.563175578E2,-4.616069794E-2,-2.121639252E-2,4.097819328E-4
2.568175578E2,2.060079575E-2,-1.952266693E-2,5.009919405E-2
2.573175578E2,-7.151126862E-2,-6.012725830E-2,-1.534050703E-2
2.578175578E2,3.347587585E-2,4.361820221E-2,-4.347199202E-2
2.583175578E2,5.084228516E-2,5.405902863E-2,5.504190922E-3
2.588175578E2,-8.203029633E-3,3.396606445E-2,-8.310925961E-2
2.593175578E2,1.452937126E-1,8.516979218E-2,4.690468311E-2
2.598175578E2,-4.403591156E-2,-3.270816803E-2,-4.376798868E-2
2.603175578E2,-7.167530060E-2,-3.835964203E-2,-1.088494062E-2
2.608175578E2,1.471672058E-1,7.915306091E-2,7.175922394E-3
2.613175578E2,-2.265453339E-3,-3.719711304E-2,-2.824515104E-2
2.618175578E2,5.941247940E-2,-4.727268219E-2,-8.661842346E-2
2.623175578E2,-1.329483986E-1,-2.470684052E-2,4.533034563E-2
2.628175578E2,3.312873840E-2,1.279354095E-2,5.019307137E-4
2.633175578E2,-6.731319427E-2,-4.116725922E-2,6.324410439E-3
2.638175578E2,4.647874832E-2,3.944492340E-2,2.875924110E-3
2.643175578E2,-2.493333817E-2,-6.820678711E-3,-2.880328894E-2
2.648175578E2,3.655052185E-2,1.004695892E-2,2.416962385E-2
2.653175578E2,-1.598167419E-2,-4.633045197E-2,-4.771673679E-2
2.658175578E2,2.024888992E-2,1.072311401E-2,-8.862912655E-3
2.663175578E2,-2.807092667E-2,-2.365779877E-2,-4.896497726E-2
2.668175578E2,3.679466248E-2,2.927398682E-2,-6.988000870E-2
2.673175578E2,-6.286668777E-2,-3.040409088E-2,-5.670088530E-2
2.678175578E2,6.172227859E-2,5.066585541E-2,-1.421461105E-1
2.683175578E2,-1.036744118E-1,-4.449844360E-2,-1.214128733E-1
2.688175578E2,-4.639673233E-2,-5.078411102E-2,-1.550216675E-1
2.693175578E2,4.047107697E-2,2.075958252E-2,-1.988410950E-2
2.698175578E2,-1.127943993E-1,-3.366279602E-2,-7.847201824E-2
2.703175578E2,1.947374344E-1,1.463317871E-1,-1.258254051E-1
2.708175578E2,1.895518303E-1,1.287279129E-1,-2.844098806E-1
2.713175578E2,-5.775976181E-2,-3.780651093E-2,1.246955395E-1
2.718175578E2,2.524533272E-1,8.585453033E-2,2.815769911E-1
2.723175578E2,-9.963369370E-2,-2.681541443E-2,6.686398983E-1
2.728175578E2,1.933741570E-1,4.253101349E-2,1.652156711E-1
2.733175578E2,3.288602829E-2,-4.492855072E-2,-5.428433418E-3
2.738175578E2,-6.232738495E-3,6.564140320E-3,1.385491788E-1
2.743175578E2,-9.985446930E-3,-1.596355438E-2,-5.999666452E-2
2.748175578E2,3.126859665E-2,1.095771790E-3,-2.610737085E-2
2.753175578E2,7.891654968E-3,-3.444004059E-2,-1.283705235E-2
2.758175578E2,-1.471090317E-2,-1.251125336E-2,-1.113498211E-2
2.763175578E2,-1.753616333E-2,2.596759796E-2,1.801848412E-4
2.768175578E2,1.027379036E-1,3.234958649E-2,2.941769361E-2
2.773175578E2,2.457666397E-2,7.349014282E-3,-4.975140095E-3
2.778175578E2,-2.648830414E-3,-1.118564606E-2,-1.567775011E-2
2.783175578E2,-3.021717072E-3,5.761146545E-3,-2.337259054E-2
2.788175578E2,-1.627492905E-2,-1.389884949E-2,-3.482121229E-2
2.793175578E2,-2.111911774E-3,3.057479858E-3,-5.492985249E-3
2.798175578E2,1.999044418E-2,1.758384705E-2,-1.482868195E-2
2.803175578E2,-9.561061859E-3,5.927085876E-3,-2.838277817E-2
2.808175578E2,-6.185531616E-3,4.397392273E-3,-3.232032061E-2
2.813175578E2,3.000736237E-3,-2.084255219E-2,1.269757748E-2
2.818175578E2,-1.473712921E-2,-1.021957397E-2,-7.566994429E-2
2.823175578E2,1.475286484E-2,-7.504463196E-3,-9.357988834E-3
2.828175578E2,-1.098155975E-3,-4.037857056E-3,1.684010029E-3
2.833175578E2,2.336835861E-2,-8.063316345E-3,2.001774311E-2
2.838175578E2,8.013772964E-2,1.534719467E-1,-1.843362451E-1
2.843175578E2,7.437324524E-2,3.244619370E-1,-7.740932703E-1
2.848175578E2,1.134757996E-1,-1.578626633E-1,1.522929668E-1
2.853175578E2,1.905679703E-2,3.310298920E-1,-3.049752712E-1
2.858175578E2,6.783285141E-1,6.310100555E-1,-1.066025019E0
2.863175578E2,1.392030716E-1,4.811449051E-1,-5.697050095E-1
2.868175578E2,5.592322350E-1,-1.742591858E-1,-3.971378803E-1
2.873175578E2,5.505104065E-1,-1.701574326E-1,1.303992987E0
2.878175578E2,2.587261200E-1,4.428958893E-1,-5.803990960E-1
2.883175578E2,1.105203629E-1,5.713558197E-2,-1.014641523E-1
2.888175578E2,-1.511216164E-1,3.185749054E-2,-1.312292814E-1
2.893175578E2,2.336945534E-1,1.405839920E-1,1.330696344E-1
2.898175578E2,-2.773442268E-1,-9.942626953E-2,4.263389111E-2
2.903175578E2,3.756308556E-1,3.288736343E-1,-1.667492390E-1
2.908175578E2,4.066467285E-2,-2.176256180E-1,-9.161591530E-2
2.913175578E2,1.053595543E-1,-5.854415894E-2,2.133527994E-1
2.918175578E2,-5.898251534E-1,-2.928438187E-1,-1.516134739E-1
2.923175578E2,5.501594543E-1,2.817859650E-1,1.710394621E-1
2.928175578E2,-3.763732910E-1,1.194448471E-1,-7.309815884E-1
2.933175578E2,-3.278441429E-1,-1.189851761E-1,2.180552483E-1
2.938175578E2,-3.236484528E-2,-9.267807007E-3,-3.630946875E-1
2.943175578E2,-1.045074463E-1,-3.564071655E-2,6.806600094E-2
2.948175578E2,3.399930000E-1,1.318550110E-1,1.700438261E-1
2.953175578E2,-4.310674667E-1,-1.245603561E-1,1.111137867E-1
2.958175578E2,1.287999153E-1,-4.318046570E-2,-1.110935211E-2
2.963175578E2,-4.355382919E-2,4.781818390E-2,-3.279539347E-1
2.968175578E2,4.430732727E-1,3.331236839E-1,-1.286255717E-1
2.973175578E2,-3.782186508E-1,-4.151878357E-1,-3.154871464E-1
2.978175578E2,1.408114433E-1,2.568435669E-2,-1.259634495E-1
2.983175578E2,-1.332721710E-1,-8.385181427E-2,-5.236232281E-2
2.988175578E2,-5.971765518E-2,8.219718933E-3,-6.249535084E-2
2.993175578E2,4.718732834E-2,-9.812355042E-3,9.731054306E-4
2.998175578E2,-2.337932587E-3,-8.694648743E-3,-4.492723942E-2
3.003175578E2,-4.463195801E-3,7.254600525E-3,-2.055263519E-2
3.008175578E2,3.133296967E-3,-6.648063660E-3,2.104997635E-3
3.013175578E2,-1.971387863E-2,-1.468658447E-4,-2.923762798E-2
3.018175578E2,-6.588649750E-2,-3.606510162E-2,-3.525769711E-2
3.023175578E2,3.944587708E-2,8.180618286E-3,6.059050560E-2
3.028175578E2,-5.316209793E-2,5.215644836E-3,-9.608638287E-2
3.033175578E2,4.874944687E-2,-3.093814850E-2,8.446657658E-2
3.038175578E2,6.572723389E-2,-1.958303452E-1,8.541134596E-1
3.043175578E2,-2.549791336E-2,-2.621593475E-1,4.237127006E-1
3.048175578E2,2.758994102E-1,9.375190735E-2,-6.933689117E-3
3.053175578E2,4.933834076E-3,-3.068828583E-2,8.683562279E-3
3.058175578E2,1.141285896E-1,4.833602905E-2,5.459302664E-2
3.063175578E2,2.002716064E-3,-4.351615906E-2,1.024639606E-2
3.068175578E2,4.626798630E-2,1.032724380E-1,-7.449179888E-2
3.073175578E2,-1.905999184E-1,-1.407747269E-1,-3.382830024E-1
3.078175578E2,7.078075409E-1,2.523860931E-1,-1.297358274E-1
3.083175578E2,8.769845963E-2,2.869691849E-1,-5.613001585E-1
3.088175578E2,-5.921444893E-1,-1.526794434E-1,-6.378331184E-1
3.093175578E2,3.196921349E-1,2.308425903E-1,1.671845317E-1
3.098175578E2,-4.694023132E-1,-1.927795410E-1,-5.608487725E-1
3.103175578E2,3.446326256E-1,-7.081031799E-2,8.469122648E-2
3.108175578E2,-6.180305481E-1,-1.668424606E-1,-2.758144736E-1
3.113175578E2,5.311584473E-1,2.161102295E-1,-2.229670882E-1
3.118175578E2,-1.819529533E-1,-7.993984222E-2,-2.439159155E-2
3.123175578E2,1.269607544E-1,9.573268890E-2,-4.316151142E-3
3.128175578E2,-3.163766861E-2,-6.956481934E-2,-5.565387011E-2
3.133175578E2,-6.765890121E-2,-8.363342285E-2,2.351793051E-1
3.138175578E2,-1.843204498E-1,-1.197738647E-1,-5.028837919E-2
3.143175578E2,4.388995171E-1,3.628826141E-1,-5.848017335E-1
3.148175578E2,3.160915375E-1,3.038067818E-1,-1.688624620E-1
3.153175578E2,2.529268265E-1,1.903276443E-1,-8.871519566E-2
3.158175578E2,-4.078607559E-1,-9.753322601E-2,-1.331880093E-1
3.163175578E2,1.890134811E-2,-2.540874481E-2,-1.429086924E-1
3.168175578E2,5.687713623E-3,1.285800934E-1,8.264791965E-2
3.173175578E2,-6.247234344E-2,4.658794403E-2,3.443193436E-2
3.178175578E2,-4.077434540E-3,-2.166652679E-2,2.198003531E-1
3.183175578E2,1.302552223E-1,1.281709671E-1,3.191354871E-1
3.188175578E2,-4.388809204E-3,-1.598501205E-1,4.092594385E-1
3.193175578E2,8.498411179E-1,3.237447739E-1,-1.115680337E-1
3.198175578E2,-1.243448257E-1,4.158592224E-2,-2.653929591E-1
3.203175578E2,2.258038521E-1,2.069244385E-1,3.532421589E-2
3.208175578E2,5.782842636E-2,9.566593170E-2,-4.719176888E-1
3.213175578E2,3.831005096E-2,2.646827698E-2,2.892724276E-1
3.218175578E2,-6.042318344E-1,-3.119363785E-1,1.350265294E-1
3.223175578E2,7.384610176E-1,3.662157059E-1,-5.634635687E-2
3.228175578E2,-2.392506599E-1,-8.195209503E-2,-1.528265476E-1
3.233175578E2,1.353111267E-1,6.430625916E-3,6.489548087E-2
3.238175578E2,2.921471596E-1,8.462047577E-2,-1.384007931E-1
3.243175578E2,-2.080359459E-1,-1.238794327E-1,1.531249285E-2
3.248175578E2,8.444023132E-2,3.135299683E-2,1.493465900E-2
3.253175578E2,4.024791718E-2,-8.287429810E-4,-2.493625879E-2
3.258175578E2,-1.123380661E-2,-1.091575623E-2,-1.645737886E-2
3.263175578E2,2.408552170E-2,2.678585052E-2,-2.949792147E-2
3.268175578E2,4.451942444E-2,-8.218765259E-3,-3.481805325E-2
3.273175578E2,-2.573013306E-3,-4.067897797E-2,5.967777967E-2
3.278175578E2,-2.275323868E-2,-3.269290924E-2,-4.186004400E-2
3.283175578E2,1.167869568E-2,-1.505851746E-1,4.425352812E-2
3.288175578E2,-6.981468201E-2,4.250431061E-2,-7.418459654E-2
3.293175578E2,8.253765106E-2,5.832195282E-2,-2.010923624E-2
3.298175578E2,-1.304006577E-2,-3.025150299E-2,-6.905424595E-2
3.303175578E2,-1.679563522E-2,-2.426624298E-2,1.674535871E-1
3.308175578E2,-1.636810303E-1,-2.015781403E-2,-4.643678665E-3
3.313175578E2,2.694988251E-1,1.325330734E-1,-5.853056908E-3
3.318175578E2,-9.064626694E-2,-2.672672272E-2,8.687597513E-2
3.323175578E2,4.373979568E-2,-2.669620514E-2,-1.589435339E-2
3.328175578E2,-1.542592049E-1,1.960754395E-2,-2.495467663E-2
3.333175578E2,1.829571724E-1,1.179790497E-1,-2.653753757E-2
3.338175578E2,-7.653808594E-2,-1.215362549E-2,-1.618515253E-1
3.343175578E2,9.408855438E-2,6.159400940E-2,5.099117756E-2
3.348175578E2,-2.160048485E-1,-1.330165863E-1,-1.941788197E-1
3.353175578E2,7.590532303E-2,-1.871204376E-2,1.685763597E-1
3.358175578E2,1.909351349E-2,-3.901481628E-2,1.312673688E-1
3.363175578E2,-3.254060745E-1,-1.405105591E-1,-3.668584824E-1
3.368175578E2,4.790039062E-1,6.480102539E-1,-5.378985405E-2
3.373175578E2,-7.262969017E-1,-3.264770508E-1,4.137665033E-2
3.378175578E2,4.869294167E-1,1.934804916E-1,2.690660954E-1
3.383175578E2,3.395080566E-3,-2.556514740E-2,-1.345211267E-2
3.388175578E2,-1.861047745E-2,6.647396088E-2,-6.785577536E-2
3.393175578E2,-1.215867996E-1,-6.233501434E-2,-2.166330814E-2
3.398175578E2,2.004814148E-2,6.618499756E-4,5.349898338E-2
3.403175578E2,6.034946442E-2,2.609252930E-3,3.785926104E-2
3.408175578E2,1.014761925E-1,4.600524902E-2,-1.081511378E-1
3.413175578E2,-4.104089737E-2,-1.879310608E-2,-1.956790686E-2
3.418175578E2,2.348661423E-2,-7.950687408E-2,8.307874203E-2
3.423175578E2,1.644935608E-1,3.265285492E-2,-1.010603905E-1
3.428175578E2,-6.998062134E-2,2.998065948E-2,-1.252318621E-1
3.433175578E2,7.554197311E-2,1.742267609E-2,1.836001873E-2
3.438175578E2,7.120037079E-2,-3.468513489E-3,4.518163204E-2
3.443175578E2,-1.310701370E-1,-5.337524414E-2,-3.883540630E-2
3.448175578E2,-9.004116058E-3,4.021644592E-3,8.901703358E-2
3.453175578E2,5.719232559E-2,2.812004089E-2,4.201364517E-2
3.458175578E2,2.509689331E-2,8.450651169E-2,-1.410290003E-1
3.463175578E2,-3.122520447E-2,-1.448154449E-2,1.776111126E-2
3.468175578E2,3.190183640E-2,2.754020691E-2,-6.789922714E-3
3.473175578E2,-5.442571640E-2,-2.341651917E-2,-3.471052647E-2
3.478175578E2,-5.899477005E-2,-1.159191132E-2,2.173030376E-2
3.483175578E2,-2.442121506E-2,1.037883759E-2,-9.486246109E-2
3.488175578E2,-1.457357407E-2,-2.024745941E-2,-1.400852203E-2
3.493175578E2,-3.588628769E-2,-1.964092255E-2,-7.680892944E-3
3.498175578E2,-1.687383652E-2,-1.770401001E-2,3.425133228E-2
3.503175578E2,7.225036621E-3,1.895427704E-2,2.485334873E-2
3.508175578E2,1.306295395E-2,-5.036354065E-3,-3.140568733E-3
3.513175578E2,3.672170639E-2,9.993553162E-3,5.146872997E-2
3.518175578E2,6.666660309E-3,-4.468917847E-3,-6.719577312E-2
3.523175578E2,1.153039932E-2,-3.504753113E-3,-6.993353367E-2
3.528175578E2,-1.003265381E-1,-7.128810883E-2,3.611794710E-1
3.533175578E2,-1.192517281E-1,-5.017471313E-2,1.592944264E-1
3.538175578E2,-9.373521805E-2,-2.457904816E-2,1.308619976E-2
3.543175578E2,-3.138780594E-2,-2.628421783E-2,3.217762709E-2
3.548175578E2,-1.356649399E-2,1.102924347E-2,-5.699443817E-2
3.553175578E2,2.996778488E-2,4.435539246E-3,-7.072287798E-2
3.558175578E2,7.906436920E-3,-4.597663879E-3,1.828849316E-2
3.563175578E2,-2.251052856E-2,-1.175880432E-2,4.986780882E-2
3.568175578E2,4.302024841E-3,1.118755341E-2,1.417696476E-3
3.573175578E2,-8.693456650E-2,-1.686573029E-2,-2.268135548E-3
3.578175578E2,1.918292046E-1,1.543769836E-1,-1.413202882E-1
3.583175578E2,4.247188568E-3,4.967689514E-3,-1.674526930E-2
3.588175578E2,-7.239818573E-3,-2.798652649E-2,-1.170039177E-4
3.593175578E2,6.179666519E-2,3.607559204E-2,9.339749813E-3
3.598175578E2,-1.892137527E-2,-1.936435699E-2,-2.497494221E-2
3.603175578E2,-2.615356445E-2,-9.159088135E-3,3.874778748E-3
3.608175578E2,2.986478806E-2,1.793098450E-2,5.210340023E-2
3.613175578E2,-1.362080574E-1,-5.275058746E-2,9.620884061E-2
3.618175578E2,1.539645195E-1,3.579235077E-2,1.064002514E-3
3.623175578E2,-9.222221375E-2,-4.401493073E-2,5.878162384E-2
3.628175578E2,-1.518421173E-1,-4.761886597E-2,2.184379697E-1
3.633175578E2,1.571516991E-1,1.132202148E-1,-2.803003788E-2
3.638175578E2,-2.983422279E-1,2.042732239E-1,-4.952890873E-1
3.643175578E2,3.331408501E-1,1.290073395E-1,-4.204176068E-1
3.648175578E2,8.689403534E-3,1.583576202E-1,-1.591647267E-1
3.653175578E2,-9.579992294E-2,-9.851932526E-2,4.029756784E-2
3.658175578E2,5.358262062E-1,1.003093719E-1,-2.448760867E-1
3.663175578E2,2.549543381E-1,8.936786652E-2,-2.629147172E-1
3.668175578E2,-3.257465363E-2,-2.498912811E-2,-1.118708253E-1
3.673175578E2,8.067560196E-2,1.061468124E-1,-1.610094309E-2
3.678175578E2,-3.389067650E-1,-4.097032547E-1,-6.654722691E-1
3.683175578E2,6.255722046E-2,-9.268188477E-2,-5.245214701E-1
3.688175578E2,-2.778682709E-1,-1.920757294E-1,4.858151078E-2
3.693175578E2,-7.711267471E-2,-7.077121735E-2,3.412348032E-2
3.698175578E2,-2.487654686E-1,-5.414867401E-2,-1.150334477E-1
3.703175578E2,1.381397247E-3,3.937721252E-3,-1.264169216E-1
3.708175578E2,-5.240774155E-2,-2.499198914E-2,-8.254539967E-2
3.713175578E2,-5.199527740E-2,-2.482604980E-2,-1.375252008E-2
3.718175578E2,-9.139490128E-2,-1.053495407E-1,-3.977692127E-2
3.723175578E2,3.772244453E-1,2.990894318E-1,1.375600696E-1
3.728175578E2,-7.482233047E-1,-5.501933098E-1,5.752635002E-2
3.733175578E2,2.461190224E-1,5.748748779E-3,2.166859806E-1
3.738175578E2,2.444496155E-1,5.518817902E-2,-1.700380445E-2
3.743175578E2,3.646326065E-2,-1.423835754E-2,8.770102262E-2
3.748175578E2,-4.266452789E-2,-3.033542633E-2,-5.229693651E-2
3.753175578E2,2.650561333E-1,1.244058609E-1,1.686155200E-1
3.758175578E2,-7.891631126E-1,-3.785781860E-1,5.199111700E-1
3.763175578E2,4.765329361E-1,2.138614655E-1,-2.744833231E-1
3.768175578E2,-6.247854233E-2,-6.617546082E-3,-2.635986507E-1
3.773175578E2,6.500720978E-3,1.858520508E-2,-4.336746931E-1
3.778175578E2,2.401614189E-1,3.422040939E-1,-5.796865225E-1
3.783175578E2,-1.057872772E-1,-7.287979126E-2,-3.259268999E-1
3.788175578E2,-1.130042076E-1,2.238273621E-3,-1.436628699E-1
3.793175578E2,-4.678964615E-2,-5.734920502E-2,-5.348956585E-2
3.798175578E2,1.412882805E-1,1.070613861E-1,-2.012252808E-3
3.803175578E2,9.477567673E-2,4.005718231E-2,-1.018928885E-1
3.808175578E2,-1.850037575E-1,-3.893089294E-2,2.857275903E-1
3.813175578E2,1.588487625E-2,8.255958557E-3,-1.570829153E-1
3.818175578E2,-9.964513779E-2,-2.872753143E-2,-1.182917356E-1
3.823175578E2,4.776811600E-2,4.598903656E-2,7.858377695E-2
3.828175578E2,-2.867317200E-2,2.665519714E-3,9.522765875E-3
3.833175578E2,7.003068924E-2,5.100631714E-2,-6.298905611E-2
3.838175578E2,-7.739591599E-2,-1.570415497E-2,-2.990543842E-3
3.843175578E2,-9.247303009E-3,8.079147339E-2,5.275726318E-3
3.848175578E2,-6.272029877E-2,-3.209590912E-2,4.563194513E-2
3.853175578E2,4.689440727E-1,2.135381699E-1,2.303034067E-1
3.858175578E2,-1.498866081E-1,-2.595596313E-1,6.985325217E-1
3.863175578E2,3.242750168E-1,-2.340927124E-1,3.307022750E-1
3.868175578E2,3.239474297E-1,3.666753769E-1,-1.230680943E-2
3.873175578E2,-3.750586510E-1,-2.025241852E-1,5.590990186E-2
3.878175578E2,1.298198700E-1,1.999187469E-1,1.447091997E-1
3.883175578E2,-1.380743980E-1,-4.554462433E-2,2.652817965E-2
3.888175578E2,1.378870010E-2,-2.899074554E-2,1.271941960E-1
3.893175578E2,-6.532621384E-2,-8.620357513E-2,-8.989825100E-2
3.898175578E2,2.332959175E-1,1.064147949E-1,-1.003698111E0
3.903175578E2,8.940892220E-1,5.516653061E-1,-7.879790664E-1
3.908175578E2,4.734420776E-2,3.702850342E-1,-1.793396473E0
3.913175578E2,-1.379313469E-1,4.332447052E-2,-1.361973524E0
3.918175578E2,-1.225094795E-1,2.280015945E-1,-7.079913020E-1
3.923175578E2,-1.488051414E-1,-9.335517883E-2,-1.573169231E-2
3.928175578E2,1.416187286E-1,1.778030396E-2,-1.532176733E-1
3.933175578E2,-1.720604897E-1,-1.030406952E-1,-6.485080719E-2
3.938175578E2,3.820228577E-2,4.857540131E-2,1.392341852E-1
3.943175578E2,-1.209917068E-1,-6.243705750E-2,7.842582464E-2
3.948175578E2,-1.063532829E-1,-6.384181976E-2,-2.437372208E-1
3.953175578E2,-8.289957047E-2,-1.576557159E-1,5.897644162E-1
3.958175578E2,-4.971508980E-1,-2.272653580E-1,-8.041548729E-2
3.963175578E2,2.048063278E-2,-1.097235680E-1,7.014263868E-1
3.968175578E2,-7.472476959E-1,-3.857250214E-1,7.311381102E-1
3.973175578E2,6.462097168E-3,-3.025412560E-1,7.652530074E-1
3.978175578E2,2.594590187E-1,1.353425980E-1,3.573246598E-1
3.983175578E2,-3.136191368E-1,-2.910385132E-1,-1.580367833E-1
3.988175578E2,3.233489990E-1,3.624505997E-1,-3.438848257E-2
3.993175578E2,-4.450464249E-2,-5.612468719E-2,4.340621829E-2
3.998175578E2,6.116580963E-2,1.117625237E-1,-1.582684517E-1
4.003175578E2,-9.172010422E-2,-5.001974106E-2,9.873047471E-2
4.008175578E2,2.393641472E-1,9.442758560E-2,2.581216097E-1
4.013175578E2,-1.807317734E-1,-1.853775978E-1,-3.784744143E-1
4.018175578E2,1.754331589E-2,-5.097532272E-2,6.020373106E-2
4.023175578E2,-5.943422318E-1,-1.088509560E-1,-5.354093313E-1
4.028175578E2,-2.753300667E-1,-8.127212524E-2,-7.208029628E-1
4.033175578E2,1.019487381E-1,1.973795891E-1,-3.827002048E-1
4.038175578E2,3.450345993E-2,-4.083633423E-2,2.905899286E-2
4.043175578E2,-2.099518776E-1,-1.041483879E-1,-2.257037163E-2
4.048175578E2,1.927375793E-2,-3.167057037E-2,6.020313501E-2
4.053175578E2,-1.569414139E-2,2.011108398E-2,-4.002571106E-3
4.058175578E2,2.348556519E-1,1.141185760E-1,2.691170573E-1
4.063175578E2,-2.186484337E-1,-2.770829201E-1,6.029583216E-1
4.068175578E2,-5.946207047E-2,-1.502966881E-1,6.229174882E-2
4.073175578E2,2.402448654E-2,5.804824829E-2,-1.036281064E-1
4.078175578E2,-1.618881226E-1,2.355852127E-1,-9.325218201E-1
4.083175578E2,4.566779137E-1,2.915854454E-1,-4.154345393E-1
4.088175578E2,1.346058846E-1,-1.185989380E-1,-3.168812394E-1
4.093175578E2,-2.594313622E-1,-1.949386597E-1,-4.035905600E-1
4.098175578E2,3.709602356E-2,1.421694756E-1,-1.063877195E-1
4.103175578E2,1.756401062E-1,1.420745850E-1,-3.535923362E-1
4.108175578E2,-3.161940575E-1,-1.430492401E-1,-2.169436663E-1
4.113175578E2,3.601455688E-2,4.731702805E-2,-2.589550614E-2
4.118175578E2,7.770299911E-2,4.020309448E-2,-9.603852034E-2
4.123175578E2,-6.235742569E-2,-3.719568253E-2,2.461969852E-4
4.128175578E2,1.097869873E-2,5.114078522E-3,-4.355078936E-2
4.133175578E2,4.133701324E-3,8.155870438E-2,2.277702093E-2
4.138175578E2,8.245563507E-2,-4.009437561E-2,2.226598859E-1
4.143175578E2,2.624607086E-1,4.498910904E-1,-3.874536157E-1
4.148175578E2,-1.622409821E-1,-2.039480209E-2,-1.293699145E-1
4.153175578E2,2.556486130E-1,2.998275757E-1,-1.936390400E-1
4.158175578E2,-7.202577591E-1,-4.264321327E-1,-9.213912487E-2
4.163175578E2,1.022539139E-1,1.024622917E-1,-1.303561330E-1
4.168175578E2,2.740621567E-2,9.679031372E-2,-1.867890358E-3
4.173175578E2,-2.515234947E-1,-3.009066582E-1,8.773967624E-2
4.178175578E2,2.444858551E-1,3.814558983E-1,-1.429991722E-1
4.183175578E2,-5.547995567E-1,-6.337366104E-1,2.259946465E-1
4.188175578E2,3.324236870E-1,-1.853847504E-2,2.824341059E-1
4.193175578E2,3.419637680E-2,6.477165222E-2,1.174082160E-1
4.198175578E2,-1.105446815E-1,-2.108139992E-1,-5.220085382E-2
4.203175578E2,1.939234734E-1,1.885042191E-1,6.776884198E-2
4.208175578E2,-1.557664871E-1,1.285839081E-2,-2.353206873E-1
4.213175578E2,-5.224275589E-2,1.118617058E-1,-2.665325403E-1
4.218175578E2,-4.541068077E-1,-3.895435333E-1,-6.776630878E-2
4.223175578E2,7.720136642E-2,6.542158127E-2,-1.118391752E-2
4.228175578E2,-4.018449783E-2,-6.103897095E-2,-9.526276588E-2
4.233175578E2,1.451745033E-1,3.999853134E-2,2.031631172E-1
4.238175578E2,-1.283235550E-1,5.011558533E-3,-2.035862207E-2
4.243175578E2,1.304688454E-1,6.052684784E-2,8.005839586E-2
4.248175578E2,-8.257293701E-2,-7.783412933E-3,4.238415360E-1
4.253175578E2,-6.036295891E-1,-4.942402840E-1,3.093133867E-1
4.258175578E2,1.363506317E-1,7.236528397E-2,5.157951713E-1
4.263175578E2,1.634964943E-1,-9.250640869E-5,5.028188229E-2
4.268175578E2,1.446580887E-1,3.752613068E-2,-1.321091354E-1
4.273175578E2,2.871513367E-3,-2.716064453E-3,1.788888276E-1
4.278175578E2,-2.684259415E-2,4.993057251E-2,-1.733061671E-1
4.283175578E2,6.361293793E-2,2.487802505E-2,4.068486392E-2
4.288175578E2,2.004299164E-1,1.094541550E-1,-1.033219695E-1
4.293175578E2,-1.323781013E-1,-1.004257202E-1,-1.659891605E-1
4.298175578E2,3.917217255E-2,-2.609920502E-2,-1.707241237E-1
4.303175578E2,-6.215715408E-2,-4.476737976E-2,-2.193595171E-1
4.308175578E2,-1.067457199E-1,-6.699895859E-2,-7.408612967E-2
4.313175578E2,7.995986938E-2,6.661033630E-2,3.576934338E-3
4.318175578E2,1.012940407E-1,3.313255310E-2,1.805126667E-3
4.323175578E2,-1.000027657E-1,5.445909500E-2,-7.855278254E-2
4.328175578E2,6.069707870E-2,4.948425293E-2,-8.649504185E-2
4.333175578E2,-1.796107292E-1,-1.369085312E-1,-7.265979052E-2
4.338175578E2,-1.536655426E-2,5.030679703E-2,-1.866995692E-1
4.343175578E2,5.484104156E-3,1.309924126E-1,-3.146237731E-1
4.348175578E2,2.053217888E-1,1.221933365E-1,1.096916795E-1
4.353175578E2,7.352876663E-2,-4.535055161E-2,5.745363235E-2
4.358175578E2,1.720395088E-1,4.874420166E-2,3.392643332E-1
4.363175578E2,-2.846145630E-2,-6.682395935E-2,3.310263753E-1
4.368175578E2,6.782960892E-2,7.544660568E-2,-9.944134951E-2
4.373175578E2,-1.335954666E-2,6.560754776E-2,1.024429500E-1
4.378175578E2,4.062318802E-2,-2.478027344E-2,2.120916545E-1
4.383175578E2,6.902966499E-1,3.483529091E-1,7.612946630E-2
4.388175578E2,4.199137688E-1,3.325901031E-1,-1.699640751E-1
4.393175578E2,-4.784255028E-1,-2.350635529E-1,-4.698031545E-1
4.398175578E2,7.618894577E-1,4.048500061E-1,8.095419407E-2
4.403175578E2,9.285449982E-2,8.424139023E-2,-1.959045529E-1
4.408175578E2,-7.504224777E-2,-1.800971031E-1,5.444902182E-2
4.413175578E2,4.194383621E-1,3.066792488E-1,-5.358536243E-1
4.418175578E2,1.824469566E-1,3.462543488E-1,-1.082443237E0
4.423175578E2,1.124353409E-1,1.457395554E-1,-3.161083460E-1
4.428175578E2,-1.308751106E-1,-1.638212204E-1,-2.233902216E-1
4.433175578E2,2.004179955E-1,1.498646736E-1,2.194863558E-1
4.438175578E2,-2.379069328E-1,-2.915625572E-1,2.630867362E-1
4.443175578E2,2.518949509E-1,-3.394412994E-2,8.174338341E-1
4.448175578E2,1.523513794E-1,-9.255075455E-2,1.391216040E0
4.453175578E2,-1.151399612E-1,1.761488914E-1,-6.089159250E-1
4.458175578E2,6.655936241E-1,3.808388710E-1,-6.635838747E-2
4.463175578E2,-5.416946411E-1,-4.226617813E-1,-7.519697547E-1
4.468175578E2,5.264835358E-1,3.080635071E-1,-9.006150365E-1
4.473175578E2,1.018428802E-1,3.839473724E-1,-9.716714621E-1
4.478175578E2,1.378107071E-2,7.480669022E-2,-4.504366517E-1
4.483175578E2,-3.097486496E-2,2.960205078E-2,-1.928375959E-1
4.488175578E2,8.365535736E-2,8.179950714E-2,2.028012276E-2
4.493175578E2,-9.365558624E-2,-1.105737686E-2,4.088693261E-1
4.498175578E2,7.859134674E-2,7.743072510E-2,4.431693256E-1
4.503175578E2,5.330133438E-2,-1.490797997E-1,3.872318864E-1
4.508175578E2,6.128931046E-2,-7.072210312E-2,3.958380222E-1
4.513175578E2,-1.753735542E-1,-1.440505981E-1,2.298842669E-1
4.518175578E2,1.412434578E-1,2.229690552E-3,5.223613605E-2
4.523175578E2,-2.136373520E-2,-4.880809784E-2,-4.122291505E-2
4.528175578E2,-9.084129333E-2,-1.037387848E-1,2.191361040E-1
4.533175578E2,-8.718252182E-2,-2.282619476E-2,2.008643746E-2
4.538175578E2,1.235499382E-1,-1.285600662E-2,-1.435935646E-1
4.543175578E2,5.352497101E-2,3.621435165E-2,2.542655766E-1
4.548175578E2,-1.348767281E-1,-7.461452484E-2,1.442116499E-1
4.553175578E2,1.037607193E-1,1.129832268E-1,2.097956650E-2
4.558175578E2,8.919811249E-2,1.473917961E-1,-1.671922803E-1
4.563175578E2,9.477376938E-2,-5.259132385E-2,-1.440385431E-1
4.568175578E2,8.609819412E-2,9.201097488E-2,1.723070443E-2
4.573175578E2,-1.215658188E-1,-7.395744324E-2,-6.437948346E-2
4.578175578E2,1.851558685E-1,1.773881912E-1,-1.582065970E-1
4.583175578E2,-3.416924477E-1,-2.787065506E-1,-5.134633183E-1
4.588175578E2,6.504874229E-1,6.211714745E-1,-2.668691278E-1
4.593175578E2,8.240222931E-3,1.281385422E-1,-3.036961257E-1
4.598175578E2,1.181817055E-1,2.242369652E-1,-1.596444845E-2
4.603175578E2,3.969669342E-3,2.711343765E-2,-1.882566214E-1
4.608175578E2,-4.623174667E-2,8.644580841E-3,-1.244065166E-1
4.613175578E2,-2.718114853E-2,-1.016588211E-1,-3.669619560E-2
4.618175578E2,-1.737785339E-2,2.818250656E-2,-3.431463242E-2
4.623175578E2,-1.559720039E-1,-8.167982101E-2,-4.574263096E-2
4.628175578E2,-6.994056702E-2,1.070275307E-1,-3.949320316E-2
4.633175578E2,6.575536728E-2,-1.675605774E-2,5.949479342E-2
4.638175578E2,1.348853111E-1,1.721668243E-2,-1.667526364E-2
4.643175578E2,-1.082901955E-1,3.580951691E-2,-2.280936837E-1
4.648175578E2,8.792209625E-2,1.020755768E-1,-1.102089882E-3
4.653175578E2,-1.762442589E-1,-1.377296448E-2,-7.947701216E-2
4.658175578E2,-9.102249146E-2,-1.045694351E-1,-1.329284310E-1
4.663175578E2,8.068132401E-2,8.324337006E-2,6.616306305E-2
4.668175578E2,-1.117877960E-1,-9.375429153E-2,-5.338132381E-2
4.673175578E2,6.726408005E-2,-5.246686935E-2,4.712623358E-2
4.678175578E2,-9.071826935E-3,4.095506668E-2,1.279064417E-1
4.683175578E2,9.703588486E-2,8.433914185E-2,4.956471920E-2
4.688175578E2,8.789920807E-2,4.645347595E-2,-3.775417805E-3
4.693175578E2,-1.249051094E-1,-9.036159515E-2,-8.364188671E-2
4.698175578E2,-3.215599060E-2,-1.021957397E-2,4.843389988E-2
4.703175578E2,1.624155045E-2,3.734254837E-2,2.696889639E-2
4.708175578E2,7.476186752E-2,5.982446671E-2,4.652112722E-2
4.713175578E2,3.939533234E-2,4.167079926E-2,1.832276583E-2
4.718175578E2,2.045631409E-2,1.929855347E-2,-1.288509369E-2
4.723175578E2,-1.239871979E-2,2.118968964E-2,4.896003008E-2
4.728175578E2,2.399539948E-2,-1.063871384E-2,-1.275536418E-1
4.733175578E2,6.872701645E-2,7.283496857E-2,-1.534193754E-1
4.738175578E2,2.874183655E-2,-6.231307983E-3,1.600092649E-2
4.743175578E2,1.015462875E-1,2.784442902E-2,5.576556921E-2
4.748175578E2,-2.673339844E-2,-1.656198502E-2,3.261750937E-2
4.753175578E2,4.284954071E-2,7.255077362E-3,1.184648871E-1
4.758175578E2,1.656174660E-1,5.723762512E-2,1.395333111E-1
4.763175578E2,5.507326126E-2,3.998041153E-2,9.967678785E-2
4.768175578E2,-4.783344269E-2,-6.710052490E-3,2.202111483E-2
4.773175578E2,-7.250881195E-2,-4.305934906E-2,1.114758253E-1
4.778175578E2,2.683448792E-2,-1.407289505E-2,-4.640489817E-3
4.783175578E2,1.057643890E-1,1.529459953E-1,6.952914596E-2
4.788175578E2,4.727888107E-2,-4.154348373E-2,8.423715830E-3
4.793175578E2,1.541504860E-1,8.938837051E-2,-3.354867101E-1
4.798175578E2,1.269736290E-1,1.262869835E-1,-3.447177410E-1
4.803175578E2,2.636194229E-2,5.350065231E-2,-2.363990545E-1
4.808175578E2,2.950286865E-2,1.294755936E-2,-1.079506874E-1
4.813175578E2,1.582131386E-1,9.174489975E-2,3.633346558E-1
4.818175578E2,-4.526739120E-1,-3.043751717E-1,6.476484537E-1
4.823175578E2,1.812458038E-1,-1.460599899E-2,7.190831900E-1
4.828175578E2,8.898973465E-2,2.035808563E-2,6.680463254E-2
4.833175578E2,-7.181644440E-2,-2.089500427E-2,2.934641242E-1
4.838175578E2,-3.796243668E-2,-1.118087769E-2,1.811690331E-1
4.843175578E2,3.289556503E-2,-3.136920929E-2,-3.463609517E-2
4.848175578E2,-5.577754974E-2,-1.489639282E-2,-6.517592818E-3
4.853175578E2,-1.375932693E-1,-1.438302994E-1,3.109594434E-2
4.858175578E2,-1.608238220E-1,-1.865386963E-3,3.384210467E-1
4.863175578E2,4.284820557E-1,3.226618767E-1,-2.765809000E-1
4.868175578E2,8.915176392E-1,6.406235695E-1,-3.164084256E-1
4.873175578E2,1.741523743E-1,4.344959259E-1,6.755267382E-1
4.878175578E2,-2.294287682E-1,-5.675210953E-1,-3.518072963E-1
4.883175578E2,-7.627010345E-3,1.309413910E-1,-3.020206690E-1
4.888175578E2,4.946165085E-1,5.806274414E-1,-4.901967049E-1
4.893175578E2,-3.594017029E-1,-9.898090363E-2,7.762950659E-2
4.898175578E2,1.235966682E-1,5.557155609E-2,-1.390708387E-1
4.903175578E2,-6.726264954E-2,-5.603504181E-2,-1.031088978E-1
4.908175578E2,-8.614349365E-2,-6.933116913E-2,-2.360942960E-2
4.913175578E2,-1.390075684E-2,4.289913177E-2,-8.015841246E-2
4.918175578E2,1.450896263E-1,7.555484772E-2,2.297549695E-2
4.923175578E2,6.740236282E-2,2.686691284E-2,4.443036020E-2
4.928175578E2,-7.622766495E-2,-2.323341370E-2,7.270251215E-2
4.933175578E2,9.909868240E-2,4.223918915E-2,-4.099978507E-2
4.938175578E2,4.109811783E-2,7.164955139E-3,-4.466609657E-2
4.943175578E2,-1.360273361E-2,-7.439613342E-3,-2.959901094E-2
4.948175578E2,5.925607681E-2,1.236915588E-2,-3.693421185E-2
4.953175578E2,-2.567338943E-2,1.043796539E-2,-1.267960668E-2
4.958175578E2,-3.857851028E-2,-8.325576782E-3,-9.288787842E-4
4.963175578E2,-1.131868362E-2,-1.578426361E-2,3.064274788E-3
4.968175578E2,1.249599457E-2,-1.722335815E-3,-6.530582905E-3
4.973175578E2,2.329874039E-2,2.434253693E-2,-3.767564893E-2
4.978175578E2,-1.921224594E-2,-6.864547729E-3,-3.221556544E-3
4.983175578E2,-2.279710770E-2,-9.141921997E-3,-1.176699996E-2
4.988175578E2,-9.315013885E-3,-3.563880920E-3,-1.646809280E-2
4.993175578E2,-5.274295807E-3,-5.323410034E-3,-1.550313830E-2
4.998175578E2,9.613513947E-3,-5.551338196E-3,1.252338290E-3
5.003175578E2,-1.035308838E-2,2.985954285E-3,-1.048369706E-2
5.008175578E2,7.616996765E-3,2.656936646E-3,1.901845634E-2
5.013175578E2,-1.516580582E-2,-1.950168610E-2,-1.264514029E-2
5.018175578E2,2.398443222E-2,1.072883606E-2,1.948563755E-2
5.023175578E2,-1.086854935E-2,-1.957511902E-2,1.523616910E-2
5.028175578E2,-7.827281952E-3,1.547050476E-2,-1.749587059E-2
5.033175578E2,-1.468181610E-3,-1.093292236E-2,-2.198146284E-2
5.038175578E2,-1.170253754E-2,-2.097129822E-3,-3.861159086E-2
5.043175578E2,-1.344347000E-2,-2.098083496E-4,-4.508614540E-3
5.048175578E2,1.735639572E-1,2.465438843E-2,3.128953576E-1
5.053175578E2,-2.741765976E-1,-4.748249054E-2,1.380397558E0
5.058175578E2,1.658458710E-1,-4.814434052E-2,1.120361567E0
5.063175578E2,3.683786392E-1,2.226657867E-1,3.120766878E-1
5.068175578E2,-3.904976845E-1,-3.406429291E-2,3.121620715E-1
5.073175578E2,3.910636902E-1,1.858282089E-1,9.971112013E-3
5.078175578E2,3.301858902E-2,4.418849945E-2,1.783948541E-1
5.083175578E2,-6.431436539E-2,-6.912612915E-2,-8.227849007E-2
5.088175578E2,-1.268577576E-1,1.949882507E-2,-5.197379589E-1
5.093175578E2,1.505165100E-1,1.388978958E-1,-3.100699484E-1
5.098175578E2,-3.664374352E-1,-3.372545242E-1,-6.468883157E-2
5.103175578E2,9.351797104E-1,4.578380585E-1,-4.846354127E-1
5.108175578E2,-1.013369083E0,-1.200357914E0,1.512473226E-1
5.113175578E2,8.961076736E-1,4.204916954E-1,1.286263168E-1
5.118175578E2,-8.589262962E-1,-1.320867538E0,2.631513178E-1
5.123175578E2,2.799835205E-1,2.929115295E-2,-3.782143295E-1
5.128175578E2,5.788478851E-1,-6.856808662E-1,6.578370333E-1
5.133175578E2,-1.049499989E0,-7.253146172E-1,-1.920316219E-1
5.138175578E2,-1.117882729E-1,-4.513106346E-1,-1.048928797E-1
5.143175578E2,-1.203239918E0,-9.853091240E-1,-3.399582803E-1
5.148175578E2,-4.159111977E-1,-2.849001884E-1,1.145249307E-1
5.153175578E2,-1.682322025E0,-1.109920025E0,-8.871815205E-1
5.158175578E2,-7.896957397E-1,-9.730911255E-1,4.647135735E-1
5.163175578E2,-3.178172112E-1,3.349895477E-1,-6.901509762E-1
5.168175578E2,1.869342804E0,1.199627399E0,-6.163657904E-1
5.173175578E2,6.912956238E-1,5.792336464E-1,-5.168395042E-1
5.178175578E2,-6.601924896E-1,-8.776669502E-1,-6.520259380E-2
5.183175578E2,1.488285542E0,1.011260033E0,-2.775361538E-1
5.188175578E2,6.529345512E-1,2.496585846E-1,-6.541650295E-1
5.193175578E2,1.293506145E0,4.759850502E-1,-2.793906629E-1
5.198175578E2,-3.282527924E-1,-6.152629852E-2,9.320437908E-3
5.203175578E2,1.150016785E-1,1.744780540E-1,-2.959581912E-1
5.208175578E2,2.794556618E-1,6.420135498E-2,-1.112493873E0
5.213175578E2,3.309173584E-1,1.624403000E-1,-2.898519039E-1
5.218175578E2,5.067062378E-2,-4.148578644E-2,-1.121869236E-1
5.223175578E2,-7.091474533E-2,2.121243477E-1,2.323485017E-1
5.228175578E2,-8.971595764E-2,5.346012115E-2,-8.326399326E-1
5.233175578E2,8.181276321E-1,1.821203232E-1,5.739769936E-1
5.238175578E2,9.145736694E-4,7.709121704E-2,1.180626377E-1
5.243175578E2,2.343382835E-1,2.365961075E-1,3.475084305E-1
5.248175578E2,-3.863382339E-2,1.453647614E-1,-6.184270382E-1
5.253175578E2,-6.244707108E-2,-8.119201660E-2,3.031209409E-1
5.258175578E2,-7.629632950E-2,2.774906158E-2,-1.724330634E-1
5.263175578E2,3.154387474E-1,1.106710434E-1,-1.622325182E-1
5.268175578E2,-2.094221115E-1,-3.215293884E-1,2.580606937E-2
5.273175578E2,-1.773724556E-1,-6.827640533E-2,9.836059809E-2
5.278175578E2,9.128046036E-2,-3.911018372E-3,1.890912652E-3
5.283175578E2,-1.243810654E-1,-4.678726196E-2,-4.351282120E-2
5.288175578E2,-1.340479851E-1,-5.248928070E-2,-8.857403696E-2
5.293175578E2,1.252746582E-2,-2.802276611E-2,-7.627600431E-2
5.298175578E2,-2.594280243E-2,-8.165836334E-2,3.225058913E-1
5.303175578E2,3.517174721E-1,1.361780167E-1,-7.301996350E-1
5.308175578E2,2.349982262E-1,1.764020920E-1,-3.190553188E-1
5.313175578E2,-7.101869583E-2,-1.263685226E-1,-3.533184528E-1
5.318175578E2,2.854595184E-1,1.253938675E-2,-6.285437942E-2
5.323175578E2,-2.360992432E-1,-1.674380302E-1,-1.880359650E-2
5.328175578E2,1.120510101E-1,-8.465576172E-2,1.159424409E-1
5.333175578E2,-1.418595314E-1,-3.079986572E-2,6.527748704E-2
5.338175578E2,8.259391785E-2,4.644489288E-2,2.423593402E-2
5.343175578E2,9.384202957E-2,5.543756485E-2,-1.241477132E-1
5.348175578E2,-5.708217621E-3,-1.598405838E-2,-8.618848026E-2
5.353175578E2,1.223959923E-1,-1.715359688E-1,3.999003768E-2
5.358175578E2,-2.096281052E-1,-2.704620361E-2,4.219384491E-2
5.363175578E2,1.423130035E-1,9.050226212E-2,1.778510213E-2
5.368175578E2,6.344223022E-2,6.968164444E-2,2.397501469E-2
5.373175578E2,-1.675176620E-1,-1.437616348E-1,-1.254934072E-1
5.378175578E2,8.660459518E-2,5.751276016E-2,1.707361341E-1
5.383175578E2,-4.562711716E-2,-9.375095367E-3,2.328382134E-1
5.388175578E2,-2.647881508E-1,-1.494603157E-1,-2.455394566E-1
5.393175578E2,2.404546738E-1,3.103051186E-1,1.535623521E-1
5.398175578E2,4.982519150E-2,-3.708791733E-2,-4.363036901E-2
5.403175578E2,7.122278214E-2,5.431318283E-2,-4.796919227E-2
5.408175578E2,-7.136344910E-2,-3.389644623E-2,-8.947342634E-2
5.413175578E2,5.852556229E-2,4.025077820E-2,-5.800226331E-2
5.418175578E2,9.980010986E-2,-1.512622833E-2,-2.963820100E-2
5.423175578E2,1.534647942E-1,2.539491653E-2,-4.621428251E-2
5.428175578E2,-9.114885330E-2,1.296901703E-2,-2.880781889E-2
5.433175578E2,-1.646375656E-2,-3.345012665E-2,2.571791410E-2
5.438175578E2,5.910730362E-2,6.889963150E-2,1.766359806E-2
5.443175578E2,-3.549623489E-2,7.433414459E-3,1.083032861E-1
5.448175578E2,6.012105942E-2,4.801702499E-2,8.493581414E-2
5.453175578E2,-4.025840759E-2,-2.417850494E-2,-2.670770884E-2
5.458175578E2,3.658628464E-2,6.764173508E-2,2.903884649E-2
5.463175578E2,-4.791684151E-1,-6.177825928E-1,-1.655348986E-1
5.468175578E2,9.710679054E-1,6.282992363E-1,-2.111704648E-1
5.473175578E2,2.533349991E-1,3.322343826E-1,-6.791989207E-1
5.478175578E2,-1.029429436E-1,6.713294983E-2,-2.241471410E-1
5.483175578E2,1.548180580E-1,8.401918411E-2,-2.686820030E-1
5.488175578E2,1.792931557E-1,1.749234200E-1,-8.287921548E-2
5.493175578E2,2.101907730E-1,8.964014053E-2,2.820807695E-2
5.498175578E2,-1.222991943E-2,1.492071152E-2,1.757139564E-1
5.503175578E2,-2.438540459E-1,-3.043556213E-2,2.847913504E-1
5.508175578E2,-5.153036118E-2,-7.687997818E-2,1.539875567E-1
5.513175578E2,2.406601906E-1,1.217684746E-1,2.371208221E-1
5.518175578E2,-1.395783424E-1,-6.577301025E-2,-1.652405560E-1
5.523175578E2,9.070348740E-2,1.651287079E-2,1.114566922E-1
5.528175578E2,-1.400880814E-1,-8.153343201E-2,4.812145233E-2
5.533175578E2,3.794956207E-2,1.133236885E-1,-4.382117093E-2
5.538175578E2,-2.277359962E-1,-1.842718124E-1,-1.276552081E-1
5.543175578E2,4.264354706E-2,2.473640442E-2,8.524258435E-2
5.548175578E2,-1.197590828E-1,-1.123118401E-1,-4.439234734E-2
5.553175578E2,1.322464943E-1,6.319570541E-2,1.112147421E-1
5.558175578E2,4.640722275E-2,8.249759674E-2,4.251688719E-2
5.563175578E2,1.006026268E-1,8.656311035E-2,3.823048472E-1
5.568175578E2,2.967910767E-1,3.401660919E-2,-2.487861514E-1
5.573175578E2,1.924700737E-1,1.442155838E-1,4.571375251E-2
5.578175578E2,-4.469394684E-3,-5.331039429E-2,-1.949095726E-1
5.583175578E2,-8.627128601E-2,-1.403379440E-2,-5.743878335E-2
5.588175578E2,-9.100532532E-2,-1.193284988E-1,-8.955186605E-2
5.593175578E2,1.793179512E-1,5.078363419E-2,4.615391791E-2
5.598175578E2,-2.341938019E-2,-4.720497131E-2,-1.084811091E-1
5.603175578E2,-1.493129730E-1,-7.815265656E-2,1.093651950E-1
5.608175578E2,-5.830225945E-1,-4.703893661E-1,2.301442325E-1
5.613175578E2,-2.498559952E-1,-1.132869720E-2,7.314203680E-2
5.618175578E2,-1.619186401E-1,-5.399227142E-2,-1.129048914E-1
5.623175578E2,-1.388998032E-1,-6.783485413E-2,2.975902706E-2
5.628175578E2,-1.141161919E-1,-5.560302734E-2,-2.610827386E-1
5.633175578E2,6.689214706E-2,-2.964973450E-3,-5.934631824E-2
5.638175578E2,-9.888601303E-2,-5.403137207E-2,-8.570158482E-2
5.643175578E2,1.948275566E-1,2.736043930E-1,1.234703660E-1
5.648175578E2,-9.369897842E-2,-2.466201782E-3,6.023871899E-2
5.653175578E2,-2.683291435E-1,-3.138256073E-2,-1.632583141E-1
5.658175578E2,1.998915672E-1,-1.365070343E-1,1.769578755E-1
5.663175578E2,2.189683914E-1,9.374141693E-2,-4.859983921E-3
5.668175578E2,-4.718923569E-2,-1.745796204E-2,1.010188311E-1
5.673175578E2,-7.269191742E-2,5.152797699E-2,-8.831545711E-2
5.678175578E2,-1.384811401E-1,-6.835556030E-2,-3.104159832E-1
5.683175578E2,3.835630417E-1,9.026813507E-2,1.238534153E-1
5.688175578E2,-5.278658867E-1,-3.692975044E-1,-2.938384116E-1
5.693175578E2,-8.226108551E-2,-2.278614044E-2,-4.795798659E-2
5.698175578E2,-8.905744553E-2,-1.452989578E-1,-4.290789366E-2
5.703175578E2,-1.607728004E-1,-2.791328430E-1,-1.611727476E-2
5.708175578E2,-2.614016533E-1,7.501792908E-2,-7.919645309E-2
5.713175578E2,5.261435509E-1,2.013807297E-1,-1.460078955E-1
5.718175578E2,2.144255638E-1,2.247138023E-1,-1.064510942E-1
5.723175578E2,2.139506340E-1,6.000614166E-2,-3.684759140E-2
5.728175578E2,-1.327967644E-1,-1.209306717E-2,-2.190625668E-2
5.733175578E2,-1.620249748E-1,-9.620285034E-2,1.454547346E-1
5.738175578E2,1.525330544E-1,7.452249527E-2,8.400693536E-2
5.743175578E2,-8.912181854E-2,-7.291126251E-2,-7.041412592E-2
5.748175578E2,8.057022095E-2,3.627634048E-2,-3.649172187E-2
5.753175578E2,2.459287643E-2,5.770015717E-2,-2.729284763E-2
5.758175578E2,-1.196150780E-1,-7.038688660E-2,1.072737575E-1
5.763175578E2,-6.740283966E-2,-5.465793610E-2,-1.102454662E-1
5.768175578E2,-6.395006180E-2,-4.006052017E-2,-2.844782770E-1
5.773175578E2,8.770513535E-2,-5.002021790E-3,-8.185237646E-2
5.778175578E2,-1.701688766E-2,-1.770877838E-2,-5.792599916E-2
5.783175578E2,8.637046814E-2,2.907323837E-2,3.465360403E-2
5.788175578E2,6.426763535E-2,3.184652328E-2,7.681953907E-2
5.793175578E2,-1.171731949E-2,-1.423835754E-2,9.043514729E-3
5.798175578E2,3.949069977E-2,-1.108169556E-3,-5.787685513E-2
5.803175578E2,3.460836411E-2,2.186155319E-2,-4.644241929E-2
5.808175578E2,-3.082084656E-2,3.254127502E-2,2.470448613E-2
5.813175578E2,1.532220840E-2,4.613494873E-2,-1.605910659E-1
5.818175578E2,-2.968549728E-2,-6.769037247E-2,-7.162272930E-2
5.823175578E2,-4.173755646E-3,1.052188873E-2,-6.679636240E-2
5.828175578E2,-6.392908096E-2,-4.894590378E-2,-1.406586766E-1
5.833175578E2,-7.030963898E-3,-7.297992706E-3,-1.452031732E-1
5.838175578E2,1.376228333E-1,9.494256973E-2,-7.183372974E-2
5.843175578E2,-5.810213089E-2,-3.375053406E-2,-4.672169685E-3
5.848175578E2,-3.015375137E-2,-1.905441284E-2,-1.115363836E-2
5.853175578E2,-8.233308792E-2,9.512901306E-3,5.372101068E-2
5.858175578E2,1.181721687E-1,2.860355377E-2,4.531300068E-1
5.863175578E2,3.841876984E-3,4.553794861E-3,1.547053456E-2
5.868175578E2,-3.258752823E-2,-5.143642426E-2,1.193498075E-2
5.873175578E2,-2.141952515E-3,-2.909374237E-2,4.122586548E-2
5.878175578E2,-5.077457428E-2,-5.478954315E-2,6.934992224E-2
5.883175578E2,5.603933334E-2,9.378433228E-3,-2.197957039E-2
5.888175578E2,-1.203861237E-1,-5.182838440E-2,-1.196172833E-2
5.893175578E2,1.854295731E-1,6.797981262E-2,-9.271293879E-3
5.898175578E2,8.836889267E-2,7.629394531E-3,-5.492028594E-2
5.903175578E2,3.308773041E-3,1.167964935E-2,-5.582273006E-4
5.908175578E2,-2.707004547E-3,-2.312660217E-2,-1.192334294E-2
5.913175578E2,-5.977392197E-2,-1.870441437E-2,-2.840524912E-2
5.918175578E2,-1.798582077E-2,-1.042556763E-2,1.593142748E-3
5.923175578E2,1.170778275E-2,2.015876770E-2,-4.395255446E-2
5.928175578E2,1.513624191E-2,1.153373718E-2,-8.632332087E-3
5.933175578E2,-5.412578583E-3,1.223564148E-2,-4.417935014E-2
5.938175578E2,-1.405429840E-2,2.129554749E-3,-1.063057780E-2
5.943175578E2,8.535385132E-5,2.370357513E-2,-3.298959136E-2
5.948175578E2,-1.461553574E-2,-4.520416260E-3,-1.356893778E-2
5.953175578E2,-4.181194305E-2,-1.120138168E-2,-3.378239274E-2
5.958175578E2,1.102066040E-2,1.312160492E-2,4.080256820E-2
5.963175578E2,-3.700780869E-2,1.790046692E-2,4.830718040E-3
5.968175578E2,-4.416751862E-2,-6.173467636E-2,-5.696916580E-2
5.973175578E2,-1.499700546E-2,2.343225479E-2,9.450986981E-2
5.978175578E2,1.154422760E-3,-1.721096039E-2,-8.153674006E-2
5.983175578E2,-2.579832077E-2,-1.205635071E-2,-5.782571435E-2
5.988175578E2,1.679563522E-2,2.333402634E-2,2.795982361E-2
5.993175578E2,4.716634750E-2,-2.252101898E-3,-3.949072957E-2
5.998175578E2,4.683971405E-3,-2.404212952E-3,-3.733932972E-3
6.003175578E2,7.929801941E-4,-2.820014954E-3,9.590357542E-3
6.008175578E2,1.331186295E-2,5.956172943E-3,-1.636520028E-2
6.013175578E2,1.207876205E-2,-9.234428406E-3,-1.782110333E-2
6.018175578E2,-1.373720169E-2,-5.465030670E-3,-3.086131811E-2
6.023175578E2,-1.600980759E-2,-1.182079315E-2,-2.756443620E-2
6.028175578E2,8.294105530E-3,1.548767090E-3,-2.057901025E-2
6.033175578E2,1.670885086E-2,2.625274658E-2,-5.923628807E-3
6.038175578E2,-2.083778381E-4,-5.273342133E-3,-3.170055151E-2
6.043175578E2,-8.284091949E-3,7.290363312E-3,-1.769939065E-2
6.048175578E2,-9.912014008E-3,1.157903671E-2,-1.598310471E-2
6.053175578E2,-2.093648911E-2,-1.661443710E-2,2.318352461E-3
6.058175578E2,-2.953672409E-2,-5.813598633E-3,-3.108125925E-2
6.063175578E2,2.537727356E-3,2.650976181E-2,3.529962897E-2
6.068175578E2,2.884387970E-3,-2.026510239E-2,-6.521764398E-2
6.073175578E2,2.737522125E-3,2.511835098E-2,-9.531617165E-3
6.078175578E2,3.481531143E-2,1.408100128E-2,-4.724642634E-2
6.083175578E2,4.584646225E-2,1.631069183E-2,6.247717142E-2
6.088175578E2,-1.533222198E-2,7.141590118E-3,1.998755336E-2
6.093175578E2,2.859592438E-2,3.547668457E-3,-1.794201136E-1
6.098175578E2,1.834454536E-1,1.527705193E-1,7.431599498E-2
6.103175578E2,-6.542162895E-1,-2.263236046E-1,-1.966142803E-1
6.108175578E2,-1.523294449E-1,-1.484222412E-1,6.796061993E-3
6.113175578E2,2.120537758E-1,7.269763947E-2,1.607746482E-1
6.118175578E2,-8.158636093E-2,-5.950069427E-2,-1.055618972E-1
6.123175578E2,-1.776633263E-1,-7.188415527E-2,-1.823678911E-1
6.128175578E2,1.124048233E-2,4.774618149E-2,-1.285274327E-2
6.133175578E2,2.235174179E-2,-4.199886322E-2,-2.826529741E-2
6.138175578E2,-3.300571442E-2,1.407470703E-1,-6.822974086E-1
6.143175578E2,1.781659842E0,-3.855285645E-1,-1.499190211E0
6.148175578E2,-1.848384023E0,1.217613220E-1,2.908754349E-2
6.153175578E2,-3.671009541E-1,-1.774187088E-1,-3.114485741E-2
6.158175578E2,-1.952316761E-1,-1.311569214E-1,4.478871822E-2
6.163175578E2,1.553359032E-1,-1.468944550E-2,-2.695010900E-1
6.168175578E2,-1.649906635E-1,-1.299734116E-1,-1.320592165E-1
6.173175578E2,7.208585739E-2,1.963615417E-2,4.649162292E-3
6.178175578E2,-5.775046349E-2,2.635955811E-2,-1.891589165E-2
6.183175578E2,-1.990866661E-2,1.897811890E-4,3.381502628E-2
6.188175578E2,4.818010330E-2,-3.113746643E-3,-2.840542793E-2
6.193175578E2,7.306671143E-2,-4.511833191E-3,5.151569843E-2
6.198175578E2,4.754652977E-1,8.156681061E-2,2.012693882E-1
6.203175578E2,8.242523670E-2,2.237796783E-2,1.359341145E-1
6.208175578E2,-3.602385521E-3,5.364418030E-3,7.896780968E-2
6.213175578E2,-4.165613651E-2,1.322746277E-3,8.420252800E-2
6.218175578E2,-1.199114323E-2,8.010864258E-3,2.268815041E-2
6.223175578E2,5.797374249E-2,1.316261292E-2,7.208871841E-2
6.228175578E2,1.180999279E-1,3.492355347E-2,6.356072426E-2
6.233175578E2,6.239295006E-2,-1.353263855E-3,1.830148697E-2
6.238175578E2,-1.221907139E-2,-1.751232147E-2,2.664828300E-2
6.243175578E2,-5.763518810E-2,-3.848075867E-3,5.673408508E-3
6.248175578E2,-4.562091827E-2,5.906105042E-3,4.841899872E-2
6.253175578E2,-8.691895008E-2,4.119873047E-4,7.338786125E-2
6.258175578E2,9.362959862E-2,5.747795105E-3,-1.047346592E-1
6.263175578E2,-6.201410294E-2,2.215385437E-3,-1.146025658E-1
6.268175578E2,7.572531700E-3,-1.758861542E-2,-5.982947350E-2
6.273175578E2,-4.280090332E-2,1.658344269E-2,-3.700351715E-2
6.278175578E2,-5.695736408E-2,-6.879806519E-2,-5.211150646E-2
6.283175578E2,-4.357182980E-2,-2.158260345E-2,-3.509545326E-2
6.288175578E2,-6.897842884E-2,-4.282474518E-2,-1.170454025E-1
6.293175578E2,-6.209397316E-2,-2.219295502E-2,-1.048599482E-1
6.298175578E2,-4.094192982E-1,-3.971548080E-1,2.301436663E-1
6.303175578E2,-1.724015713E0,-3.195235729E0,5.589674711E-1
6.308175578E2,-1.351077080E0,-1.764601469E0,-1.000181437E-1
6.313175578E2,2.464798927E0,-3.210378408E0,-3.130104065E0
6.318175578E2,-7.090992928E-1,8.703441620E-1,1.056926727E0
6.323175578E2,-1.088654995E0,1.566784620E0,9.064035416E-1
6.328175578E2,1.748076916E0,5.004682541E-1,-1.769189835E-1
6.333175578E2,-1.694463253E0,1.450990200E0,1.175272465E0
6.338175578E2,2.397303581E-1,5.146662593E-1,8.208346367E-1
6.343175578E2,1.881279945E-1,1.862120628E-2,1.125812531E-3
6.348175578E2,6.793737411E-2,4.751007557E-1,2.937126160E-1
6.353175578E2,2.043023109E-1,9.545373917E-1,1.310524940E-1
6.358175578E2,-1.306905746E-1,-2.231195211E0,5.343711376E-1
6.363175578E2,1.361820221E0,-3.217468262E-1,1.203999281E0
6.368175578E2,4.162831783E0,2.447520256E0,3.387159824E0
6.373175578E2,-1.735936642E0,-1.647320628E0,7.441294193E-2
6.378175578E2,-1.737051010E-1,2.151358128E0,1.153959274E0
6.383175578E2,9.757614136E-1,5.999991894E-1,-2.184346676E0
6.388175578E2,4.466238022E-1,3.195328712E-1,3.329390287E-1
6.393175578E2,6.949567795E-1,5.860791206E-1,-4.027557373E-2
6.398175578E2,4.806976318E-1,3.342418671E-1,-3.687102795E-1
6.403175578E2,1.351851463E0,-1.781365871E0,-2.168273211E0
6.408175578E2,-3.481502533E-1,1.297113895E0,4.278743267E-1
6.413175578E2,-3.075256348E-1,6.942631006E-1,-1.102129459E0
6.418175578E2,1.534690857E-1,1.438456774E-1,4.548501968E-1
6.423175578E2,2.980375290E-1,-1.859629154E-1,-2.675635815E-1
6.428175578E2,1.083827019E-1,3.633541584E0,-2.309856415E-1
6.433175578E2,-3.830385208E-1,-3.007887363E0,9.660663605E-1
6.438175578E2,-8.640527725E-1,1.651281834E0,-1.864824295E-1
6.443175578E2,-6.639480591E-3,6.242167950E-2,9.851536751E-1
6.448175578E2,-1.467294693E-1,4.999887943E-2,2.972865105E-1
6.453175578E2,-3.256301880E-1,-5.658652782E-1,1.945422888E0
6.458175578E2,1.151299477E0,1.918758869E0,-2.165011883E0
6.463175578E2,1.678540707E0,1.455175877E0,-1.091691494E0
6.468175578E2,-6.169915199E-1,-9.773001671E-1,-2.190189362E-1
6.473175578E2,-5.728416443E-1,-2.084755898E-2,1.100588799E0
6.478175578E2,9.655208588E-1,7.429256439E-1,-8.536874652E-1
6.483175578E2,-2.625093460E-1,5.890431404E-1,-5.290088058E-1
6.488175578E2,1.483505726E0,-3.311944008E-1,-1.350692064E-1
6.493175578E2,1.164376259E0,1.026988029E-1,-1.893104553E0
6.498175578E2,5.692958832E-3,7.148084641E-1,-6.128687859E-1
6.503175578E2,7.188191414E-1,2.667531967E-1,-5.591481328E-1
6.508175578E2,6.537952423E-1,6.449499130E-1,-3.857175708E-1
6.513175578E2,2.899360657E-1,2.285318375E-1,-1.509354115E-1
6.518175578E2,3.725976944E-1,5.631060600E-1,2.554981709E-1
6.523175578E2,5.504713058E-1,1.100129604E0,3.547718823E-1
6.528175578E2,-9.572029114E-2,8.092737198E-2,-1.170767903E0
6.533175578E2,-6.977424622E-1,-1.045454025E0,3.377342224E-2
6.538175578E2,6.107368469E-1,-3.287320137E-1,-4.359989166E-1
6.543175578E2,8.039855957E-1,3.140673637E-1,3.141218424E-1
6.548175578E2,1.107778549E-1,2.472081184E-1,-6.563426256E-1
6.553175578E2,1.018741608E0,1.828285933E0,-5.615710020E-1
6.558175578E2,-2.063717842E-1,1.243400574E-2,-1.065029144E0
6.563175578E2,-7.800922394E-1,-3.240447044E-1,-9.658166170E-1
6.568175578E2,-9.122896194E-1,-8.328418732E-1,2.835821509E-1
6.573175578E2,-9.051942825E-2,-2.055277824E-1,6.232696176E-1
6.578175578E2,-4.164662361E-1,-5.614404678E-1,-6.337333471E-2
6.583175578E2,6.139326096E-2,-9.483814240E-2,2.652868032E-1
6.588175578E2,2.168798447E-1,-2.544722557E-1,-6.410243362E-2
6.593175578E2,-2.494945526E-1,-6.924247742E-2,-3.343529105E-1
6.598175578E2,-4.488372803E-2,-1.571273804E-2,-1.993820071E-2
6.603175578E2,7.154798508E-2,3.785419464E-2,5.803316832E-3
6.608175578E2,-9.927940369E-2,-1.554045677E-1,-3.164521158E-1
6.613175578E2,1.653065681E-1,8.168363571E-2,2.089513838E-1
6.618175578E2,-6.355810165E-2,1.940875053E-1,-1.721618026E-1
6.623175578E2,9.624528885E-2,-1.312251091E-1,1.121156961E-1
6.628175578E2,1.105875969E-1,3.028879166E-1,-9.346746653E-2
6.633175578E2,2.007131577E-1,2.614650726E-1,1.848055422E-1
6.638175578E2,3.275132179E-1,9.876298904E-2,6.571006775E-2
6.643175578E2,5.907821655E-2,-2.543692589E-1,7.600910962E-2
6.648175578E2,-3.048229218E-2,1.409673691E-1,-3.534466028E-3
6.653175578E2,-1.472754478E-1,8.912897110E-2,-5.518203974E-2
6.658175578E2,1.255702972E-2,-4.287242889E-2,-1.328730732E-1
6.663175578E2,1.287984848E-2,1.955304146E-1,-9.004682302E-3
6.668175578E2,-2.057123184E-2,5.990171432E-2,-1.180021763E-1
6.673175578E2,4.236044884E-1,2.653040886E-1,3.096269071E-1
6.678175578E2,2.528843880E-1,2.430768013E-1,-3.167545795E-2
6.683175578E2,-7.873725891E-2,-4.278388023E-1,-2.438554168E-1
6.688175578E2,-6.930875778E-2,-7.663965225E-2,-1.354944706E-1
6.693175578E2,-1.386294365E-1,-1.011910439E-1,-1.077141166E-1
6.698175578E2,2.969551086E-2,-1.218795776E-3,-1.376863718E-1
6.703175578E2,-1.625781059E-1,4.629659653E-2,-8.814871311E-2
6.708175578E2,-2.896928787E-2,-4.111814499E-2,-1.911032200E-1
6.713175578E2,3.437042236E-3,4.280281067E-2,-1.952735186E-1
6.718175578E2,-6.242513657E-2,4.021930695E-2,-1.101595163E-1
6.723175578E2,-1.691017151E-1,-1.417589188E-1,-7.554984093E-2
6.728175578E2,-3.744125366E-3,6.105804443E-2,1.945904493E-1
6.733175578E2,3.109598160E-2,7.260847092E-2,-9.254181385E-2
6.738175578E2,6.456136703E-2,2.825450897E-2,3.364771605E-2
6.743175578E2,2.054643631E-2,-5.590438843E-3,6.831240654E-2
6.748175578E2,5.130529404E-2,2.280712128E-2,3.206896782E-2
6.753175578E2,2.973985672E-2,9.515762329E-3,-2.923846245E-3
6.758175578E2,-2.988195419E-2,-4.207706451E-2,-1.790684462E-2
6.763175578E2,9.191179276E-2,4.377365112E-3,5.514222383E-2
6.768175578E2,-1.793098450E-2,-1.104640961E-2,-1.762014627E-2
6.773175578E2,7.040500641E-3,1.862049103E-2,-5.267715454E-2
6.778175578E2,1.697301865E-2,1.888561249E-2,-1.095163822E-2
6.783175578E2,2.103424072E-2,4.016876221E-3,-1.840621233E-2
6.788175578E2,-5.505800247E-2,-1.572132111E-2,-8.438819647E-2
6.793175578E2,-6.531190872E-2,-6.611824036E-3,-1.489901543E-1
6.798175578E2,6.553077698E-2,3.994846344E-2,-1.736265421E-2
6.803175578E2,-5.802202225E-2,-4.812812805E-2,-9.675979614E-2
6.808175578E2,-1.008591652E-1,-2.883148193E-2,-6.466645002E-2
6.813175578E2,4.113721848E-2,5.195140839E-2,-5.736476183E-2
6.818175578E2,1.126718521E-2,2.046489716E-2,2.857959270E-2
6.823175578E2,-3.270006180E-2,4.200935364E-3,-1.880878210E-2
6.828175578E2,1.404681206E-1,3.066730499E-2,-2.567648590E-1
6.833175578E2,2.394480705E-1,1.034708023E-1,1.051747203E-1
6.838175578E2,-2.517094612E-1,-2.365550995E-1,2.350639999E-1
6.843175578E2,1.898779869E-1,-4.078197479E-1,7.761123180E-1
6.848175578E2,-2.848156929E0,-2.316696644E0,1.679959297E0
6.853175578E2,-1.371417046E-1,-1.633734703E-1,-3.337097645E0
6.858175578E2,3.540084362E0,-7.018057346E0,-3.751829624E0
6.863175578E2,-1.769752502E-1,4.341871738E-1,-1.873416901E-1
