"Time (s)","Acceleration x (m/s^2)","Acceleration y (m/s^2)","Acceleration z (m/s^2)"
0.000000000E0,3.200400352E0,5.833701611E0,7.274180889E0
1.440823200E-2,3.494717360E0,5.865406513E0,7.361518860E0
5.144082320E-1,3.369094372E0,1.028913736E0,1.053320503E1
1.014408232E0,3.871587038E0,3.858426511E-1,7.549953461E0
1.514408232E0,3.795016766E0,-1.947757602E0,9.373882294E0
2.014408232E0,4.235296249E0,-1.034895778E0,9.650852203E0
2.514408232E0,3.858426571E0,-7.256234884E-1,9.139386177E0
3.014408232E0,4.471587181E0,-7.896314859E-1,9.029315948E0
3.514408232E0,4.145565033E0,-9.726824164E-1,9.041878700E0
4.014408232E0,3.949353695E0,-5.132604837E-1,8.971290588E0
4.514408232E0,4.138386726E0,-5.132604837E-1,8.821140289E0
5.014408232E0,4.348955154E0,-3.511467278E-1,8.714659691E0
5.514408232E0,4.405784607E0,-2.596212626E-1,9.046664238E0
6.014408232E0,4.353740692E0,2.297109663E-1,8.883354187E0
6.514408232E0,4.499702930E0,-2.662015259E-1,9.101100922E0
7.014408232E0,4.582853794E0,-1.740778536E-1,8.947959900E0
7.514408232E0,5.091926575E0,-8.721838593E-1,9.108877182E0
8.014408232E0,4.841278553E0,-8.422735929E-1,8.276175499E0
8.514408232E0,5.168497086E0,-1.174277663E0,9.236295700E0
9.014408232E0,4.953142643E0,-1.048056364E0,8.775078773E0
9.514408232E0,4.454239368E0,-9.176474810E-1,8.020741463E0
1.001440823E1,4.474578381E0,-7.561319470E-1,7.164111137E0
1.051440823E1,4.428516388E0,-7.351947427E-1,1.008156013E1
1.101440823E1,3.835096598E0,-1.003789067E0,6.256632805E0
1.151440823E1,5.659623623E0,-1.429113269E0,9.976275444E0
1.201440823E1,5.097908497E0,-8.901300430E-1,8.668000221E0
1.251440823E1,4.788636208E0,-1.284347534E0,8.796015739E0
1.301440823E1,4.999204636E0,-1.561915040E0,7.808976650E0
1.351440823E1,5.777470112E0,-8.548358679E-1,8.290532112E0
1.401440823E1,4.911268711E0,-3.412165165E0,1.204187965E1
1.451440823E1,2.455035925E0,-7.148557901E-1,4.150949001E0
1.501440823E1,4.313062668E0,-2.837887764E0,1.294876003E1
1.551440823E1,3.856033802E0,-9.487541914E-1,6.206982136E0
1.601440823E1,4.083950043E0,-3.075973511E0,9.834501266E0
1.651440823E1,3.412165165E0,-2.201396942E0,7.637889862E0
1.701440823E1,4.281357765E0,-2.395813704E0,9.464211464E0
1.751440823E1,3.917648792E0,-2.191825628E0,8.333004951E0
1.801440823E1,4.254438877E0,-2.624328136E0,9.531808853E0
1.851440823E1,3.287738323E0,-2.249253273E0,7.612765312E0
1.901440823E1,3.667000771E0,-2.571087837E0,9.150154114E0
1.951440823E1,4.369294167E0,-2.346162558E0,8.916853905E0
2.001440823E1,3.649652719E0,-2.166102648E0,7.794619560E0
2.051440823E1,4.281956196E0,-2.572882652E0,8.535796165E0
2.101440823E1,4.265804768E0,-3.566502094E0,1.132582760E1
2.151440823E1,4.696512699E0,-2.738585472E0,9.159725189E0
2.201440823E1,3.196810961E0,-2.907877684E0,7.428517818E0
2.251440823E1,3.394817114E0,-2.943171740E0,7.981259823E0
2.301440823E1,3.712464333E0,-3.260818958E0,8.587242126E0
2.351440823E1,3.888935089E0,-2.925225735E0,8.275577545E0
2.401440823E1,3.116651535E0,-3.628715515E0,8.111668587E0
2.451440823E1,3.418745279E0,-3.504886866E0,8.505886078E0
2.501440823E1,3.343969584E0,-3.613162279E0,8.499305725E0
2.551440823E1,3.156731367E0,-3.468396425E0,8.271389961E0
2.601440823E1,3.689732552E0,-4.142574310E0,8.888737679E0
2.651440823E1,3.654438496E0,-2.541177750E0,8.380861282E0
2.701440823E1,3.823730469E0,-3.352942705E0,8.702097893E0
2.751440823E1,3.825525284E0,-3.050250769E0,8.379665375E0
2.801440823E1,3.858426571E0,-3.305684566E0,8.749954224E0
2.851440823E1,3.844069481E0,-3.152543783E0,8.785248756E0
2.901440823E1,3.796811342E0,-2.907877684E0,8.636295319E0
2.951440823E1,3.573680639E0,-3.279961586E0,8.556734085E0
3.001440823E1,3.688536167E0,-3.165106058E0,8.438887596E0
3.051440823E1,3.838087559E0,-3.034099102E0,8.568099976E0
3.101440823E1,3.480958700E0,-1.841277003E0,8.617152214E0
3.151440823E1,4.045664787E0,-2.329412937E0,8.507082939E0
3.201440823E1,4.097708702E0,-2.312663078E0,8.937790871E0
3.251440823E1,3.780659676E0,-1.972882271E0,8.697312355E0
3.301440823E1,4.095315933E0,-2.324028969E0,8.840881348E0
3.351440823E1,4.022933006E0,-2.204387903E0,8.633303642E0
3.401440823E1,3.954737663E0,-2.262413740E0,8.909076691E0
3.451440823E1,4.133601189E0,-2.177468538E0,8.755936623E0
3.501440823E1,4.144368649E0,-2.204986095E0,8.669795036E0
3.551440823E1,3.855435371E0,-2.227119684E0,8.744570732E0
3.601440823E1,3.878167391E0,-2.224128723E0,8.632107735E0
3.651440823E1,3.922434568E0,-2.147558212E0,8.719446182E0
3.701440823E1,3.841676712E0,-2.261815548E0,8.706285477E0
3.751440823E1,4.095315933E0,-2.260020971E0,8.755936623E0
3.801440823E1,3.884747505E0,-2.269592285E0,8.877371788E0
3.851440823E1,4.023531437E0,-2.145763636E0,8.698508263E0
3.901440823E1,3.791427374E0,-2.248056889E0,8.746364594E0
3.951440823E1,3.927220106E0,-2.166700840E0,8.730812073E0
4.001440823E1,3.783650875E0,-2.265404940E0,8.818149567E0
4.051440823E1,4.004388809E0,-2.252244234E0,8.832506180E0
4.101440823E1,3.961317778E0,-2.243271112E0,8.826524734E0
4.151440823E1,4.080360889E0,-2.166102648E0,8.727820396E0
4.201440823E1,3.772883177E0,-2.237887383E0,8.735597610E0
4.251440823E1,4.180859566E0,-2.346162558E0,8.941379547E0
4.301440823E1,3.972085476E0,-2.188236237E0,8.773283958E0
4.351440823E1,3.902095556E0,-2.094317913E0,8.787641525E0
4.401440823E1,3.824927092E0,-2.159522533E0,8.730812073E0
4.451440823E1,4.281956196E0,-2.159522533E0,8.899505615E0
4.501440823E1,3.793222189E0,-1.987837434E0,8.681160927E0
4.551440823E1,4.104289055E0,-2.166700840E0,8.846863747E0
4.601440823E1,3.922434568E0,-1.899901152E0,8.766105652E0
4.651440823E1,4.412364960E0,-1.512263894E0,8.730812073E0
4.701440823E1,4.368097782E0,-1.447059512E0,8.826524734E0
4.751440823E1,3.869792461E0,-1.753340840E0,8.893523216E0
4.801440823E1,4.141377926E0,-1.838884234E0,8.986245155E0
4.851440823E1,3.982853174E0,-1.406979680E0,8.924032211E0
4.901440823E1,3.942175388E0,-9.984052777E-1,8.746963501E0
4.951440823E1,4.321437836E0,-1.074975610E0,8.770293236E0
5.001440823E1,5.047659397E0,-1.767099500E0,9.172885895E0
5.051440823E1,4.540380955E0,-8.883354068E-1,8.528019905E0
5.101440823E1,4.913661480E0,-1.252642632E0,8.721240044E0
5.151440823E1,4.820939541E0,-1.213759303E0,8.861818314E0
5.201440823E1,5.031507969E0,-1.200000525E0,8.543573380E0
5.251440823E1,4.832305431E0,-1.526620865E0,9.053244591E0
5.301440823E1,4.970490932E0,-1.551745534E0,8.038687706E0
5.351440823E1,5.639284611E0,-1.901097536E0,8.612964630E0
5.401440823E1,5.138586521E0,-1.518844128E0,7.642675400E0
5.451440823E1,5.047060966E0,-1.807777524E0,9.154939651E0
5.501440823E1,4.106083870E0,-1.459621787E0,7.366304398E0
5.551440823E1,5.305486202E0,-2.679961443E0,8.892925262E0
5.601440823E1,4.457230568E0,-2.938386202E0,8.592027664E0
5.651440823E1,4.116851330E0,-2.827120066E0,7.290332317E0
5.701440823E1,4.164707661E0,-2.600399971E0,7.577471256E0
5.751440823E1,4.007379532E0,-4.396811485E0,8.620143890E0
5.801440823E1,3.915854216E0,-3.748954773E0,8.056035995E0
5.851440823E1,3.457030535E0,-3.506083488E0,8.047660828E0
5.901440823E1,3.487539053E0,-3.781856298E0,8.419744492E0
5.951440823E1,3.740580082E0,-3.561716557E0,8.477172852E0
6.001440823E1,3.750749588E0,-3.544966698E0,8.437092781E0
6.051440823E1,4.107280254E0,-3.578466177E0,8.359326363E0
6.101440823E1,4.182653904E0,-3.528217077E0,8.316255569E0
6.151440823E1,3.921238184E0,-3.448655605E0,8.363512993E0
6.201440823E1,4.233501434E0,-3.065804005E0,8.289934158E0
6.251440823E1,4.217947960E0,-2.288734913E0,8.382656097E0
6.301440823E1,4.399802685E0,-2.402393818E0,8.612964630E0
6.351440823E1,4.356731892E0,-1.692323804E0,8.550153732E0
6.401440823E1,4.399204254E0,-1.878963947E0,8.919246674E0
6.451440823E1,4.112663746E0,-1.256830096E0,8.689535141E0
6.501440823E1,3.740580082E0,-1.183250785E0,8.940781593E0
6.551440823E1,3.184248686E0,-1.232901812E0,8.894720078E0
6.601440823E1,4.080958843E0,-1.730608940E0,9.722636223E0
6.651440823E1,2.662015200E0,-1.750349760E0,9.171091080E0
6.701440823E1,3.109472990E0,-2.006979942E0,9.336793900E0
6.751440823E1,3.099303484E0,-2.123630047E0,8.880961418E0
6.801440823E1,3.428316593E0,-2.233101845E0,9.304491043E0
6.851440823E1,3.391227961E0,-2.111665964E0,9.312865257E0
6.901440823E1,4.774279594E0,-1.933400750E0,8.626724243E0
6.951440823E1,4.782055855E0,-1.582852125E0,8.015955925E0
7.001440823E1,4.152743816E0,-1.199402332E0,8.997013092E0
7.051440823E1,4.677370071E0,-1.554138303E0,8.376673698E0
7.101440823E1,4.487739086E0,-1.561915040E0,9.010173798E0
7.151440823E1,4.678566456E0,-1.469193101E0,8.734998703E0
7.201440823E1,4.530211449E0,-1.478764415E0,7.810173035E0
7.251440823E1,4.549354076E0,-1.587039590E0,8.652446747E0
7.301440823E1,4.375276089E0,-1.532602906E0,8.414958954E0
7.351440823E1,4.088735580E0,-1.947757602E0,8.414361000E0
7.401440823E1,5.101497650E0,-1.486541033E0,8.754141808E0
7.451440823E1,5.204987526E0,-1.413560033E0,8.903095245E0
7.501440823E1,4.713860512E0,-1.725823283E0,8.474181175E0
7.551440823E1,4.963910580E0,-1.959123492E0,9.344570160E0
7.601440823E1,4.545166492E0,-1.570888042E0,8.404789925E0
7.651440823E1,4.658227444E0,-1.657627940E0,8.314460754E0
7.701440823E1,4.992624283E0,-1.858624935E0,8.854640007E0
7.751440823E1,4.750350952E0,-1.960319996E0,8.540582657E0
7.801440823E1,4.012165546E0,-2.094916344E0,7.585247993E0
7.851440823E1,4.380061626E0,-2.752942562E0,9.689137459E0
7.901440823E1,4.018147469E0,-1.936989903E0,7.222734928E0
7.951440823E1,4.597210407E0,-2.726023197E0,9.086744308E0
8.001440823E1,3.383451223E0,-1.560120344E0,6.226124287E0
8.051440823E1,4.883152962E0,-3.289532900E0,9.217152596E0
8.101440823E1,4.779065132E0,-2.885744095E0,8.422736168E0
8.151440823E1,3.946960926E0,-3.246462107E0,8.156534195E0
8.201440823E1,4.247858524E0,-3.573680639E0,8.555537224E0
8.251440823E1,4.607379913E0,-3.163311481E0,7.920242786E0
8.301440823E1,4.597210407E0,-3.862015724E0,8.692526817E0
8.351440823E1,4.800002098E0,-3.142972469E0,7.531409264E0
8.401440823E1,5.189434052E0,-3.466601849E0,7.403393269E0
8.451440823E1,5.141577721E0,-3.933800459E0,7.561319351E0
8.501440823E1,5.178068161E0,-4.354937077E0,7.655237675E0
8.551440823E1,5.136193752E0,-4.539782524E0,8.030312538E0
8.601440823E1,4.184448719E0,-3.791427374E0,7.619943619E0
8.651440823E1,4.975874901E0,-3.308675528E0,8.672785759E0
8.701440823E1,3.276372433E0,-2.630908489E0,8.280961037E0
8.751440823E1,3.872783422E0,-2.941975355E0,8.912068367E0
8.801440823E1,4.417150497E0,-2.714657307E0,8.126026154E0
8.851440823E1,4.368097782E0,-2.716451883E0,8.598010063E0
8.901440823E1,3.686143398E0,-1.817348838E0,8.263014793E0
8.951440823E1,4.256233215E0,-2.385046005E0,8.804390907E0
9.001440823E1,4.516452789E0,-2.136192322E0,8.127820015E0
9.051440823E1,5.435296535E0,-2.431107759E0,8.215158463E0
9.101440823E1,5.176871777E0,-2.090130568E0,8.127222061E0
9.151440823E1,4.796412945E0,-1.820339799E0,8.060821533E0
9.201440823E1,5.453841209E0,-2.029113531E0,8.614161491E0
9.251440823E1,4.980062008E0,-1.671386600E0,8.315656662E0
9.301440823E1,5.125426292E0,-1.708475351E0,8.319246292E0
9.351440823E1,5.005784988E0,-1.480558991E0,8.236095428E0
9.401440823E1,4.801796913E0,-1.546959877E0,8.300103188E0
9.451440823E1,4.712664127E0,-1.957328916E0,8.291728973E0
9.501440823E1,5.108078003E0,-1.978266120E0,8.359326363E0
9.551440823E1,4.568496704E0,-2.104487419E0,8.067401886E0
9.601440823E1,4.718646049E0,-2.748754978E0,8.440083504E0
9.651440823E1,4.482953072E0,-3.330809116E0,8.504091263E0
9.701440823E1,5.104488850E0,-2.864806890E0,8.109873772E0
9.751440823E1,4.496711731E0,-2.798406124E0,8.515457153E0
9.801440823E1,4.346562386E0,-3.537788391E0,8.286943436E0
9.851440823E1,4.224528313E0,-3.638885021E0,8.239086151E0
9.901440823E1,4.378865242E0,-3.775874138E0,8.443074226E0
9.951440823E1,4.835296154E0,-4.005585194E0,8.550153732E0
1.000144082E2,3.965505362E0,-3.691527128E0,8.654241562E0
1.005144082E2,4.516452789E0,-3.501297712E0,7.998009682E0
1.010144082E2,4.366302967E0,-3.487539053E0,8.292326927E0
1.015144082E2,4.505086899E0,-3.156731367E0,8.103293419E0
1.020144082E2,4.097708702E0,-2.804388046E0,8.365307808E0
1.025144082E2,4.594219685E0,-3.083152056E0,8.497511864E0
1.030144082E2,4.307080746E0,-3.195614576E0,7.996813297E0
1.035144082E2,4.404588223E0,-3.772883177E0,8.246863365E0
1.040144082E2,4.158725739E0,-3.646661758E0,7.944170952E0
1.045144082E2,4.561916351E0,-3.764508247E0,8.498109818E0
1.050144082E2,4.894518852E0,-2.131406784E0,8.261219978E0
1.055144082E2,4.328018188E0,-2.453241348E0,8.888737679E0
1.060144082E2,4.519443989E0,-2.456830740E0,8.162516594E0
1.065144082E2,4.593023300E0,-2.605185747E0,8.325227737E0
1.070144082E2,4.303491592E0,-2.568695068E0,8.371888161E0
1.075144082E2,4.414159775E0,-2.662015200E0,8.431110382E0
1.080144082E2,4.583451748E0,-2.729612350E0,8.544171333E0
1.085144082E2,4.409373760E0,-2.510669231E0,8.392825127E0
1.090144082E2,4.555934429E0,-2.656033039E0,8.320442200E0
1.095144082E2,4.384847641E0,-2.529811859E0,8.280961037E0
1.100144082E2,4.421936035E0,-2.629113913E0,8.409575462E0
1.105144082E2,4.367499352E0,-2.659622431E0,8.373085022E0
1.110144082E2,4.534996986E0,-2.620738983E0,8.344968796E0
1.115144082E2,4.484149456E0,-2.763111830E0,8.426324844E0
1.120144082E2,4.542773724E0,-2.611765862E0,8.307880402E0
1.125144082E2,4.506881237E0,-2.583052158E0,8.356932640E0
1.130144082E2,4.481158733E0,-2.584248543E0,8.282755852E0
1.135144082E2,4.332803726E0,-2.678166628E0,8.361719131E0
1.140144082E2,4.537988186E0,-2.623729944E0,8.402397156E0
1.145144082E2,4.512863636E0,-2.684746981E0,8.580661774E0
1.150144082E2,4.402793884E0,-2.614757061E0,8.420941353E0
1.155144082E2,4.533800602E0,-2.699103832E0,8.331808090E0
1.160144082E2,4.552345276E0,-2.604587555E0,8.225327492E0
1.165144082E2,4.341776848E0,-2.676970243E0,8.370093346E0
1.170144082E2,4.594219685E0,-2.640479803E0,8.374878883E0
1.175144082E2,4.506881237E0,-2.645265341E0,8.490931511E0
1.180144082E2,4.597210407E0,-2.518445730E0,8.378468513E0
1.185144082E2,4.557130814E0,-2.605185747E0,8.500502586E0
1.190144082E2,4.670789719E0,-2.451446772E0,8.148757935E0
1.195144082E2,4.721637249E0,-2.056032896E0,8.797212601E0
1.200144082E2,4.645665169E0,-1.815554142E0,8.267800331E0
1.205144082E2,4.725226402E0,-1.958525300E0,8.691927910E0
1.210144082E2,4.340580463E0,-1.333400369E0,8.490931511E0
1.215144082E2,4.746163845E0,-1.317248821E0,8.888737679E0
1.220144082E2,4.601995945E0,-1.458425403E0,8.526823044E0
1.225144082E2,4.916054249E0,-1.743769526E0,9.344570160E0
1.230144082E2,4.729413986E0,-1.367498159E0,8.451449394E0
1.235144082E2,5.018945694E0,-1.317847013E0,8.480163574E0
1.240144082E2,4.959125042E0,-1.328614831E0,8.679366112E0
1.245144082E2,4.895715237E0,-1.484746456E0,8.995218277E0
1.250144082E2,4.938786030E0,-1.531406522E0,8.653642654E0
1.255144082E2,4.583451748E0,-2.169093609E0,8.065009117E0
1.260144082E2,4.610371113E0,-1.395613790E0,7.531409264E0
1.265144082E2,5.313262463E0,-1.972882271E0,9.077172279E0
1.270144082E2,5.026124001E0,-1.802393675E0,8.416753769E0
1.275144082E2,4.076173306E0,-1.590030670E0,8.018946648E0
1.280144082E2,4.601995945E0,-1.721037745E0,7.787441254E0
1.285144082E2,4.638486862E0,-2.282752752E0,8.443074226E0
1.290144082E2,4.688735962E0,-2.304886341E0,8.812167168E0
1.295144082E2,4.377070904E0,-2.355733871E0,8.232506752E0
1.300144082E2,5.369493961E0,-3.539582968E0,8.934800148E0
1.305144082E2,3.980460405E0,-2.817548752E0,7.679165840E0
1.310144082E2,4.693521500E0,-2.770888567E0,8.474181175E0
1.315144082E2,4.474578381E0,-2.733799934E0,8.489734650E0
1.320144082E2,4.512863636E0,-3.154936552E0,8.610571861E0
1.325144082E2,3.940380573E0,-2.499901533E0,7.634300709E0
1.330144082E2,4.340580463E0,-3.222533941E0,8.590232849E0
1.335144082E2,4.590630054E0,-3.592823267E0,7.811967850E0
1.340144082E2,3.997210264E0,-3.257229805E0,7.671389580E0
1.345144082E2,3.635894060E0,-3.719642878E0,8.558527946E0
1.350144082E2,3.562314749E0,-3.362514019E0,8.425726891E0
1.355144082E2,3.466003656E0,-2.815155745E0,8.684749603E0
1.360144082E2,3.377469063E0,-2.707478762E0,8.853444099E0
1.365144082E2,3.286541939E0,-2.571686029E0,8.627322197E0
1.370144082E2,3.757927895E0,-2.511267424E0,8.831310272E0
1.375144082E2,4.231706619E0,-2.516052961E0,7.912466049E0
1.380144082E2,5.075775146E0,-2.464607239E0,7.832904816E0
1.385144082E2,4.311866283E0,-2.132603168E0,8.079963684E0
1.390144082E2,5.549553871E0,-2.824727058E0,8.382656097E0
1.395144082E2,5.376074314E0,-2.059622049E0,7.103094101E0
1.400144082E2,4.579862595E0,-2.078764677E0,8.267800331E0
1.405144082E2,5.098506927E0,-2.288734913E0,8.465806961E0
1.410144082E2,5.420341492E0,-2.370090723E0,8.684749603E0
1.415144082E2,4.875376225E0,-1.899901152E0,8.898308754E0
1.420144082E2,4.274777889E0,-2.008774519E0,7.954938889E0
1.425144082E2,4.662415028E0,-2.187039852E0,8.081758499E0
1.430144082E2,4.517649174E0,-2.359323025E0,7.800601959E0
1.435144082E2,4.380061626E0,-2.773879766E0,8.180462837E0
1.440144082E2,5.106283665E0,-3.463610888E0,7.775477409E0
1.445144082E2,5.042275429E0,-2.683550596E0,7.666603565E0
1.450144082E2,5.511268616E0,-3.377469063E0,7.246663570E0
1.455144082E2,4.431507587E0,-2.984447956E0,8.163114548E0
1.460144082E2,4.217350006E0,-2.788834810E0,7.902894974E0
1.465144082E2,3.723232031E0,-2.571087837E0,9.172885895E0
1.470144082E2,4.495515347E0,-2.632104874E0,8.991030693E0
1.475144082E2,4.053441525E0,-2.466402054E0,8.916853905E0
1.480144082E2,3.363112211E0,-2.295315027E0,8.897710800E0
1.485144082E2,3.762713671E0,-2.422732830E0,9.154939651E0
1.490144082E2,4.131806374E0,-2.787040234E0,9.193224907E0
1.495144082E2,2.846262455E0,-2.371885538E0,9.017950058E0
1.500144082E2,3.726222992E0,-2.622533560E0,9.172286987E0
1.505144082E2,3.889533281E0,-2.517249346E0,8.839086533E0
1.510144082E2,3.885943890E0,-2.310270309E0,8.483752251E0
1.515144082E2,4.039084435E0,-2.673979282E0,9.140582085E0
1.520144082E2,3.472583771E0,-2.405983210E0,8.885746956E0
1.525144082E2,2.909672260E0,-2.635095835E0,9.524630547E0
1.530144082E2,2.391027927E0,-1.936391711E0,8.692526817E0
1.535144082E2,3.252444267E0,-2.394617319E0,9.250652313E0
1.540144082E2,2.671586514E0,-2.353341103E0,8.730812073E0
1.545144082E2,3.030509949E0,-2.295913219E0,9.311669350E0
1.550144082E2,3.308077335E0,-2.827120066E0,9.572486877E0
1.555144082E2,4.832305431E0,-1.758126378E0,8.271389961E0
1.560144082E2,4.121636868E0,-1.677966833E0,7.789834023E0
1.565144082E2,5.011766911E0,-1.899901152E0,8.139185905E0
1.570144082E2,4.374079704E0,-2.044667006E0,8.957531929E0
1.575144082E2,4.185645103E0,-1.724626899E0,7.828119278E0
1.580144082E2,5.453841209E0,-1.969891191E0,8.958727837E0
1.585144082E2,4.366302967E0,-2.135594130E0,8.153543472E0
1.590144082E2,4.418945312E0,-2.191825628E0,8.535796165E0
1.595144082E2,4.597210407E0,-2.014756680E0,8.011170387E0
1.600144082E2,4.504488468E0,-2.113460541E0,8.511868477E0
1.605144082E2,4.935196877E0,-2.161915302E0,8.191229820E0
1.610144082E2,5.207978249E0,-2.153540373E0,8.024331093E0
1.615144082E2,4.897509575E0,-2.300100803E0,8.341380119E0
1.620144082E2,4.615156651E0,-2.146960020E0,8.046463966E0
1.625144082E2,4.967499733E0,-2.301895380E0,8.256434441E0
1.630144082E2,5.315655708E0,-2.474178553E0,8.423932076E0
1.635144082E2,5.821139336E0,-2.595016241E0,8.407182693E0
1.640144082E2,5.675775528E0,-2.666800737E0,8.531010628E0
1.645144082E2,5.609972477E0,-2.740380049E0,8.079365730E0
1.650144082E2,5.763711452E0,-2.770888567E0,8.062017441E0
1.655144082E2,5.341976643E0,-3.064009428E0,8.017151833E0
1.660144082E2,6.040680885E0,-3.255435228E0,7.808378696E0
1.665144082E2,5.339583874E0,-3.266801119E0,7.301698208E0
1.670144082E2,5.492724419E0,-3.262015581E0,7.779664516E0
1.675144082E2,6.052046776E0,-3.148954630E0,7.639086246E0
1.680144082E2,5.605186939E0,-3.193221807E0,7.368697166E0
1.685144082E2,5.542973518E0,-2.973082066E0,7.378268719E0
1.690144082E2,5.970690727E0,-2.671586514E0,7.738388538E0
1.695144082E2,5.154139996E0,-2.710469961E0,7.177271366E0
1.700144082E2,5.694917679E0,-3.001796007E0,7.707880020E0
1.705144082E2,5.203791142E0,-2.858824968E0,7.178467751E0
1.710144082E2,5.688935757E0,-2.960519791E0,7.598408222E0
1.715144082E2,5.584847927E0,-3.040081263E0,7.944170952E0
1.720144082E2,5.666203976E0,-3.048455954E0,7.814958572E0
1.725144082E2,6.016752720E0,-2.924029350E0,7.759325504E0
1.730144082E2,5.937191010E0,-2.868396044E0,7.569694519E0
1.735144082E2,5.905486107E0,-2.903690338E0,8.470592499E0
1.740144082E2,5.117051125E0,-3.044866800E0,7.281957626E0
1.745144082E2,5.535196781E0,-2.774477959E0,7.761120319E0
1.750144082E2,5.511268616E0,-2.116451740E0,8.338388443E0
1.755144082E2,5.397011280E0,-1.877767563E0,8.085946083E0
1.760144082E2,4.872983456E0,-2.102094650E0,8.682954788E0
1.765144082E2,3.731008768E0,-1.731207132E0,8.794221878E0
1.770144082E2,4.455435753E0,-1.922034740E0,8.722436905E0
1.775144082E2,4.777270317E0,-2.097309113E0,9.027522087E0
1.780144082E2,4.430311203E0,-2.231307030E0,9.086744308E0
1.785144082E2,3.767499208E0,-2.542374134E0,8.956933022E0
1.790144082E2,3.349951744E0,-2.944368362E0,8.822935104E0
1.795144082E2,3.391826153E0,-2.691327333E0,8.892925262E0
1.800144082E2,4.313062668E0,-2.767897606E0,8.684151649E0
1.805144082E2,4.193421841E0,-2.651247501E0,8.698508263E0
1.810144082E2,3.783650875E0,-3.185445070E0,8.579465866E0
1.815144082E2,3.881158352E0,-3.011965513E0,8.328219414E0
1.820144082E2,3.789034605E0,-2.981456995E0,8.571090698E0
1.825144082E2,3.598805189E0,-3.011367321E0,8.912666321E0
1.830144082E2,4.131806374E0,-3.090330362E0,8.490931511E0
1.835144082E2,3.735794306E0,-3.132802963E0,8.749356270E0
1.840144082E2,3.608376503E0,-3.215953588E0,8.720642090E0
1.845144082E2,4.109673023E0,-3.263810158E0,8.346165657E0
1.850144082E2,4.191029072E0,-4.917250574E-1,8.644669533E0
1.855144082E2,3.705883980E0,-1.563709617E0,8.282156944E0
1.860144082E2,4.526023865E0,-2.294118643E0,8.830712318E0
1.865144082E2,4.274777889E0,-1.764706731E0,8.435297966E0
1.870144082E2,4.104289055E0,-2.051845312E0,8.837292671E0
1.875144082E2,4.268795490E0,-1.947757602E0,8.524430275E0
1.880144082E2,4.277170658E0,-2.044667006E0,8.761320114E0
1.885144082E2,4.205385685E0,-1.963909149E0,8.649456024E0
1.890144082E2,4.384847641E0,-2.076970100E0,8.769096375E0
1.895144082E2,4.206582069E0,-1.896910191E0,8.526225090E0
1.900144082E2,4.176671982E0,-2.078166485E0,8.749356270E0
1.905144082E2,4.274777889E0,-1.896910191E0,8.614161491E0
1.910144082E2,4.259224415E0,-1.987837434E0,8.682356834E0
1.915144082E2,4.022933006E0,-2.001596212E0,8.886942863E0
1.920144082E2,4.173082829E0,-1.875972986E0,8.614161491E0
1.925144082E2,4.354937077E0,-1.917847395E0,8.749954224E0
1.930144082E2,4.131208420E0,-2.053041935E0,8.708079338E0
1.935144082E2,4.318446636E0,-1.995614052E0,8.668000221E0
1.940144082E2,4.217947960E0,-2.001596212E0,8.581858635E0
1.945144082E2,4.205385685E0,-2.124826431E0,8.663812637E0
1.950144082E2,4.145565033E0,-2.108675003E0,8.767302513E0
1.955144082E2,4.317848682E0,-1.968096614E0,8.589036942E0
1.960144082E2,4.127020836E0,-1.986042738E0,8.636893272E0
1.965144082E2,4.061218262E0,-2.032104731E0,8.658429146E0
1.970144082E2,4.159922123E0,-2.069193363E0,8.602795601E0
1.975144082E2,4.289134502E0,-2.113460541E0,8.654241562E0
1.980144082E2,4.213162422E0,-2.178664923E0,8.714659691E0
1.985144082E2,4.276572227E0,-2.040479422E0,8.650651932E0
1.990144082E2,4.214358807E0,-2.069193363E0,8.500502586E0
1.995144082E2,4.284348965E0,-2.069193363E0,8.589036942E0
2.000144082E2,4.183850288E0,-2.025524378E0,8.595019341E0
2.005144082E2,4.367499352E0,-2.020738840E0,8.809176445E0
2.010144082E2,4.347160339E0,-1.747956991E0,8.767302513E0
2.015144082E2,4.412364960E0,-1.403988719E0,8.845666885E0
2.020144082E2,4.246063709E0,-1.376471281E0,8.847461700E0
2.025144082E2,4.305884361E0,-1.217348576E0,8.776873589E0
2.030144082E2,4.632504463E0,-8.596215248E-1,8.712865829E0
2.035144082E2,4.415356159E0,-8.871390224E-1,8.666803360E0
2.040144082E2,4.294518471E0,-9.475577474E-1,8.577073097E0
2.045144082E2,4.593023300E0,-5.934200287E-1,8.736793518E0
2.050144082E2,5.126622677E0,-1.125823021E0,9.425926208E0
2.055144082E2,4.496711731E0,-8.482556343E-1,8.649456024E0
2.060144082E2,4.677370071E0,-9.918249846E-1,8.462815285E0
2.065144082E2,4.875376225E0,-1.357328653E0,8.879166603E0
2.070144082E2,4.643272400E0,-1.045065284E0,8.234300613E0
2.075144082E2,4.825725079E0,-1.347757339E0,9.181859016E0
2.080144082E2,4.619942188E0,-1.012762189E0,8.690732002E0
2.085144082E2,4.621737003E0,-1.312463164E0,8.538787842E0
2.090144082E2,4.403990269E0,-1.198205948E0,9.299705505E0
2.095144082E2,4.238885403E0,-1.149751306E0,9.004789352E0
2.100144082E2,3.836292982E0,-1.092323542E0,9.138788223E0
2.105144082E2,3.772284985E0,-1.467996716E0,9.193224907E0
2.110144082E2,4.405784607E0,-8.997012973E-1,9.330811501E0
2.115144082E2,3.783650875E0,-8.291130662E-1,8.650651932E0
2.120144082E2,4.310071945E0,-1.190429211E0,9.491728783E0
2.125144082E2,4.164707661E0,-1.299900889E0,8.992227554E0
2.130144082E2,4.061816216E0,-1.357328653E0,8.075178146E0
2.135144082E2,4.300500393E0,-1.266999602E0,9.065806389E0
2.140144082E2,4.299304008E0,-1.285543919E0,9.255437851E0
2.145144082E2,4.234099865E0,-1.309472203E0,8.282755852E0
2.150144082E2,4.956133842E0,-1.402194023E0,9.070592880E0
2.155144082E2,4.688137531E0,-1.529611826E0,9.327222824E0
2.160144082E2,4.255635262E0,-1.532602906E0,8.151748657E0
2.165144082E2,3.960719585E0,-2.812164783E0,8.182256699E0
2.170144082E2,4.256233215E0,-3.022733212E0,9.414560318E0
2.175144082E2,4.078566074E0,-2.687737942E0,8.762516975E0
2.180144082E2,4.138386726E0,-2.685943365E0,8.693722725E0
2.185144082E2,4.406383038E0,-2.461616278E0,8.474181175E0
2.190144082E2,4.692923546E0,-2.523829699E0,8.752944946E0
2.195144082E2,4.187439442E0,-2.126621008E0,8.395816803E0
2.200144082E2,4.710271358E0,-2.487339020E0,9.428917885E0
2.205144082E2,4.570291042E0,-2.477767944E0,8.651249886E0
2.210144082E2,4.918447018E0,-2.481955290E0,8.625527382E0
2.215144082E2,3.946362734E0,-2.606980324E0,7.814958572E0
2.220144082E2,4.130012035E0,-3.211168051E0,8.031509399E0
2.225144082E2,4.006781578E0,-3.300300598E0,8.063812256E0
2.230144082E2,4.144368649E0,-3.318246841E0,7.978867054E0
2.235144082E2,4.222135544E0,-3.341576815E0,7.622336388E0
2.240144082E2,4.582853794E0,-2.346760750E0,7.721040249E0
2.245144082E2,4.761716843E0,-2.431107759E0,8.050651550E0
2.250144082E2,4.173082829E0,-2.317448616E0,8.118248940E0
2.255144082E2,4.147958279E0,-2.731407166E0,9.183652878E0
2.260144082E2,4.080360889E0,-2.314457655E0,8.377870560E0
2.265144082E2,4.007379532E0,-2.332403898E0,9.414560318E0
2.270144082E2,3.423531055E0,-2.067398787E0,8.785248756E0
2.275144082E2,3.609572887E0,-2.073979139E0,8.170292854E0
2.280144082E2,3.975076675E0,-2.405983210E0,8.697312355E0
2.285144082E2,4.519443989E0,-2.212164640E0,8.282156944E0
2.290144082E2,5.333003521E0,-2.501097918E0,9.093922615E0
2.295144082E2,4.558925152E0,-2.388036966E0,8.513663292E0
2.300144082E2,5.511268616E0,-2.442473650E0,8.056035995E0
2.305144082E2,5.337789059E0,-2.413161755E0,8.062616348E0
2.310144082E2,5.521438122E0,-2.381456852E0,7.858029366E0
2.315144082E2,5.459224701E0,-2.472383976E0,7.314260483E0
2.320144082E2,4.919643402E0,-2.475374937E0,8.205587387E0
2.325144082E2,5.898906231E0,-2.537588358E0,7.896314621E0
2.330144082E2,5.127220631E0,-2.378465652E0,7.572685242E0
2.335144082E2,5.181657314E0,-2.319841623E0,7.543373585E0
2.340144082E2,5.513063431E0,-2.434098721E0,8.194221497E0
2.345144082E2,5.401797295E0,-2.389831543E0,7.618747234E0
2.350144082E2,5.452644825E0,-2.331805706E0,7.709674358E0
2.355144082E2,5.178068161E0,-2.340180635E0,8.277371407E0
2.360144082E2,5.079364300E0,-2.303091764E0,8.098507881E0
2.365144082E2,4.801198483E0,-2.295315027E0,7.801798344E0
2.370144082E2,4.967499733E0,-2.396411896E0,8.607581139E0
2.375144082E2,4.902295589E0,-2.238485575E0,8.745168686E0
2.380144082E2,4.656432629E0,-1.893919110E0,8.545966148E0
2.385144082E2,4.275375843E0,-1.792822361E0,8.550751686E0
2.390144082E2,4.683351994E0,-1.865205288E0,8.630312920E0
2.395144082E2,4.493721008E0,-1.837687731E0,7.904689789E0
2.400144082E2,4.715056896E0,-1.933400750E0,8.155936241E0
2.405144082E2,4.506881237E0,-1.998605132E0,8.469395638E0
2.410144082E2,4.232305050E0,-1.764108539E0,8.185248375E0
2.415144082E2,4.069592953E0,-1.946561217E0,8.660223007E0
2.420144082E2,4.590630054E0,-1.923829436E0,8.745168686E0
2.425144082E2,4.815555573E0,-2.068595171E0,8.501100540E0
2.430144082E2,4.354937077E0,-1.896311998E0,8.277371407E0
2.435144082E2,4.789234638E0,-2.148754835E0,8.818149567E0
2.440144082E2,4.964509010E0,-2.133201361E0,9.059226990E0
2.445144082E2,4.717449665E0,-2.158325911E0,8.500502586E0
2.450144082E2,4.485944271E0,-1.858624935E0,8.392227173E0
2.455144082E2,4.310071945E0,-2.185245275E0,8.151150703E0
2.460144082E2,4.001996040E0,-2.520838737E0,8.289934158E0
2.465144082E2,4.913661480E0,-2.709871531E0,9.229715347E0
2.470144082E2,4.206582069E0,-2.236092806E0,8.020741463E0
2.475144082E2,4.131208420E0,-2.364108801E0,7.872386456E0
2.480144082E2,4.319643021E0,-2.432304144E0,8.677571297E0
2.485144082E2,4.237090588E0,-2.470589399E0,8.306683540E0
2.490144082E2,4.102494240E0,-2.214557409E0,7.671389580E0
2.495144082E2,4.466801643E0,-2.370090723E0,8.615358353E0
2.500144082E2,3.964308977E0,-2.386242390E0,8.280961037E0
2.505144082E2,3.854238987E0,-2.260020971E0,8.990432739E0
2.510144082E2,3.568296671E0,-2.373680115E0,9.153144836E0
2.515144082E2,3.497110367E0,-2.238485575E0,9.134002686E0
2.520144082E2,3.056830883E0,-2.097907305E0,8.295317650E0
2.525144082E2,3.061018467E0,-2.354537487E0,9.348159790E0
2.530144082E2,3.059821844E0,-2.258824587E0,9.389435768E0
2.535144082E2,3.192025423E0,-2.133201361E0,8.682356834E0
2.540144082E2,3.020938635E0,-2.196611166E0,9.277571678E0
2.545144082E2,3.265604734E0,-2.290529490E0,8.746963501E0
2.550144082E2,3.075375319E0,-2.027318954E0,8.564510345E0
2.555144082E2,3.236890793E0,-2.147558212E0,9.006584167E0
2.560144082E2,3.501895905E0,-2.359323025E0,9.454640388E0
2.565144082E2,3.158525944E0,-2.581257343E0,9.641280174E0
2.570144082E2,3.193221807E0,-2.946761131E0,9.261420250E0
2.575144082E2,3.463610888E0,-2.794816732E0,8.629714966E0
2.580144082E2,3.211168051E0,-3.512663603E0,9.077172279E0
2.585144082E2,3.562314749E0,-3.211168051E0,8.405387878E0
2.590144082E2,4.046861172E0,-3.278167009E0,8.621937752E0
2.595144082E2,3.932005882E0,-3.570091486E0,8.287541389E0
2.600144082E2,4.134797573E0,-3.716651678E0,8.832506180E0
2.605144082E2,3.853640795E0,-2.695514679E0,8.516654015E0
2.610144082E2,4.008575916E0,-2.724228621E0,8.698508263E0
2.615144082E2,4.235296249E0,-3.168097258E0,8.610571861E0
2.620144082E2,4.077369690E0,-2.984447956E0,8.271389961E0
2.625144082E2,3.804588079E0,-3.211168051E0,8.708678246E0
2.630144082E2,4.251447678E0,-2.840878725E0,8.719446182E0
2.635144082E2,4.088137627E0,-3.288934708E0,8.520243645E0
2.640144082E2,4.050450325E0,-3.457030535E0,8.505886078E0
2.645144082E2,4.139583111E0,-3.385245800E0,8.618947029E0
2.650144082E2,4.198207378E0,-2.922832966E0,8.279166222E0
2.655144082E2,4.226921082E0,-1.951346874E0,8.228319168E0
2.660144082E2,4.467998028E0,-2.389233351E0,8.946166039E0
2.665144082E2,4.176073551E0,-2.103889227E0,8.387441635E0
2.670144082E2,4.334000111E0,-2.432902336E0,8.665607452E0
2.675144082E2,4.219742775E0,-2.283949137E0,8.566305161E0
2.680144082E2,4.186243057E0,-2.367697954E0,8.602795601E0
2.685144082E2,4.267599106E0,-2.298306227E0,8.568099976E0
2.690144082E2,4.387240410E0,-2.463410854E0,8.604590416E0
2.695144082E2,4.171886444E0,-2.263610125E0,8.662017822E0
2.700144082E2,4.445864677E0,-2.389233351E0,8.599804878E0
2.705144082E2,4.068994999E0,-2.335394859E0,8.582456589E0
2.710144082E2,4.353142738E0,-2.298904419E0,8.567501068E0
2.715144082E2,4.168296814E0,-2.379662037E0,8.596215248E0
2.720144082E2,4.126422882E0,-2.367697954E0,8.658429146E0
2.725144082E2,4.147359848E0,-2.403590441E0,8.682356834E0
2.730144082E2,4.353740692E0,-2.351546526E0,8.636295319E0
2.735144082E2,4.205385685E0,-2.405983210E0,8.572885513E0
2.740144082E2,4.182653904E0,-2.424527645E0,8.601000786E0
2.745144082E2,4.244867325E0,-2.307877541E0,8.593224525E0
2.750144082E2,4.165306091E0,-2.439482689E0,8.732007980E0
2.755144082E2,4.082155228E0,-2.415554523E0,8.757730484E0
2.760144082E2,4.287938118E0,-2.374876499E0,8.714659691E0
2.765144082E2,4.195216179E0,-2.304886341E0,8.498109818E0
2.770144082E2,4.018147469E0,-2.346162558E0,8.639286041E0
2.775144082E2,4.454239368E0,-2.462812662E0,8.736793518E0
2.780144082E2,4.265206337E0,-2.263610125E0,8.553144455E0
2.785144082E2,4.100101471E0,-2.236690998E0,8.752944946E0
2.790144082E2,4.350151539E0,-2.252842426E0,8.697312355E0
2.795144082E2,4.231706619E0,-1.824527264E0,8.468797684E0
2.800144082E2,4.420141697E0,-1.490130305E0,8.693722725E0
2.805144082E2,4.334598064E0,-1.646261930E0,8.786444664E0
2.810144082E2,4.270590305E0,-1.780260086E0,8.591429710E0
2.815144082E2,4.289732933E0,-1.892124534E0,8.604590416E0
2.820144082E2,4.280161381E0,-2.002194405E0,8.854640007E0
2.825144082E2,4.230510235E0,-1.954337835E0,8.636893272E0
2.830144082E2,4.532006264E0,-1.917847395E0,8.861818314E0
2.835144082E2,4.532006264E0,-1.156929731E0,8.515457153E0
2.840144082E2,4.947160721E0,-1.159322619E0,8.706883430E0
2.845144082E2,4.777868748E0,-1.003190875E0,8.476573944E0
2.850144082E2,4.935196877E0,-1.149751306E0,8.786444664E0
2.855144082E2,4.673780918E0,-1.042074203E0,8.280961037E0
2.860144082E2,5.003990173E0,-8.775677085E-1,8.665008545E0
2.865144082E2,4.403990269E0,-8.913264275E-1,8.726025581E0
2.870144082E2,4.942375183E0,-1.004985452E0,8.796015739E0
2.875144082E2,4.889732838E0,-1.306481123E0,8.572885513E0
2.880144082E2,4.876572609E0,-9.128618240E-1,8.481359482E0
2.885144082E2,5.042275429E0,-1.127617717E0,8.687142372E0
2.890144082E2,5.189434052E0,-1.735992789E0,8.606385231E0
2.895144082E2,4.716851711E0,-1.232901812E0,7.880163193E0
2.900144082E2,4.602594376E0,-1.453639746E0,8.819944382E0
2.905144082E2,4.332803726E0,-1.386042476E0,8.480163574E0
2.910144082E2,4.049852371E0,-1.826920033E0,7.677371502E0
2.915144082E2,4.810770035E0,-1.855633974E0,9.033503532E0
2.920144082E2,4.942375183E0,-1.625923038E0,8.745168686E0
2.925144082E2,4.597808838E0,-1.709671736E0,8.000402451E0
2.930144082E2,5.016552448E0,-1.866401672E0,8.177471161E0
2.935144082E2,3.809373617E0,-2.327618122E0,7.685746193E0
2.940144082E2,3.854238987E0,-2.684746981E0,8.868997574E0
2.945144082E2,3.629313707E0,-2.547159672E0,8.691927910E0
2.950144082E2,3.662214994E0,-2.519043922E0,9.113663673E0
2.955144082E2,2.971885681E0,-2.352742910E0,8.719446182E0
2.960144082E2,3.115455151E0,-2.449054003E0,8.620741844E0
2.965144082E2,2.801397085E0,-2.265404940E0,8.486743927E0
2.970144082E2,3.759722471E0,-2.391027927E0,8.663214684E0
2.975144082E2,3.499503136E0,-2.575873613E0,9.658628464E0
2.980144082E2,4.159922123E0,-2.494517565E0,8.431110382E0
2.985144082E2,4.337589264E0,-2.509472847E0,8.741579056E0
2.990144082E2,4.311866283E0,-2.413759947E0,8.574081421E0
2.995144082E2,4.458426952E0,-3.081955671E0,1.021555805E1
3.000144082E2,3.985246181E0,-2.520240545E0,8.625527382E0
3.005144082E2,3.836292982E0,-2.431107759E0,7.956733704E0
3.010144082E2,4.707280159E0,-2.745165825E0,8.741579056E0
3.015144082E2,4.319643021E0,-2.464607239E0,8.068597794E0
3.020144082E2,4.565505505E0,-2.941975355E0,9.182456970E0
3.025144082E2,4.233501434E0,-2.566302299E0,8.428717613E0
3.030144082E2,4.179064751E0,-2.621337175E0,8.127820015E0
3.035144082E2,3.942175388E0,-2.608176708E0,8.325826645E0
3.040144082E2,4.324428558E0,-2.916252613E0,8.430512428E0
3.045144082E2,4.027718544E0,-3.138186932E0,8.205587387E0
3.050144082E2,3.930809498E0,-3.013760090E0,8.148757935E0
3.055144082E2,4.250849247E0,-2.507678032E0,7.827520847E0
3.060144082E2,4.370490551E0,-3.061018467E0,8.473583221E0
3.065144082E2,4.320241451E0,-3.061018467E0,8.435297966E0
3.070144082E2,3.927818298E0,-3.113660574E0,8.025527000E0
3.075144082E2,4.096512318E0,-2.776870728E0,8.410173416E0
3.080144082E2,4.740779877E0,-2.711666346E0,8.679964066E0
3.085144082E2,4.682155609E0,-2.616551638E0,8.388039589E0
3.090144082E2,4.453640938E0,-2.628515720E0,8.422736168E0
3.095144082E2,4.661218643E0,-2.507678032E0,8.350951195E0
3.100144082E2,4.375276089E0,-2.530410051E0,8.194221497E0
3.105144082E2,4.608576298E0,-3.097508907E0,8.250452042E0
3.110144082E2,4.420739651E0,-2.949153900E0,8.049455643E0
3.115144082E2,4.579862595E0,-3.315255880E0,8.272585869E0
3.120144082E2,4.983651161E0,-2.287538528E0,8.406583786E0
3.125144082E2,4.182653904E0,-2.673381090E0,7.950751305E0
3.130144082E2,4.813162804E0,-2.452044964E0,8.394021988E0
3.135144082E2,4.740779877E0,-1.691127419E0,7.957331657E0
3.140144082E2,5.148158073E0,-1.759322882E0,8.420941353E0
3.145144082E2,5.150550842E0,-1.423131227E0,8.358727455E0
3.150144082E2,5.094917774E0,-1.556531072E0,8.424530029E0
3.155144082E2,5.146363258E0,-1.283749342E0,8.338388443E0
3.160144082E2,5.175076962E0,-1.834098577E0,8.408378601E0
3.165144082E2,4.439284325E0,-1.400997639E0,8.129016876E0
3.170144082E2,4.994419098E0,-1.716252089E0,8.535796165E0
3.175144082E2,4.919643402E0,-1.299900889E0,8.367102623E0
3.180144082E2,4.948357105E0,-2.009970903E0,8.831310272E0
3.185144082E2,5.200201988E0,-2.069193363E0,9.161520004E0
3.190144082E2,4.887938499E0,-2.145165443E0,8.261817932E0
3.195144082E2,4.576273441E0,-1.570888042E0,7.452445984E0
3.200144082E2,3.993022680E0,-1.686341763E0,1.075992489E1
3.205144082E2,3.715455294E0,1.974078715E-1,8.574081421E0
3.210144082E2,4.332803726E0,-5.395814776E-1,9.814162254E0
3.215144082E2,3.659822226E0,-1.080359459E0,1.058285618E1
3.220144082E2,1.046859860E0,-9.367900491E-1,9.536594391E0
3.225144082E2,1.121635556E0,1.531406492E-1,9.327222824E0
3.230144082E2,3.769891977E0,-1.853839397E0,9.966704369E0
3.235144082E2,3.780659676E0,-2.335394859E0,8.614161491E0
3.240144082E2,4.160520554E0,-2.773879766E0,8.708079338E0
3.245144082E2,4.195814610E0,-3.062813044E0,8.997013092E0
3.250144082E2,4.118646145E0,-2.282752752E0,8.608179092E0
3.255144082E2,4.013361931E0,-2.307877541E0,8.649456024E0
3.260144082E2,4.425525665E0,-2.292324066E0,8.636295319E0
3.265144082E2,4.348955154E0,-2.365305185E0,8.566305161E0
3.270144082E2,4.546362877E0,-2.358126640E0,8.512466431E0
3.275144082E2,4.622933388E0,-1.996810555E0,8.565108299E0
3.280144082E2,5.028516769E0,-2.118844509E0,8.628518105E0
3.285144082E2,5.352146149E0,-2.070987940E0,8.079365730E0
3.290144082E2,4.925625324E0,-1.984846354E0,8.146963120E0
3.295144082E2,5.197210789E0,-2.370688915E0,8.078168869E0
3.300144082E2,5.395216942E0,-2.361117840E0,7.567301750E0
3.305144082E2,5.398207664E0,-2.569891453E0,7.545766354E0
3.310144082E2,5.333003521E0,-2.568695068E0,7.378268719E0
3.315144082E2,5.715256691E0,-2.855833769E0,7.385447025E0
3.320144082E2,5.535196781E0,-2.729612350E0,7.377670288E0
3.325144082E2,4.794020176E0,-2.525624275E0,7.149754047E0
3.330144082E2,4.884349346E0,-2.649452925E0,7.513463020E0
3.335144082E2,4.758726120E0,-2.175673962E0,7.734799385E0
3.340144082E2,4.640879631E0,-2.542374134E0,8.874381065E0
3.345144082E2,3.948157310E0,-2.069193363E0,8.000402451E0
3.350144082E2,4.197010994E0,-2.164906263E0,8.629714966E0
3.355144082E2,4.337589264E0,-1.726421595E0,8.196015358E0
3.360144082E2,5.229514122E0,-2.257030010E0,8.799007416E0
3.365144082E2,4.292723656E0,-1.480558991E0,8.224729538E0
3.370144082E2,5.093122959E0,-1.963310957E0,9.101100922E0
3.375144082E2,4.813162804E0,-1.719841242E0,9.006584167E0
3.380144082E2,3.997808456E0,-1.560120344E0,7.853243828E0
3.385144082E2,4.103092670E0,-1.998605132E0,8.805587769E0
3.390144082E2,4.807778835E0,-2.088335991E0,9.562915802E0
3.395144082E2,4.386641979E0,-1.639681697E0,7.953742504E0
3.400144082E2,4.272384644E0,-1.767099500E0,8.805587769E0
3.405144082E2,4.147958279E0,-1.698904037E0,8.741579056E0
3.410144082E2,4.873581409E0,-1.633101463E0,8.601598740E0
3.415144082E2,4.586442947E0,-1.651047587E0,8.778668404E0
3.420144082E2,4.380660057E0,-1.896910191E0,8.445467949E0
3.425144082E2,4.112663746E0,-2.123630047E0,8.564510345E0
3.430144082E2,3.708875179E0,-2.633899450E0,8.303094864E0
3.435144082E2,4.399802685E0,-2.575873613E0,8.751749039E0
3.440144082E2,4.207778454E0,-2.343171597E0,8.318648338E0
3.445144082E2,3.938585997E0,-2.465803623E0,8.569295883E0
3.450144082E2,4.629513741E0,-2.874378204E0,8.589036942E0
3.455144082E2,4.094717979E0,-3.341576815E0,8.507082939E0
3.460144082E2,3.930809498E0,-3.367897987E0,8.175078392E0
3.465144082E2,3.681955814E0,-3.594019651E0,8.035098076E0
3.470144082E2,4.094717979E0,-3.697509289E0,7.951947689E0
3.475144082E2,3.521038532E0,-3.675375462E0,8.084151268E0
3.480144082E2,3.924229145E0,-3.643072367E0,8.500502586E0
3.485144082E2,3.973282099E0,-3.772284985E0,7.925028801E0
3.490144082E2,3.779463291E0,-3.831507206E0,8.424530029E0
3.495144082E2,4.023531437E0,-3.667000771E0,8.502895355E0
3.500144082E2,4.264009953E0,-3.294318676E0,8.153543472E0
3.505144082E2,3.927220106E0,-3.396611691E0,8.642875671E0
3.510144082E2,3.820739508E0,-2.909672260E0,8.325227737E0
3.515144082E2,4.321437836E0,-3.190230846E0,8.757730484E0
3.520144082E2,4.007379532E0,-3.195614576E0,8.285148621E0
3.525144082E2,5.238486767E0,-2.193022013E0,9.381061554E0
3.530144082E2,4.176073551E0,-2.143969059E0,8.298309326E0
3.535144082E2,4.407579422E0,-1.826920033E0,9.349954605E0
3.540144082E2,4.609772682E0,-6.687939167E-1,8.586644173E0
3.545144082E2,4.693521500E0,-9.236295223E-1,9.236295700E0
3.550144082E2,4.022933006E0,-6.783652306E-1,8.730213165E0
3.555144082E2,4.257429600E0,-8.530412912E-1,9.093922615E0
3.560144082E2,4.383651257E0,-7.429714203E-1,9.263215065E0
3.565144082E2,3.528815269E0,-1.169492126E0,8.498109818E0
3.570144082E2,3.413361549E0,-1.727617979E0,9.610772133E0
3.575144082E2,2.930011272E0,-1.461416483E0,8.763712883E0
3.580144082E2,2.520240545E0,-2.114058733E0,9.646664619E0
3.585144082E2,2.204986095E0,-2.070389748E0,9.383454323E0
3.590144082E2,2.445464849E0,-2.169692039E0,9.388239861E0
3.595144082E2,2.166102648E0,-2.151745796E0,8.711071014E0
3.600144082E2,2.362314224E0,-2.048256159E0,9.351150513E0
3.605144082E2,2.743969440E0,-1.757528186E0,9.341579437E0
3.610144082E2,3.901497364E0,-1.994417667E0,9.159725189E0
3.615144082E2,2.821736097E0,-1.874776483E0,9.072386742E0
3.620144082E2,4.133002758E0,-1.567897081E0,8.807381630E0
3.625144082E2,4.798207760E0,-1.600200176E0,8.567501068E0
3.630144082E2,4.520640373E0,-1.553540111E0,8.543573380E0
3.635144082E2,4.112065792E0,-1.533201098E0,8.759525299E0
3.640144082E2,4.581656933E0,-1.499701619E0,8.732007980E0
3.645144082E2,4.445864677E0,-1.435693622E0,8.912068367E0
3.650144082E2,4.227519512E0,-1.247856975E0,8.633303642E0
3.655144082E2,4.591228485E0,-1.842473388E0,9.044869423E0
3.660144082E2,4.905286312E0,-1.868196249E0,8.863015175E0
3.665144082E2,4.208376884E0,-1.718046665E0,8.513663292E0
3.670144082E2,4.326223373E0,-1.695314884E0,8.495717049E0
3.675144082E2,4.393222332E0,-1.223928809E0,8.413164139E0
3.680144082E2,5.024927616E0,-2.171486616E0,9.881160736E0
3.685144082E2,3.591028690E0,-1.477568030E0,7.698308468E0
3.690144082E2,4.164707661E0,-1.764706731E0,8.522037506E0
3.695144082E2,4.186243057E0,-1.836491346E0,7.728816986E0
3.700144082E2,5.057230473E0,-1.798206210E0,8.052446365E0
3.705144082E2,4.016951084E0,-1.692323804E0,8.468797684E0
3.710144082E2,4.340580463E0,-1.754537225E0,7.923832417E0
3.715144082E2,4.040280819E0,-2.035095692E0,9.180064201E0
3.720144082E2,4.664807796E0,-2.067398787E0,9.592227936E0
3.725144082E2,4.788636208E0,-1.770688772E0,8.558527946E0
3.730144082E2,4.924428940E0,-2.603390932E0,9.742377281E0
3.735144082E2,4.509274483E0,-2.970689297E0,8.497511864E0
3.740144082E2,4.758726120E0,-2.848655462E0,8.967103004E0
3.745144082E2,4.463810444E0,-2.743371248E0,8.532805443E0
3.750144082E2,4.557728767E0,-2.627319336E0,8.414958954E0
3.755144082E2,3.965505362E0,-2.681756020E0,7.801798344E0
3.760144082E2,4.035495281E0,-2.829512835E0,9.271589279E0
3.765144082E2,4.162314892E0,-2.563909531E0,8.524430275E0
3.770144082E2,4.364508629E0,-2.695514679E0,8.912068367E0
3.775144082E2,4.465006828E0,-2.495115757E0,8.435895920E0
3.780144082E2,4.905286312E0,-2.673381090E0,8.590232849E0
3.785144082E2,4.089931965E0,-2.392822742E0,7.871190071E0
3.790144082E2,4.321437836E0,-2.700898647E0,8.270791054E0
3.795144082E2,4.289732933E0,-2.806182861E0,8.638090134E0
3.800144082E2,4.039084435E0,-3.480958700E0,8.684749603E0
3.805144082E2,3.793820381E0,-3.537788391E0,8.126026154E0
3.810144082E2,4.019941807E0,-3.276372433E0,8.210372925E0
3.815144082E2,5.233701229E0,-3.286541939E0,9.128020287E0
3.820144082E2,3.812962770E0,-3.239881754E0,8.280961037E0
3.825144082E2,3.920639992E0,-3.602394581E0,8.389236450E0
3.830144082E2,3.889533281E0,-3.871587038E0,7.888537884E0
3.835144082E2,3.957728624E0,-4.388436794E0,8.300103188E0
3.840144082E2,4.247858524E0,-4.173082829E0,8.029116631E0
3.845144082E2,4.142574310E0,-4.188635826E0,8.435895920E0
3.850144082E2,3.863212109E0,-4.425525665E0,7.786244869E0
3.855144082E2,4.064807415E0,-4.382454872E0,8.366504669E0
3.860144082E2,4.171288013E0,-3.783650875E0,8.151748657E0
3.865144082E2,4.033102512E0,-3.137588739E0,8.210372925E0
3.870144082E2,4.276572227E0,-3.094517946E0,8.392825127E0
3.875144082E2,4.317848682E0,-2.820539713E0,8.123034477E0
3.880144082E2,4.122235298E0,-2.909672260E0,8.285746574E0
3.885144082E2,4.150351048E0,-3.075375319E0,8.266604424E0
3.890144082E2,4.332803726E0,-3.179463148E0,8.560322762E0
3.895144082E2,4.194019794E0,-2.986242771E0,8.389236450E0
3.900144082E2,4.317848682E0,-2.940180779E0,8.366504669E0
3.905144082E2,4.465006828E0,-2.300698996E0,8.276175499E0
3.910144082E2,4.409373760E0,-1.572682738E0,8.445467949E0
3.915144082E2,4.498506546E0,-9.320043921E-1,8.370093346E0
3.920144082E2,5.157729149E0,-1.327418327E0,9.224929810E0
3.925144082E2,4.544568539E0,-8.841479421E-1,8.344968796E0
3.930144082E2,4.752145767E0,-9.014959335E-1,8.755936623E0
3.935144082E2,4.629513741E0,-4.576273263E-1,8.495717049E0
3.940144082E2,5.477769375E0,-1.305284739E0,9.544371605E0
3.945144082E2,4.935794830E0,-1.460818172E0,8.033902168E0
3.950144082E2,5.305486202E0,-1.040279627E0,8.491529465E0
3.955144082E2,5.473581791E0,-2.166700840E0,1.041954613E1
3.960144082E2,4.509274483E0,-1.670190215E0,7.554739475E0
3.965144082E2,4.953142643E0,-1.322034478E0,9.171091080E0
3.970144082E2,4.586442947E0,-1.771885157E0,9.851848602E0
3.975144082E2,4.533800602E0,-1.298106313E0,8.373085022E0
3.980144082E2,4.262215137E0,-1.457827210E0,8.856434822E0
3.985144082E2,4.114458561E0,-1.423131227E0,8.679964066E0
3.990144082E2,3.726821184E0,-1.797608018E0,8.323433876E0
3.995144082E2,4.372285366E0,-1.228714466E0,9.239286423E0
4.000144082E2,4.849653244E0,-1.698904037E0,8.967103004E0
4.005144082E2,5.085944653E0,-1.689332843E0,8.649456024E0
4.010144082E2,4.184448719E0,-1.590030670E0,8.212167740E0
4.015144082E2,4.227519512E0,-1.617548108E0,8.599804878E0
4.020144082E2,4.391427994E0,-1.676770449E0,9.084949493E0
4.025144082E2,4.490729809E0,-1.668993831E0,8.342576027E0
4.030144082E2,4.452444553E0,-1.524826288E0,7.506882668E0
4.035144082E2,5.285147190E0,-1.898106575E0,8.510073662E0
4.040144082E2,4.106083870E0,-1.866401672E0,8.044670105E0
4.045144082E2,4.477569580E0,-1.820339799E0,8.438887596E0
4.050144082E2,4.037290096E0,-1.646261930E0,6.683752060E0
4.055144082E2,3.937389612E0,-1.793420553E0,7.966903210E0
4.060144082E2,4.649852753E0,-1.764706731E0,8.768498421E0
4.065144082E2,4.295714855E0,-1.807179332E0,7.933403492E0
4.070144082E2,4.892724037E0,-1.855633974E0,8.569893837E0
4.075144082E2,4.676771641E0,-1.792822361E0,8.988637924E0
4.080144082E2,4.031308174E0,-1.807179332E0,7.942376614E0
4.085144082E2,4.435096741E0,-1.832902193E0,7.674978733E0
4.090144082E2,4.717449665E0,-1.929811478E0,9.054440498E0
4.095144082E2,4.079164505E0,-1.537388563E0,7.679165840E0
4.100144082E2,4.502095699E0,-1.923829436E0,7.813762188E0
4.105144082E2,4.234099865E0,-1.539781332E0,7.703692436E0
4.110144082E2,4.497310162E0,-1.942971945E0,8.708678246E0
4.115144082E2,4.962714195E0,-1.919043779E0,8.927022934E0
4.120144082E2,4.399204254E0,-1.724028707E0,7.870592117E0
4.125144082E2,4.727021217E0,-2.252244234E0,9.187242508E0
4.130144082E2,4.522434711E0,-1.840678811E0,8.617751122E0
4.135144082E2,4.404588223E0,-2.053041935E0,8.458029747E0
4.140144082E2,4.016352654E0,-2.042274237E0,8.199604988E0
4.145144082E2,4.597210407E0,-2.218744755E0,9.248857498E0
4.150144082E2,4.345366001E0,-1.644467354E0,7.883154392E0
4.155144082E2,4.998008251E0,-2.219342947E0,9.376275063E0
4.160144082E2,4.867001057E0,-2.027917147E0,9.334999084E0
4.165144082E2,4.905286312E0,-2.155334949E0,8.910871506E0
4.170144082E2,4.251447678E0,-2.033899307E0,8.669795036E0
4.175144082E2,4.448855400E0,-2.270190477E0,8.376673698E0
4.180144082E2,4.450650215E0,-1.929811478E0,8.175078392E0
4.185144082E2,4.830510616E0,-2.109273195E0,8.470592499E0
4.190144082E2,4.073780537E0,-2.005185366E0,8.116454124E0
4.195144082E2,4.275375843E0,-2.051247120E0,8.075178146E0
4.200144082E2,4.794020176E0,-2.264806747E0,8.508877754E0
4.205144082E2,3.946960926E0,-1.883749604E0,7.898109436E0
4.210144082E2,4.698307037E0,-2.250449657E0,8.367102623E0
4.215144082E2,4.863411903E0,-2.265404940E0,9.348159790E0
4.220144082E2,4.720440865E0,-2.024327993E0,8.669795036E0
4.225144082E2,4.719842434E0,-1.963909149E0,8.526823044E0
4.230144082E2,4.568496704E0,-2.035095692E0,8.545966148E0
4.235144082E2,4.616353035E0,-2.240878344E0,9.098708153E0
4.240144082E2,4.135993958E0,-1.786840320E0,7.558328629E0
4.245144082E2,4.822135925E0,-2.480160713E0,9.531210899E0
4.250144082E2,4.377070904E0,-1.779063582E0,8.115258217E0
4.255144082E2,4.625924587E0,-2.111665964E0,8.574680328E0
4.260144082E2,4.463810444E0,-2.177468538E0,8.550153732E0
4.265144082E2,4.427918434E0,-2.251047850E0,8.717651367E0
4.270144082E2,4.318446636E0,-1.949552298E0,7.953742504E0
4.275144082E2,4.521238327E0,-2.139183521E0,8.641678810E0
4.280144082E2,4.354937077E0,-1.745564103E0,7.972885132E0
4.285144082E2,4.780859470E0,-2.327019930E0,8.958727837E0
4.290144082E2,4.517649174E0,-1.867598057E0,8.056035995E0
4.295144082E2,4.791627407E0,-2.293520451E0,8.716454506E0
4.300144082E2,4.413561344E0,-2.149951220E0,8.354539871E0
4.305144082E2,4.683950424E0,-1.996810555E0,8.200801849E0
4.310144082E2,4.629513741E0,-2.068595171E0,8.417949677E0
4.315144082E2,5.114658356E0,-1.911267042E0,8.651249886E0
4.320144082E2,4.418346882E0,-2.049452543E0,8.744570732E0
4.325144082E2,4.908277512E0,-2.121835470E0,9.034101486E0
4.330144082E2,4.070789337E0,-1.949552298E0,8.036892891E0
4.335144082E2,4.645665169E0,-2.236092806E0,9.382855415E0
4.340144082E2,3.841078520E0,-1.701895118E0,8.639286041E0
4.345144082E2,4.182653904E0,-2.124826431E0,8.895318031E0
4.350144082E2,4.671986103E0,-2.271985054E0,9.116654396E0
4.355144082E2,4.350151539E0,-1.928615093E0,8.708079338E0
4.360144082E2,4.777868748E0,-2.097907305E0,8.518448830E0
4.365144082E2,4.917848587E0,-2.191825628E0,8.966505051E0
4.370144082E2,4.742574692E0,-2.003988981E0,8.210970879E0
4.375144082E2,4.715655327E0,-2.352742910E0,8.952147484E0
4.380144082E2,4.551148891E0,-2.023131609E0,8.157731056E0
4.385144082E2,4.596014023E0,-1.995614052E0,8.402397156E0
4.390144082E2,4.667200565E0,-2.179263115E0,8.548358917E0
4.395144082E2,5.400002480E0,-2.450250387E0,8.952147484E0
4.400144082E2,4.231706619E0,-1.931606054E0,7.487740040E0
4.405144082E2,3.559323788E0,-2.072184324E0,8.360522270E0
4.410144082E2,5.249852657E0,-2.316252232E0,8.986245155E0
4.415144082E2,5.151148796E0,-2.324627161E0,9.735198975E0
4.420144082E2,4.153940201E0,-1.891526341E0,7.521838188E0
4.425144082E2,4.608576298E0,-2.602194548E0,9.020941734E0
4.430144082E2,4.033102512E0,-1.777269006E0,7.730013371E0
4.435144082E2,4.682155609E0,-2.506481647E0,9.960722923E0
4.440144082E2,4.346562386E0,-1.995614052E0,8.330612183E0
4.445144082E2,5.088337421E0,-2.778665304E0,1.010728264E1
4.450144082E2,4.209573269E0,-2.316252232E0,8.009375572E0
4.455144082E2,4.447659016E0,-2.350948334E0,7.984251022E0
4.460144082E2,4.612165451E0,-2.155334949E0,7.639684677E0
4.465144082E2,4.585844517E0,-2.313261271E0,8.493324280E0
4.470144082E2,4.849055290E0,-2.498106956E0,9.315856934E0
4.475144082E2,4.582853794E0,-2.442473650E0,8.612964630E0
4.480144082E2,4.703093052E0,-2.669193745E0,9.250652313E0
4.485144082E2,4.119244099E0,-2.062613010E0,7.838887215E0
4.490144082E2,4.095315933E0,-2.469393015E0,8.631509781E0
4.495144082E2,4.035495281E0,-2.222334146E0,7.828119278E0
4.500144082E2,4.033102512E0,-2.269592285E0,8.030312538E0
4.505144082E2,4.651647091E0,-2.609373093E0,9.125029564E0
4.510144082E2,4.262813568E0,-2.261815548E0,8.567501068E0
4.515144082E2,4.478167534E0,-2.335394859E0,8.601598740E0
4.520144082E2,4.573880672E0,-2.166102648E0,8.232506752E0
4.525144082E2,4.743771076E0,-2.200200319E0,8.022536278E0
4.530144082E2,4.905286312E0,-2.673979282E0,9.917651176E0
4.535144082E2,4.351946354E0,-2.260020971E0,8.212167740E0
4.540144082E2,4.604987144E0,-2.355733871E0,8.548358917E0
4.545144082E2,4.487739086E0,-2.185843468E0,7.976474285E0
4.550144082E2,4.564309120E0,-2.247458696E0,7.977670670E0
4.555144082E2,4.409373760E0,-2.289333105E0,8.039883614E0
4.560144082E2,4.573282242E0,-2.310270309E0,8.045866013E0
4.565144082E2,4.913661480E0,-2.657827854E0,9.223134995E0
4.570144082E2,4.385445595E0,-2.252842426E0,8.164310455E0
4.575144082E2,4.605585575E0,-2.560320139E0,8.925228119E0
4.580144082E2,4.364508629E0,-2.572882652E0,8.142177582E0
4.585144082E2,4.450650215E0,-2.105684042E0,7.146762848E0
4.590144082E2,4.896911621E0,-2.461018085E0,8.799605370E0
4.595144082E2,5.294120312E0,-2.890529871E0,9.836296082E0
4.600144082E2,3.609572887E0,-1.707278967E0,6.882954121E0
4.605144082E2,4.300500393E0,-2.788834810E0,9.038289070E0
4.610144082E2,4.135993958E0,-2.154736757E0,7.850253105E0
4.615144082E2,4.389633179E0,-2.140978098E0,8.242077827E0
4.620144082E2,4.923232555E0,-2.664407969E0,9.311669350E0
4.625144082E2,4.841278553E0,-2.308475733E0,8.788239479E0
4.630144082E2,4.380660057E0,-2.743371248E0,9.272786140E0
4.635144082E2,3.659822226E0,-2.051845312E0,6.995417118E0
4.640144082E2,4.016352654E0,-2.158325911E0,8.191229820E0
4.645144082E2,4.484149456E0,-2.355733871E0,8.983852386E0
4.650144082E2,4.562514782E0,-2.329412937E0,8.548956871E0
4.655144082E2,4.530211449E0,-2.606382132E0,9.077172279E0
4.660144082E2,4.286741734E0,-2.405385017E0,7.853243828E0
4.665144082E2,4.068994999E0,-2.391027927E0,8.068597794E0
4.670144082E2,4.468596458E0,-1.948953986E0,7.372884750E0
4.675144082E2,5.155336380E0,-2.815155745E0,9.204590797E0
4.680144082E2,4.533800602E0,-2.695514679E0,8.981459618E0
4.685144082E2,3.901497364E0,-2.094916344E0,7.877171993E0
4.690144082E2,4.541577339E0,-2.804388046E0,9.410373688E0
4.695144082E2,4.511068821E0,-2.107478619E0,7.523034573E0
4.700144082E2,4.663012981E0,-2.483749866E0,8.696713448E0
4.705144082E2,4.342374802E0,-2.234896421E0,7.822735310E0
4.710144082E2,4.928018093E0,-2.787040234E0,9.342776299E0
4.715144082E2,4.191029072E0,-2.298306227E0,7.716254711E0
4.720144082E2,4.310071945E0,-2.407179594E0,7.897511005E0
4.725144082E2,4.019941807E0,-2.348555326E0,7.941180229E0
4.730144082E2,4.398007870E0,-2.465803623E0,8.389236450E0
4.735144082E2,4.544568539E0,-2.127817631E0,7.799405575E0
4.740144082E2,4.302295208E0,-2.442473650E0,8.173882484E0
4.745144082E2,4.710869789E0,-2.691327333E0,8.608179092E0
4.750144082E2,4.463810444E0,-2.198405743E0,7.401598454E0
4.755144082E2,4.403990269E0,-2.541177750E0,8.725427628E0
4.760144082E2,4.030709743E0,-2.099103689E0,7.741379261E0
4.765144082E2,4.796412945E0,-2.879761934E0,9.883553505E0
4.770144082E2,4.555934429E0,-2.210968018E0,8.443673134E0
4.775144082E2,4.869992256E0,-2.681157827E0,9.438488960E0
4.780144082E2,4.491926193E0,-2.440679073E0,8.261219978E0
4.785144082E2,4.253242016E0,-2.368894339E0,7.791030407E0
4.790144082E2,4.496711731E0,-2.483749866E0,8.538787842E0
4.795144082E2,4.742574692E0,-2.386840582E0,8.118248940E0
4.800144082E2,4.784449100E0,-2.671586514E0,9.215956688E0
4.805144082E2,4.653441906E0,-2.571686029E0,8.598010063E0
4.810144082E2,4.276572227E0,-2.511267424E0,8.362317085E0
4.815144082E2,4.646861553E0,-2.395813704E0,7.948956966E0
4.820144082E2,4.801198483E0,-2.499901533E0,8.255238533E0
4.825144082E2,4.792225361E0,-2.528017044E0,8.878568649E0
4.830144082E2,5.066203594E0,-2.602194548E0,9.212367058E0
4.835144082E2,4.554139614E0,-2.743371248E0,9.329017639E0
4.840144082E2,5.037489891E0,-2.598605394E0,8.650651932E0
4.845144082E2,3.975076675E0,-2.478964329E0,7.945367813E0
4.850144082E2,4.839483738E0,-2.883949518E0,8.556734085E0
4.855144082E2,4.506283283E0,-3.142374277E0,9.108877182E0
4.860144082E2,3.721437454E0,-2.612962246E0,8.349754333E0
4.865144082E2,3.563511133E0,-2.571686029E0,8.679366112E0
4.870144082E2,4.026522160E0,-2.911466837E0,9.960722923E0
4.875144082E2,2.922234535E0,-2.027917147E0,8.843872070E0
4.880144082E2,3.326023579E0,-2.501696110E0,7.976474285E0
4.885144082E2,3.715455294E0,-1.426122308E0,6.592824459E0
4.890144082E2,3.662214994E0,-3.365504980E0,1.065583706E1
4.895144082E2,3.080160856E0,-2.075175524E0,7.342974663E0
4.900144082E2,3.751945972E0,-2.616551638E0,8.940781593E0
4.905144082E2,3.806382656E0,-2.560320139E0,8.531609535E0
4.910144082E2,5.175076962E0,-2.991028309E0,9.337990761E0
4.915144082E2,3.793222189E0,-2.453241348E0,7.755736351E0
4.920144082E2,4.795216560E0,-3.062813044E0,9.409774780E0
4.925144082E2,4.188635826E0,-2.653042078E0,8.749356270E0
4.930144082E2,3.842873096E0,-2.429911375E0,7.663014412E0
4.935144082E2,4.384847641E0,-2.815753937E0,8.508877754E0
4.940144082E2,4.660022259E0,-2.758326292E0,8.349156380E0
4.945144082E2,4.576871395E0,-2.578266382E0,8.108079910E0
4.950144082E2,3.403790236E0,-2.190629244E0,6.380461693E0
4.955144082E2,5.101497650E0,-3.171088219E0,1.017428207E1
4.960144082E2,4.632504463E0,-3.083152056E0,9.270991325E0
4.965144082E2,3.978067636E0,-2.224128723E0,7.779664516E0
4.970144082E2,4.793421745E0,-2.973082066E0,8.778668404E0
4.975144082E2,4.494917393E0,-2.443670034E0,7.731808186E0
4.980144082E2,4.427918434E0,-2.802593470E0,8.433503151E0
4.985144082E2,4.755136967E0,-2.903092146E0,8.548358917E0
4.990144082E2,4.353740692E0,-2.645265341E0,8.846863747E0
4.995144082E2,4.581656933E0,-2.834298372E0,8.378468513E0
5.000144082E2,4.584648132E0,-2.796013355E0,8.486145973E0
5.005144082E2,4.390231133E0,-2.714657307E0,8.232506752E0
5.010144082E2,4.183850288E0,-2.884547710E0,8.362317085E0
5.015144082E2,4.463212490E0,-2.806182861E0,8.679964066E0
5.020144082E2,4.119244099E0,-2.767299414E0,8.568099976E0
5.025144082E2,4.179663181E0,-2.514258385E0,8.054241180E0
5.030144082E2,4.415356159E0,-2.551945448E0,7.952546120E0
5.035144082E2,4.693521500E0,-2.640479803E0,8.596813202E0
5.040144082E2,3.875176191E0,-2.556730986E0,8.175676346E0
5.045144082E2,4.581656933E0,-2.959323406E0,9.028717995E0
5.050144082E2,3.927818298E0,-2.335394859E0,7.220342159E0
5.055144082E2,4.734797955E0,-2.960519791E0,9.116654396E0
5.060144082E2,3.999603033E0,-2.576471806E0,8.230113029E0
5.065144082E2,4.291527271E0,-2.566900492E0,8.956933022E0
5.070144082E2,5.267798901E0,-2.630908489E0,8.807381630E0
5.075144082E2,4.314857483E0,-2.745165825E0,7.923832417E0
5.080144082E2,4.351946354E0,-2.233700037E0,7.861020565E0
5.085144082E2,4.954339504E0,-3.074178934E0,8.413164139E0
5.090144082E2,4.261018753E0,-3.147160053E0,7.780262947E0
5.095144082E2,4.128217220E0,-4.027718544E0,7.607381344E0
5.100144082E2,4.463810444E0,-3.527020693E0,8.056035995E0
5.105144082E2,4.482355118E0,-3.743571043E0,8.601598740E0
5.110144082E2,4.059423447E0,-3.788436413E0,7.990831375E0
5.115144082E2,4.037888050E0,-3.846462488E0,8.475378036E0
5.120144082E2,3.735794306E0,-3.768097401E0,8.598010063E0
5.125144082E2,3.938585997E0,-3.150749207E0,8.440083504E0
5.130144082E2,4.147359848E0,-2.961117983E0,8.094321251E0
5.135144082E2,3.208176851E0,-2.720041037E0,9.464810371E0
5.140144082E2,3.440878868E0,-2.413161755E0,8.641080856E0
5.145144082E2,3.272184849E0,-2.855833769E0,8.591429710E0
5.150144082E2,3.544368505E0,-2.922832966E0,7.722835064E0
5.155144082E2,4.547559261E0,-2.900100946E0,8.431110382E0
5.160144082E2,5.437689304E0,-2.720041037E0,8.756534576E0
5.165144082E2,5.407779217E0,-2.628515720E0,8.066802979E0
5.170144082E2,5.422136307E0,-2.940180779E0,8.328817368E0
5.175144082E2,5.076373100E0,-2.839682341E0,8.247461319E0
5.180144082E2,5.163711071E0,-2.764308453E0,8.291728973E0
5.185144082E2,4.474578381E0,-2.517249346E0,8.093722343E0
5.190144082E2,4.195216179E0,-2.816950560E0,8.690732002E0
5.195144082E2,4.042674065E0,-2.883949518E0,7.660023689E0
5.200144082E2,4.802993298E0,-3.416950703E0,9.067003250E0
5.205144082E2,3.944568157E0,-3.860819340E0,8.561519623E0
5.210144082E2,3.853640795E0,-3.733999729E0,7.588238716E0
5.215144082E2,4.143172264E0,-3.807579041E0,8.646464348E0
5.220144082E2,4.200600147E0,-3.853640795E0,8.113463402E0
5.225144082E2,3.930211306E0,-3.847658873E0,7.450053215E0
5.230144082E2,4.181457520E0,-4.061816216E0,8.627322197E0
5.235144082E2,4.009174347E0,-3.753740549E0,7.975875854E0
5.240144082E2,4.204787731E0,-3.567100286E0,8.239086151E0
5.245144082E2,4.210171223E0,-3.399602890E0,8.397610664E0
5.250144082E2,4.179663181E0,-3.367299557E0,8.364111900E0
5.255144082E2,3.875176191E0,-3.255435228E0,8.063812256E0
5.260144082E2,4.080958843E0,-3.433102369E0,8.378468513E0
5.265144082E2,4.166502476E0,-3.544966698E0,8.230113029E0
5.270144082E2,4.090530396E0,-3.391227961E0,8.253443718E0
5.275144082E2,3.951746702E0,-2.496312141E0,8.234300613E0
5.280144082E2,4.571487427E0,-2.662015200E0,8.204390526E0
5.285144082E2,4.222135544E0,-2.579462767E0,8.633303642E0
5.290144082E2,4.244867325E0,-2.480160713E0,8.449654579E0
5.295144082E2,4.381856441E0,-2.584248543E0,8.510671616E0
5.300144082E2,4.393222332E0,-2.489732027E0,8.435895920E0
5.305144082E2,4.281357765E0,-2.538186550E0,8.518448830E0
5.310144082E2,4.500301361E0,-2.444268227E0,8.286943436E0
5.315144082E2,4.234099865E0,-2.593819857E0,8.609375954E0
5.320144082E2,4.174279213E0,-2.520240545E0,8.550153732E0
5.325144082E2,4.278367043E0,-2.627319336E0,8.565108299E0
5.330144082E2,4.417150497E0,-2.619542599E0,8.540582657E0
5.335144082E2,3.986442566E0,-2.386840582E0,8.233104706E0
5.340144082E2,4.328018188E0,-2.592025042E0,8.574680328E0
5.345144082E2,4.278367043E0,-2.531606436E0,8.420941353E0
5.350144082E2,4.354937077E0,-2.566900492E0,8.585447311E0
5.355144082E2,4.256233215E0,-2.544766903E0,8.566305161E0
5.360144082E2,4.381856441E0,-2.528615236E0,8.521439552E0
5.365144082E2,4.224528313E0,-2.508874655E0,8.535796165E0
5.370144082E2,4.253242016E0,-2.537588358E0,8.505886078E0
5.375144082E2,4.250849247E0,-2.578266382E0,8.453244209E0
5.380144082E2,4.321437836E0,-2.519043922E0,8.494520187E0
5.385144082E2,4.280161381E0,-2.587837696E0,8.572885513E0
5.390144082E2,4.331008911E0,-2.569891453E0,8.424530029E0
5.395144082E2,4.241278172E0,-2.492124796E0,8.433503151E0
5.400144082E2,4.141377926E0,-3.097508907E0,8.447860718E0
5.405144082E2,3.911666870E0,-2.957528830E0,8.030312538E0
5.410144082E2,5.114658356E0,-2.040479422E0,6.576673031E0
5.415144082E2,3.609572887E0,-3.451646566E0,8.357531548E0
5.420144082E2,3.562314749E0,-2.520838737E0,9.093922615E0
5.425144082E2,3.705285788E0,-2.108675003E0,8.556734085E0
5.430144082E2,3.705883980E0,-2.574677229E0,8.656036377E0
5.435144082E2,3.925425529E0,-2.772084951E0,8.808578491E0
5.440144082E2,3.739383698E0,-2.801397085E0,8.551948547E0
5.445144082E2,3.132802963E0,-3.942175388E0,8.258827209E0
5.450144082E2,3.075973511E0,-4.947160721E0,8.695517540E0
5.455144082E2,1.638485312E0,-1.972882271E0,7.451249599E0
5.460144082E2,3.542573929E0,-3.327219963E0,8.146963120E0
5.465144082E2,3.559323788E0,-3.113660574E0,8.822935104E0
5.470144082E2,3.594019651E0,-2.844467878E0,8.629714966E0
5.475144082E2,3.580859184E0,-3.114258766E0,8.681160927E0
5.480144082E2,3.640679598E0,-2.960519791E0,8.486743927E0
5.485144082E2,3.661018610E0,-3.238685369E0,8.848658562E0
5.490144082E2,3.482753277E0,-3.003590584E0,8.515457153E0
5.495144082E2,3.520440340E0,-3.193221807E0,8.729017258E0
5.500144082E2,3.600001574E0,-3.059223652E0,8.507680893E0
5.505144082E2,3.550948858E0,-3.131606579E0,8.703892708E0
5.510144082E2,3.738785267E0,-3.014956474E0,8.563314438E0
5.515144082E2,3.501297712E0,-3.080160856E0,8.574680328E0
5.520144082E2,3.665804386E0,-3.056830883E0,8.582456589E0
5.525144082E2,3.651447296E0,-3.075973511E0,8.601000786E0
5.530144082E2,3.723232031E0,-3.087937593E0,8.674580574E0
5.535144082E2,3.617947817E0,-3.134597778E0,8.748159409E0
5.540144082E2,3.627519131E0,-2.965305567E0,8.383254051E0
5.545144082E2,3.616751432E0,-3.055036306E0,8.554939270E0
5.550144082E2,3.591028690E0,-3.032304525E0,8.541180611E0
5.555144082E2,3.614956856E0,-3.083750248E0,8.624929428E0
5.560144082E2,3.758526087E0,-3.056232691E0,8.663214684E0
5.565144082E2,3.552145243E0,-3.121437073E0,8.738588333E0
5.570144082E2,3.702294827E0,-3.062813044E0,8.617152214E0
5.575144082E2,3.608376503E0,-3.055036306E0,8.540582657E0
5.580144082E2,3.686741590E0,-3.027518749E0,8.627322197E0
5.585144082E2,3.583251953E0,-3.115455151E0,8.688937187E0
5.590144082E2,3.729214191E0,-3.074178934E0,8.657232285E0
5.595144082E2,3.621536970E0,-3.091526747E0,8.733802795E0
5.600144082E2,3.622733593E0,-3.042474031E0,8.632107735E0
5.605144082E2,3.681955814E0,-3.098107100E0,8.614161491E0
5.610144082E2,3.714857101E0,-2.997608662E0,8.551948547E0
5.615144082E2,3.561716557E0,-3.078366280E0,8.612964630E0
5.620144082E2,3.779463291E0,-2.940180779E0,8.617152214E0
5.625144082E2,3.595814228E0,-2.784049034E0,8.489734650E0
5.630144082E2,3.836292982E0,-3.075973511E0,8.799007416E0
5.635144082E2,3.651447296E0,-2.858824968E0,8.701499939E0
5.640144082E2,3.758526087E0,-3.005385160E0,8.615956306E0
5.645144082E2,3.733999729E0,-2.693121910E0,8.682954788E0
5.650144082E2,3.847658873E0,-2.203191519E0,8.721240044E0
5.655144082E2,4.023531437E0,-2.294118643E0,8.826524734E0
5.660144082E2,4.040280819E0,-2.170888424E0,8.615956306E0
5.665144082E2,4.170091629E0,-1.824527264E0,9.014959335E0
5.670144082E2,3.987638950E0,-1.877169371E0,8.605786324E0
5.675144082E2,4.351946354E0,-1.981257200E0,8.901300430E0
5.680144082E2,4.290929317E0,-2.045265198E0,8.812167168E0
5.685144082E2,4.503292084E0,-2.030309916E0,8.617751122E0
5.690144082E2,3.903291941E0,-1.580459356E0,7.864011765E0
5.695144082E2,4.592424870E0,-1.677966833E0,9.011369705E0
5.700144082E2,4.265804768E0,-1.817348838E0,8.851649284E0
5.705144082E2,3.939782381E0,-1.960319996E0,8.413164139E0
5.710144082E2,3.633501291E0,-2.224128723E0,9.184849739E0
5.715144082E2,3.777668715E0,-2.011765718E0,8.607581139E0
5.720144082E2,3.750151396E0,-2.190030813E0,8.660821915E0
5.725144082E2,4.056432724E0,-2.137987137E0,9.069993973E0
5.730144082E2,4.100101471E0,-2.367099762E0,9.295517921E0
5.735144082E2,3.817150354E0,-2.030309916E0,8.608179092E0
5.740144082E2,3.375674486E0,-2.367099762E0,9.510871887E0
5.745144082E2,2.837887764E0,-2.818745136E0,8.995218277E0
5.750144082E2,3.040081263E0,-2.404188633E0,8.394021988E0
5.755144082E2,3.013161898E0,-2.117049932E0,8.842676163E0
5.760144082E2,3.766302824E0,-2.494517565E0,9.406784058E0
5.765144082E2,3.775874138E0,-1.872383714E0,7.776673794E0
5.770144082E2,4.434498787E0,-2.389233351E0,8.226524353E0
5.775144082E2,5.338985443E0,-3.440878868E0,8.665008545E0
5.780144082E2,4.841278553E0,-2.691327333E0,7.941180229E0
5.785144082E2,3.951746702E0,-2.252842426E0,5.980860233E0
5.790144082E2,5.501697540E0,-3.896711588E0,1.012522888E1
5.795144082E2,5.430510998E0,-3.189034462E0,8.800801277E0
5.800144082E2,4.868795872E0,-2.742174864E0,7.799405575E0
5.805144082E2,4.293920040E0,-2.882753134E0,7.816154957E0
5.810144082E2,5.151148796E0,-2.975475073E0,7.460821152E0
5.815144082E2,4.825126648E0,-2.793022156E0,7.422535896E0
5.820144082E2,4.183850288E0,-2.724826813E0,7.152745247E0
5.825144082E2,4.769493580E0,-3.159722328E0,9.841081619E0
5.830144082E2,4.059423447E0,-2.682952404E0,7.893323898E0
5.835144082E2,3.772883177E0,-2.666800737E0,9.435498238E0
5.840144082E2,2.788236618E0,-2.448455811E0,8.289934158E0
5.845144082E2,3.932604074E0,-2.788236618E0,9.507881165E0
5.850144082E2,3.675375462E0,-2.403590441E0,9.317651749E0
5.855144082E2,3.584448338E0,-2.626122952E0,9.236295700E0
5.860144082E2,3.497110367E0,-2.529811859E0,8.860024452E0
5.865144082E2,2.845664263E0,-2.214557409E0,7.929814339E0
5.870144082E2,3.807579041E0,-2.865405083E0,1.005643559E1
5.875144082E2,3.394817114E0,-2.641676188E0,9.305088997E0
5.880144082E2,3.922434568E0,-2.614757061E0,9.603593826E0
5.885144082E2,3.123830080E0,-2.535195589E0,8.346165657E0
5.890144082E2,3.042474031E0,-2.620738983E0,8.486145973E0
5.895144082E2,3.476173162E0,-2.879163742E0,9.148359299E0
5.900144082E2,3.559323788E0,-2.362314224E0,7.908876896E0
5.905144082E2,3.595814228E0,-3.090330362E0,9.278169632E0
5.910144082E2,3.902095556E0,-2.571087837E0,8.404789925E0
5.915144082E2,3.915854216E0,-2.579462767E0,8.659027100E0
5.920144082E2,3.845864296E0,-2.836691141E0,8.199604988E0
5.925144082E2,3.874577999E0,-2.780459881E0,8.084749222E0
5.930144082E2,4.047459602E0,-2.892324448E0,8.580661774E0
5.935144082E2,4.498506546E0,-3.209971666E0,9.346364975E0
5.940144082E2,3.918246984E0,-2.548954248E0,7.628318787E0
5.945144082E2,3.765106440E0,-2.793620348E0,8.484949112E0
5.950144082E2,3.952943087E0,-2.616551638E0,8.033304214E0
5.955144082E2,4.256233215E0,-2.922234535E0,8.971888542E0
5.960144082E2,3.933800459E0,-2.356332064E0,7.961519241E0
5.965144082E2,4.059423447E0,-2.988037348E0,8.605786324E0
5.970144082E2,4.182653904E0,-2.676372051E0,8.544171333E0
5.975144082E2,3.713660717E0,-2.608176708E0,8.023732185E0
5.980144082E2,4.313062668E0,-3.068794966E0,9.177671432E0
5.985144082E2,4.045066833E0,-2.627319336E0,8.531609535E0
5.990144082E2,4.383651257E0,-2.944368362E0,8.770293236E0
5.995144082E2,3.721437454E0,-2.687737942E0,7.698906898E0
6.000144082E2,4.420141697E0,-3.241676569E0,9.587442398E0
6.005144082E2,4.064209461E0,-2.554338217E0,8.066802979E0
6.010144082E2,4.525425911E0,-3.145963669E0,9.187242508E0
6.015144082E2,3.817150354E0,-2.341377020E0,7.826324463E0
6.020144082E2,5.069792747E0,-3.503092289E0,9.625727654E0
6.025144082E2,4.078566074E0,-2.539382935E0,7.746165276E0
6.030144082E2,4.444668293E0,-3.204587698E0,8.657232285E0
6.035144082E2,4.313062668E0,-2.526820660E0,7.805387497E0
6.040144082E2,4.576871395E0,-3.425325632E0,8.968298912E0
6.045144082E2,4.176073551E0,-2.886940479E0,8.127222061E0
6.050144082E2,4.347160339E0,-2.810968399E0,8.891729355E0
6.055144082E2,4.170091629E0,-2.813959360E0,8.338388443E0
6.060144082E2,4.176671982E0,-2.984447956E0,9.059226990E0
6.065144082E2,3.871587038E0,-2.682952404E0,7.995616913E0
6.070144082E2,3.925425529E0,-2.935395241E0,8.800801277E0
6.075144082E2,3.987638950E0,-2.693121910E0,8.178668022E0
6.080144082E2,4.348955154E0,-3.437887907E0,9.830911636E0
6.085144082E2,3.748954773E0,-2.481955290E0,7.808976650E0
6.090144082E2,3.647858143E0,-2.449054003E0,7.615756035E0
6.095144082E2,5.176871777E0,-3.782454491E0,9.700503349E0
6.100144082E2,4.519443989E0,-2.590230465E0,7.342974663E0
6.105144082E2,5.112265587E0,-3.207578659E0,8.749356270E0
6.110144082E2,4.984847546E0,-2.982653379E0,7.579265594E0
6.115144082E2,5.212764263E0,-3.152543783E0,7.384250641E0
6.120144082E2,5.633901119E0,-3.536591768E0,7.746763229E0
6.125144082E2,6.025127411E0,-3.262613773E0,7.304689407E0
6.130144082E2,6.141777515E0,-3.583251953E0,7.521838188E0
6.135144082E2,5.383851051E0,-3.367299557E0,6.781259537E0
6.140144082E2,5.285147190E0,-3.332603693E0,6.320042610E0
6.145144082E2,5.821139336E0,-3.579662561E0,7.157530785E0
6.150144082E2,5.881557941E0,-3.297309637E0,7.086344242E0
6.155144082E2,5.611767292E0,-3.431307554E0,7.557730198E0
6.160144082E2,5.538187981E0,-3.509074450E0,7.590033531E0
6.165144082E2,5.417350292E0,-3.228515863E0,7.372884750E0
6.170144082E2,5.511268616E0,-3.597608805E0,7.562515736E0
6.175144082E2,4.618147850E0,-2.931805849E0,6.631109715E0
6.180144082E2,5.322834015E0,-3.359523058E0,8.127820015E0
6.185144082E2,5.171487808E0,-2.953939438E0,7.674380302E0
6.190144082E2,4.487739086E0,-3.147160053E0,7.733603001E0
6.195144082E2,4.183850288E0,-3.067598581E0,8.095517159E0
6.200144082E2,4.496711731E0,-3.080160856E0,8.883354187E0
6.205144082E2,4.070789337E0,-2.791825771E0,8.038687706E0
6.210144082E2,3.724428415E0,-2.686541557E0,8.019545555E0
6.215144082E2,4.411168575E0,-3.477967739E0,9.561718941E0
6.220144082E2,3.638885021E0,-3.011367321E0,7.961519241E0
6.225144082E2,3.762713671E0,-3.048455954E0,8.206185341E0
6.230144082E2,3.893720627E0,-2.785245657E0,7.886743546E0
6.235144082E2,4.049852371E0,-3.221935749E0,8.674580574E0
6.240144082E2,4.398007870E0,-3.083750248E0,8.658429146E0
6.245144082E2,4.410570145E0,-3.233301640E0,8.922237396E0
6.250144082E2,4.195814610E0,-3.404388428E0,8.974879265E0
6.255144082E2,3.973282099E0,-3.190230846E0,7.983652592E0
6.260144082E2,4.061816216E0,-2.963510752E0,8.070392609E0
6.265144082E2,4.053441525E0,-3.236890793E0,8.596215248E0
6.270144082E2,4.149154663E0,-3.068794966E0,8.445467949E0
6.275144082E2,4.128217220E0,-3.407379389E0,9.140582085E0
6.280144082E2,4.157529354E0,-3.472583771E0,8.682954788E0
6.285144082E2,3.729812384E0,-2.854039192E0,7.771887779E0
6.290144082E2,3.705883980E0,-2.918047190E0,8.062616348E0
6.295144082E2,4.280161381E0,-3.011965513E0,8.803792953E0
6.300144082E2,4.238286972E0,-3.573082447E0,9.692726135E0
6.305144082E2,3.422932863E0,-2.383251429E0,7.196413994E0
6.310144082E2,4.551148891E0,-3.676572084E0,9.319445610E0
6.315144082E2,3.924229145E0,-2.534597397E0,7.310671329E0
6.320144082E2,4.073780537E0,-3.126222849E0,8.487939835E0
6.325144082E2,3.700500250E0,-2.714657307E0,7.700103283E0
6.330144082E2,4.079164505E0,-3.223730326E0,8.974281311E0
6.335144082E2,3.681357622E0,-2.509472847E0,7.644470215E0
6.340144082E2,4.514657974E0,-3.498306751E0,9.163313866E0
6.345144082E2,3.609572887E0,-3.099901676E0,8.024331093E0
6.350144082E2,3.681357622E0,-3.229114056E0,8.000402451E0
6.355144082E2,4.116851330E0,-3.400799274E0,8.652446747E0
6.360144082E2,4.015156269E0,-2.918047190E0,8.127820015E0
6.365144082E2,4.089931965E0,-3.440878868E0,9.182456970E0
6.370144082E2,4.116851330E0,-3.271586657E0,8.451449394E0
6.375144082E2,4.463212490E0,-3.410968781E0,8.668598175E0
6.380144082E2,3.683750391E0,-3.219542980E0,7.714460373E0
6.385144082E2,4.032504559E0,-3.447459221E0,8.477172852E0
6.390144082E2,3.921238184E0,-3.102892876E0,8.094321251E0
6.395144082E2,4.206582069E0,-3.384647608E0,8.977870941E0
6.400144082E2,3.916452408E0,-3.372085333E0,8.968298912E0
6.405144082E2,3.238087177E0,-2.930609465E0,8.002795219E0
6.410144082E2,3.284747362E0,-2.715255499E0,8.148757935E0
6.415144082E2,3.389433384E0,-2.790031195E0,8.693722725E0
6.420144082E2,3.199802160E0,-3.099901676E0,9.498309135E0
6.425144082E2,2.231307030E0,-2.293520451E0,7.693522930E0
6.430144082E2,2.478964329E0,-3.132802963E0,9.744770050E0
6.435144082E2,2.231307030E0,-2.221735716E0,8.397610664E0
6.440144082E2,2.365305185E0,-2.717050076E0,9.265008926E0
6.445144082E2,2.237887383E0,-2.706880569E0,8.976076126E0
6.450144082E2,2.624328136E0,-2.994617462E0,9.342776299E0
6.455144082E2,2.338984251E0,-2.799602509E0,9.108877182E0
6.460144082E2,2.183450699E0,-2.707478762E0,8.880961418E0
6.465144082E2,2.499901533E0,-2.618944407E0,8.636295319E0
6.470144082E2,2.735594511E0,-2.932404041E0,9.477372169E0
6.475144082E2,2.245664120E0,-2.796013355E0,8.997013092E0
6.480144082E2,2.989233732E0,-3.324826956E0,9.853643417E0
6.485144082E2,2.573480844E0,-2.538186550E0,8.054241180E0
6.490144082E2,3.517449379E0,-3.107080221E0,9.111868858E0
6.495144082E2,3.903890133E0,-3.160320520E0,8.729017258E0
6.500144082E2,3.590430260E0,-3.150151014E0,8.955139160E0
6.505144082E2,3.418745279E0,-3.152543783E0,8.849854469E0
6.510144082E2,2.957528830E0,-2.898904562E0,8.510073662E0
6.515144082E2,3.659224033E0,-3.223730326E0,8.526823044E0
6.520144082E2,3.817150354E0,-3.218944550E0,8.730213165E0
6.525144082E2,3.628715515E0,-3.217149973E0,8.301300049E0
6.530144082E2,4.039084435E0,-3.351148129E0,8.725427628E0
6.535144082E2,3.635894060E0,-2.970091105E0,7.969893932E0
6.540144082E2,3.854238987E0,-3.828516245E0,8.464610100E0
6.545144082E2,3.611367464E0,-3.463012457E0,8.250452042E0
6.550144082E2,3.948157310E0,-3.423531055E0,8.448458672E0
6.555144082E2,3.906881094E0,-3.750151396E0,9.341579437E0
6.560144082E2,3.793222189E0,-3.270390272E0,8.132007599E0
6.565144082E2,3.964308977E0,-3.456432343E0,8.818747520E0
6.570144082E2,3.658027649E0,-3.827319860E0,9.038887978E0
6.575144082E2,4.075575352E0,-3.451646566E0,7.758727551E0
6.580144082E2,4.935794830E0,-4.021138668E0,8.652446747E0
6.585144082E2,4.512863636E0,-3.826721668E0,7.258627415E0
6.590144082E2,4.582853794E0,-3.841078520E0,7.640881062E0
6.595144082E2,3.701098442E0,-3.329014540E0,7.373483181E0
6.600144082E2,4.030709743E0,-3.384647608E0,8.668598175E0
6.605144082E2,2.908475876E0,-3.107080221E0,8.145168304E0
6.610144082E2,2.688336134E0,-2.681756020E0,8.048258781E0
6.615144082E2,3.334398270E0,-3.212962627E0,9.504291534E0
6.620144082E2,2.783450842E0,-2.482553482E0,7.447660446E0
6.625144082E2,3.449253798E0,-3.101098061E0,8.963513374E0
6.630144082E2,3.288934708E0,-2.774477959E0,8.398807526E0
6.635144082E2,3.675375462E0,-3.080759048E0,8.945567131E0
6.640144082E2,2.673979282E0,-2.307877541E0,7.234699249E0
6.645144082E2,2.994019270E0,-3.323032379E0,9.677771568E0
6.650144082E2,2.566302299E0,-2.233101845E0,8.304888725E0
6.655144082E2,3.284149170E0,-2.903690338E0,8.890532494E0
6.660144082E2,4.179663181E0,-3.297309637E0,1.010070229E1
6.665144082E2,3.584448338E0,-2.600399971E0,7.807182312E0
6.670144082E2,4.782055855E0,-3.410370588E0,8.708079338E0
6.675144082E2,4.819144726E0,-3.190829039E0,7.499105930E0
6.680144082E2,5.127220631E0,-3.573082447E0,8.155936241E0
6.685144082E2,4.509274483E0,-3.410968781E0,8.483154297E0
6.690144082E2,4.296313286E0,-2.956332445E0,8.612366676E0
6.695144082E2,3.874577999E0,-2.882154942E0,8.492725372E0
6.700144082E2,3.892524242E0,-3.207578659E0,9.061020851E0
6.705144082E2,3.934996843E0,-2.812762976E0,8.596215248E0
6.710144082E2,3.725026608E0,-2.849253654E0,8.041080475E0
6.715144082E2,3.945166349E0,-3.271586657E0,8.997013092E0
6.720144082E2,3.779463291E0,-2.550748825E0,7.462017536E0
6.725144082E2,3.929014683E0,-3.448655605E0,9.043074608E0
6.730144082E2,3.777070522E0,-2.730808735E0,7.954938889E0
6.735144082E2,4.214358807E0,-3.305086374E0,8.962317467E0
6.740144082E2,3.644867182E0,-2.844467878E0,8.029116631E0
6.745144082E2,4.339384079E0,-3.093321562E0,8.958727837E0
6.750144082E2,3.742374659E0,-2.764906645E0,8.232506752E0
6.755144082E2,3.876372576E0,-3.319443226E0,8.968298912E0
6.760144082E2,3.924229145E0,-2.781656265E0,8.204390526E0
6.765144082E2,4.030709743E0,-3.150151014E0,8.878568649E0
6.770144082E2,3.882952929E0,-2.895315409E0,8.124829292E0
6.775144082E2,3.568296671E0,-3.209373474E0,8.596813202E0
6.780144082E2,4.127020836E0,-2.810370207E0,8.565108299E0
6.785144082E2,4.176073551E0,-3.007179976E0,8.708079338E0
6.790144082E2,4.021736622E0,-2.891726255E0,8.545368195E0
6.795144082E2,4.164707661E0,-3.172882795E0,8.925228119E0
6.800144082E2,3.783650875E0,-2.913261652E0,8.116454124E0
6.805144082E2,3.916452408E0,-3.024527788E0,8.244470596E0
6.810144082E2,4.153940201E0,-3.138186932E0,8.997013092E0
6.815144082E2,3.954737663E0,-3.000599623E0,8.383254051E0
6.820144082E2,4.344169617E0,-3.401397467E0,9.225527763E0
6.825144082E2,3.650250912E0,-3.160320520E0,8.557929993E0
6.830144082E2,4.043870449E0,-3.510869026E0,8.993423462E0
6.835144082E2,3.555734396E0,-3.110669374E0,7.719245911E0
6.840144082E2,3.896711588E0,-3.272184849E0,8.428717613E0
6.845144082E2,3.608376503E0,-3.024527788E0,8.166105270E0
6.850144082E2,4.624129772E0,-3.488735437E0,9.620343208E0
6.855144082E2,3.537788391E0,-3.105883837E0,8.027321815E0
6.860144082E2,3.470789194E0,-3.370290756E0,8.398807526E0
6.865144082E2,3.731008768E0,-3.205185890E0,8.461020470E0
6.870144082E2,3.597010612E0,-3.025724173E0,8.151748657E0
6.875144082E2,4.107280254E0,-3.287738323E0,9.143573761E0
6.880144082E2,3.968496323E0,-3.069393158E0,8.861818314E0
6.885144082E2,3.856033802E0,-3.227319479E0,8.641080856E0
6.890144082E2,3.934996843E0,-3.129812002E0,8.569295883E0
6.895144082E2,3.779463291E0,-3.228515863E0,8.471788406E0
6.900144082E2,3.707080364E0,-2.806182861E0,8.066802979E0
6.905144082E2,4.026522160E0,-3.319443226E0,8.912068367E0
6.910144082E2,3.805784464E0,-3.054438114E0,8.267800331E0
6.915144082E2,3.981656790E0,-3.035893679E0,8.554939270E0
6.920144082E2,4.179663181E0,-3.305684566E0,9.195018768E0
6.925144082E2,3.595216036E0,-2.937189817E0,8.203792572E0
6.930144082E2,3.456432343E0,-2.843869686E0,7.922037601E0
6.935144082E2,4.058227062E0,-3.142374277E0,8.624929428E0
6.940144082E2,4.160520554E0,-3.059223652E0,8.577671051E0
6.945144082E2,3.960719585E0,-3.028116941E0,8.765507698E0
6.950144082E2,4.011567116E0,-3.025724173E0,8.464610100E0
6.955144082E2,3.918246984E0,-2.831905603E0,8.225327492E0
6.960144082E2,3.571886063E0,-2.954537868E0,7.471588612E0
6.965144082E2,3.525225878E0,-3.373879910E0,7.582256794E0
6.970144082E2,3.781856298E0,-3.573082447E0,8.401798248E0
6.975144082E2,3.638885021E0,-3.366103172E0,7.792825222E0
6.980144082E2,4.036093712E0,-3.652643681E0,8.869595528E0
6.985144082E2,4.088137627E0,-3.290729284E0,8.518448830E0
6.990144082E2,3.584448338E0,-3.860221148E0,8.738588333E0
6.995144082E2,3.672384501E0,-3.141177893E0,7.868797302E0
7.000144082E2,4.004388809E0,-3.645465374E0,9.211171150E0
7.005144082E2,3.480360508E0,-3.211168051E0,7.574480057E0
7.010144082E2,3.860819340E0,-3.927818298E0,9.230313301E0
7.015144082E2,3.573680639E0,-3.207578659E0,7.770691395E0
7.020144082E2,3.439084291E0,-3.485744476E0,8.099106789E0
7.025144082E2,3.849453449E0,-3.630510092E0,8.783453941E0
7.030144082E2,3.518645763E0,-3.452244759E0,8.639883995E0
7.035144082E2,3.559323788E0,-3.250649452E0,7.867600918E0
7.040144082E2,3.446861029E0,-3.547957659E0,8.176873207E0
7.045144082E2,3.731606960E0,-3.525824070E0,8.374878883E0
7.050144082E2,4.035495281E0,-3.305086374E0,8.279166222E0
7.055144082E2,3.836292982E0,-3.514458179E0,8.960522652E0
7.060144082E2,3.661018610E0,-3.428316593E0,8.043473244E0
7.065144082E2,4.174279213E0,-3.421736479E0,8.646464348E0
7.070144082E2,3.627519131E0,-3.492324591E0,8.367102623E0
7.075144082E2,3.375076294E0,-3.480360508E0,8.121239662E0
7.080144082E2,4.214957237E0,-3.530011654E0,8.404789925E0
7.085144082E2,3.671786308E0,-3.389433384E0,7.685746193E0
7.090144082E2,3.616153240E0,-3.351746321E0,8.219944000E0
7.095144082E2,4.173082829E0,-3.242872953E0,8.196614265E0
7.100144082E2,4.188635826E0,-3.539582968E0,8.213961601E0
7.105144082E2,3.938585997E0,-3.473181963E0,7.938189030E0
7.110144082E2,4.029513359E0,-3.810570002E0,8.228319168E0
7.115144082E2,3.547359467E0,-3.576073408E0,7.470392227E0
7.120144082E2,4.246063709E0,-4.061816216E0,9.019146919E0
7.125144082E2,3.648456335E0,-4.098307133E0,8.760722160E0
7.130144082E2,3.700500250E0,-3.815355778E0,7.829315662E0
7.135144082E2,3.437887907E0,-4.353142738E0,8.589036942E0
7.140144082E2,2.529811859E0,-3.458226919E0,6.162116528E0
7.145144082E2,3.177668571E0,-3.401397467E0,6.822535515E0
7.150144082E2,4.201796532E0,-4.078566074E0,8.685946465E0
7.155144082E2,2.183450699E0,-2.803191662E0,6.478567123E0
7.160144082E2,3.946362734E0,-5.141577721E0,9.876375198E0
7.165144082E2,2.394019127E0,-3.673580885E0,6.387042046E0
7.170144082E2,3.780659676E0,-5.532206059E0,9.361918449E0
7.175144082E2,2.821736097E0,-3.957728624E0,6.784848690E0
7.180144082E2,3.294318676E0,-5.103292465E0,8.725427628E0
7.185144082E2,3.163311481E0,-4.993222713E0,8.339585304E0
7.190144082E2,2.759522676E0,-4.659423828E0,7.835297585E0
7.195144082E2,2.244467735E0,-5.475974560E0,7.818548203E0
7.200144082E2,2.203191519E0,-3.960719585E0,8.363512993E0
7.205144082E2,2.572882652E0,-3.987638950E0,8.986245155E0
7.210144082E2,2.456232548E0,-3.582653761E0,8.376075745E0
7.215144082E2,2.877369165E0,-3.573082447E0,8.939585686E0
7.220144082E2,3.582653761E0,-3.399004459E0,8.863015175E0
7.225144082E2,4.040879250E0,-3.561716557E0,9.113064766E0
7.230144082E2,3.684946775E0,-3.300898790E0,8.120043755E0
7.235144082E2,3.771088600E0,-3.223730326E0,8.081160545E0
7.240144082E2,4.197010994E0,-3.600001574E0,8.692526817E0
7.245144082E2,4.171886444E0,-3.521038532E0,8.079365730E0
7.250144082E2,4.423132420E0,-3.469592810E0,8.605786324E0
7.255144082E2,4.137788773E0,-3.410968781E0,7.837092400E0
7.260144082E2,3.699303865E0,-3.346960783E0,7.468597889E0
7.265144082E2,4.255635262E0,-3.574877024E0,8.335397720E0
7.270144082E2,2.830111027E0,-3.721437454E0,7.775477409E0
7.275144082E2,3.026322365E0,-4.048655987E0,8.477172852E0
7.280144082E2,2.561516523E0,-5.236692429E0,8.352147102E0
7.285144082E2,2.464607239E0,-4.857429981E0,7.968099594E0
7.290144082E2,2.833101988E0,-4.953142643E0,8.249256134E0
7.295144082E2,2.927618504E0,-4.716851711E0,8.245666504E0
7.300144082E2,3.003590584E0,-4.543372154E0,8.325826645E0
7.305144082E2,3.477369547E0,-4.277170658E0,8.196015358E0
7.310144082E2,2.944368362E0,-4.428516388E0,8.340183258E0
7.315144082E2,2.840878725E0,-2.778665304E0,8.440083504E0
7.320144082E2,3.390031576E0,-3.011965513E0,8.420941353E0
7.325144082E2,3.683750391E0,-3.253042459E0,8.886942863E0
7.330144082E2,3.542573929E0,-2.702693224E0,8.654241562E0
7.335144082E2,3.614956856E0,-3.011965513E0,8.913862228E0
7.340144082E2,3.407379389E0,-2.867797852E0,8.682356834E0
7.345144082E2,3.686143398E0,-3.024527788E0,8.813364029E0
7.350144082E2,3.702893019E0,-2.723032236E0,8.555537224E0
7.355144082E2,3.594019651E0,-3.118446112E0,8.961718559E0
7.360144082E2,3.511467218E0,-2.833101988E0,8.687142372E0
7.365144082E2,3.560520172E0,-2.957528830E0,8.768498421E0
7.370144082E2,3.455235958E0,-2.978466034E0,8.682954788E0
7.375144082E2,3.634099483E0,-3.083152056E0,8.804390907E0
7.380144082E2,3.736392498E0,-2.864806890E0,8.687142372E0
7.385144082E2,3.497110367E0,-2.903690338E0,8.831310272E0
7.390144082E2,4.069592953E0,-2.377269268E0,9.223134995E0
7.395144082E2,3.866801500E0,-1.135992527E0,8.662017822E0
7.400144082E2,3.916452408E0,-1.496112347E0,9.136993408E0
7.405144082E2,3.790230989E0,-1.668993831E0,8.790034294E0
7.410144082E2,4.074378967E0,-1.731207132E0,8.912068367E0
7.415144082E2,3.878167391E0,-1.433898926E0,9.129216194E0
7.420144082E2,3.798007727E0,-1.618744493E0,8.696713448E0
7.425144082E2,4.214358807E0,-1.775474429E0,8.723034859E0
7.430144082E2,4.547559261E0,-1.668993831E0,8.992227554E0
7.435144082E2,4.412364960E0,-2.190030813E0,8.282755852E0
7.440144082E2,4.091726780E0,-2.014756680E0,8.002795219E0
7.445144082E2,4.606781960E0,-2.432902336E0,8.902496338E0
7.450144082E2,4.804787636E0,-2.338385820E0,8.685946465E0
7.455144082E2,4.964509010E0,-2.322832584E0,9.041878700E0
7.460144082E2,4.447659016E0,-2.352742910E0,8.608179092E0
7.465144082E2,2.928814888E0,-2.053041935E0,8.602795601E0
7.470144082E2,3.955934048E0,-2.398804665E0,8.644071579E0
7.475144082E2,3.589233875E0,-2.233700037E0,8.955737114E0
7.480144082E2,3.781856298E0,-2.506481647E0,9.175876617E0
7.485144082E2,3.638286829E0,-2.348555326E0,8.816953659E0
7.490144082E2,2.663809776E0,-2.279761791E0,9.837491989E0
7.495144082E2,3.133401155E0,-2.117049932E0,9.775876999E0
7.500144082E2,4.197010994E0,-1.877767563E0,9.810572624E0
7.505144082E2,3.539582968E0,-2.749951363E0,8.386244774E0
7.510144082E2,4.482355118E0,-2.620738983E0,8.562715530E0
7.515144082E2,5.150550842E0,-2.550748825E0,8.790034294E0
7.520144082E2,4.334598064E0,-2.482553482E0,8.346165657E0
7.525144082E2,3.932604074E0,-2.444268227E0,8.742177963E0
7.530144082E2,4.800002098E0,-2.568695068E0,8.472386360E0
7.535144082E2,4.013361931E0,-2.445464849E0,8.778668404E0
7.540144082E2,4.204787731E0,-2.341377020E0,8.420941353E0
7.545144082E2,4.206582069E0,-2.370090723E0,8.536395073E0
7.550144082E2,3.991228104E0,-2.632104874E0,8.529814720E0
7.555144082E2,4.472783566E0,-2.496910334E0,8.189435959E0
7.560144082E2,4.568496704E0,-2.778665304E0,9.241081238E0
7.565144082E2,4.080360889E0,-2.319243431E0,8.449654579E0
7.570144082E2,4.238286972E0,-2.685943365E0,9.011369705E0
7.575144082E2,4.441078663E0,-2.609971285E0,8.582456589E0
7.580144082E2,4.023531437E0,-2.428116798E0,8.090731621E0
7.585144082E2,3.827319860E0,-2.549552441E0,8.273183823E0
7.590144082E2,4.184448719E0,-2.489732027E0,8.514859200E0
7.595144082E2,4.267599106E0,-2.445464849E0,8.379665375E0
7.600144082E2,4.170091629E0,-2.388036966E0,8.360522270E0
7.605144082E2,4.191029072E0,-2.554338217E0,8.874381065E0
7.610144082E2,3.848855257E0,-2.705684185E0,8.490931511E0
7.615144082E2,4.478167534E0,-2.494517565E0,8.568099976E0
7.620144082E2,4.461417675E0,-2.424527645E0,8.910871506E0
7.625144082E2,4.021138668E0,-2.520838737E0,8.481359482E0
7.630144082E2,4.418346882E0,-2.573480844E0,8.852247238E0
7.635144082E2,4.222733974E0,-2.429911375E0,8.550751686E0
7.640144082E2,4.210171223E0,-2.444268227E0,8.443673134E0
7.645144082E2,4.283152580E0,-2.391626120E0,8.416155815E0
7.650144082E2,3.893720627E0,-2.592623234E0,8.140382767E0
7.655144082E2,3.857230186E0,-2.925823927E0,8.512466431E0
7.660144082E2,4.050450325E0,-2.530410051E0,8.516654015E0
7.665144082E2,3.684946775E0,-2.737389088E0,8.682954788E0
7.670144082E2,3.800998688E0,-2.357528448E0,8.124231339E0
7.675144082E2,4.077369690E0,-2.720041037E0,8.890532494E0
7.680144082E2,3.702294827E0,-2.719442844E0,8.361719131E0
7.685144082E2,3.726222992E0,-2.494517565E0,8.363512993E0
7.690144082E2,4.346562386E0,-2.847458839E0,8.938388824E0
7.695144082E2,3.865604877E0,-2.695514679E0,8.421539307E0
7.700144082E2,4.021138668E0,-2.824727058E0,9.008378983E0
7.705144082E2,3.393022537E0,-2.332403898E0,7.972885132E0
7.710144082E2,4.213162422E0,-2.852244616E0,8.994022369E0
7.715144082E2,3.812962770E0,-2.853441000E0,8.371888161E0
7.720144082E2,3.810570002E0,-2.842673302E0,8.496315002E0
7.725144082E2,3.668795347E0,-2.654238462E0,8.483752251E0
7.730144082E2,3.916452408E0,-2.719442844E0,8.411968231E0
7.735144082E2,4.269991875E0,-2.726621389E0,8.352147102E0
7.740144082E2,4.119244099E0,-2.896511793E0,8.960522652E0
7.745144082E2,4.128815651E0,-3.078964472E0,8.867800713E0
7.750144082E2,3.563511133E0,-2.941975355E0,8.066802979E0
7.755144082E2,3.659822226E0,-2.726023197E0,7.981259823E0
7.760144082E2,3.640081406E0,-2.940180779E0,9.023932457E0
7.765144082E2,3.765106440E0,-2.657827854E0,8.505886078E0
7.770144082E2,3.673580885E0,-2.764308453E0,8.093722343E0
7.775144082E2,4.102494240E0,-2.853441000E0,8.324031830E0
7.780144082E2,3.925425529E0,-2.922234535E0,8.934800148E0
7.785144082E2,3.948157310E0,-2.925823927E0,8.294719696E0
7.790144082E2,3.792025566E0,-3.034099102E0,8.839086533E0
7.795144082E2,3.922434568E0,-2.802593470E0,7.746763229E0
7.800144082E2,3.670589924E0,-2.920439959E0,8.245666504E0
7.805144082E2,3.876372576E0,-2.901297569E0,8.821140289E0
7.810144082E2,3.751945972E0,-2.749951363E0,8.066802979E0
7.815144082E2,3.570091486E0,-3.132802963E0,8.507680893E0
7.820144082E2,3.634099483E0,-2.854039192E0,8.427521706E0
7.825144082E2,4.089931965E0,-2.998805046E0,8.660223007E0
7.830144082E2,3.810570002E0,-2.827120066E0,8.540582657E0
7.835144082E2,3.878167391E0,-3.032304525E0,9.055637360E0
7.840144082E2,4.135993958E0,-2.807379246E0,8.852247238E0
7.845144082E2,3.792025566E0,-2.843869686E0,8.883354187E0
7.850144082E2,3.887738705E0,-2.659024239E0,8.719446182E0
7.855144082E2,3.815355778E0,-2.803191662E0,8.559724808E0
7.860144082E2,3.884747505E0,-2.937189817E0,8.863015175E0
7.865144082E2,3.621536970E0,-2.662613392E0,8.376673698E0
7.870144082E2,3.951148272E0,-2.643470764E0,8.653642654E0
7.875144082E2,3.772883177E0,-3.037688255E0,9.371489525E0
7.880144082E2,3.525225878E0,-2.507678032E0,8.205587387E0
7.885144082E2,3.799802303E0,-2.662015200E0,8.182256699E0
7.890144082E2,3.461217880E0,-2.359323025E0,7.847261906E0
7.895144082E2,3.965505362E0,-3.003590584E0,9.025727272E0
7.900144082E2,3.544966698E0,-2.336591244E0,7.311269760E0
7.905144082E2,4.061816216E0,-3.338585854E0,9.665806770E0
7.910144082E2,3.546163082E0,-2.645265341E0,7.750950813E0
7.915144082E2,4.223930359E0,-3.248256683E0,9.463015556E0
7.920144082E2,3.753142357E0,-2.633899450E0,8.225327492E0
7.925144082E2,4.046861172E0,-2.949752092E0,8.977870941E0
7.930144082E2,3.984647989E0,-2.756531715E0,8.818149567E0
7.935144082E2,4.031308174E0,-3.029313564E0,8.938388824E0
7.940144082E2,3.693321705E0,-2.874378204E0,8.655437469E0
7.945144082E2,3.994219303E0,-2.953939438E0,9.017950058E0
7.950144082E2,3.574877024E0,-2.810968399E0,8.644669533E0
7.955144082E2,3.628715515E0,-2.784049034E0,8.604590416E0
7.960144082E2,3.783650875E0,-2.755335331E0,8.402397156E0
7.965144082E2,3.279961586E0,-2.959323406E0,8.413164139E0
7.970144082E2,3.801596880E0,-2.895315409E0,8.301300049E0
7.975144082E2,3.722035646E0,-3.362514019E0,9.424132347E0
7.980144082E2,4.085744858E0,-2.965305567E0,8.727222443E0
7.985144082E2,3.957728624E0,-3.365504980E0,9.872786522E0
7.990144082E2,4.035495281E0,-2.807379246E0,8.939585686E0
7.995144082E2,3.726222992E0,-2.975475073E0,8.812167168E0
8.000144082E2,3.470789194E0,-2.802593470E0,8.531010628E0
8.005144082E2,3.369094372E0,-2.693121910E0,8.470592499E0
8.010144082E2,3.710669756E0,-2.994617462E0,9.007781029E0
8.015144082E2,3.370290756E0,-2.705085993E0,8.124829292E0
8.020144082E2,3.693321705E0,-2.989233732E0,8.714659691E0
8.025144082E2,3.510869026E0,-2.909672260E0,8.625527382E0
8.030144082E2,3.713660717E0,-2.939582586E0,8.498109818E0
8.035144082E2,3.573680639E0,-3.147160053E0,9.023932457E0
8.040144082E2,4.187439442E0,-2.974876642E0,8.722436905E0
8.045144082E2,3.798007727E0,-2.787040234E0,8.696713448E0
8.050144082E2,3.786641836E0,-3.123830080E0,8.847461700E0
8.055144082E2,3.750749588E0,-2.938386202E0,8.185248375E0
8.060144082E2,3.576671600E0,-3.008376360E0,8.431110382E0
8.065144082E2,3.601796389E0,-2.834896564E0,8.409575462E0
8.070144082E2,3.791427374E0,-3.055036306E0,8.716454506E0
8.075144082E2,3.078366280E0,-2.759522676E0,8.111668587E0
8.080144082E2,3.662813187E0,-3.102892876E0,9.057432175E0
8.085144082E2,3.346960783E0,-2.784049034E0,8.182256699E0
8.090144082E2,3.906881094E0,-3.276372433E0,9.408578873E0
8.095144082E2,3.774079561E0,-2.552543640E0,8.517251968E0
8.100144082E2,3.747160196E0,-3.457030535E0,8.857032776E0
8.105144082E2,3.317648649E0,-3.250649452E0,8.593224525E0
8.110144082E2,3.731008768E0,-3.420539856E0,9.058030128E0
8.115144082E2,3.509074450E0,-3.017947674E0,8.176873207E0
8.120144082E2,3.827319860E0,-3.290729284E0,8.789435387E0
8.125144082E2,3.595216036E0,-2.941377163E0,7.913662910E0
8.130144082E2,4.165306091E0,-3.248256683E0,8.966505051E0
8.135144082E2,3.470789194E0,-3.128017426E0,8.447860718E0
8.140144082E2,3.269792080E0,-3.351746321E0,8.698508263E0
8.145144082E2,3.585644722E0,-2.702095032E0,7.591827869E0
8.150144082E2,4.407579422E0,-3.592823267E0,9.049654961E0
8.155144082E2,3.653241873E0,-2.865405083E0,8.003393173E0
8.160144082E2,3.916452408E0,-3.550948858E0,9.084949493E0
8.165144082E2,4.011567116E0,-3.020938635E0,8.236095428E0
8.170144082E2,3.966103554E0,-3.485744476E0,8.963513374E0
8.175144082E2,3.823730469E0,-3.050250769E0,8.048258781E0
8.180144082E2,3.955934048E0,-3.293720484E0,8.780462265E0
8.185144082E2,3.676572084E0,-3.408575773E0,8.818149567E0
8.190144082E2,3.635295868E0,-2.816950560E0,7.588238716E0
8.195144082E2,3.891926050E0,-3.648456335E0,9.717850685E0
8.200144082E2,3.506681681E0,-2.870190859E0,8.036294937E0
8.205144082E2,3.745365620E0,-3.418147087E0,8.560322762E0
8.210144082E2,3.747160196E0,-3.587439299E0,8.706285477E0
8.215144082E2,3.142374277E0,-4.597210407E0,8.105687141E0
8.220144082E2,3.091526747E0,-4.395017147E0,8.119445801E0
8.225144082E2,3.524029493E0,-4.626522541E0,8.850452423E0
8.230144082E2,3.372683525E0,-3.805784464E0,8.170890808E0
8.235144082E2,3.382254839E0,-4.581058979E0,9.373882294E0
8.240144082E2,2.913261652E0,-3.980460405E0,8.716454506E0
8.245144082E2,2.571686029E0,-3.677170277E0,8.785248756E0
8.250144082E2,2.396411896E0,-3.177668571E0,9.027522087E0
8.255144082E2,2.778665304E0,-3.257827997E0,8.859425545E0
8.260144082E2,3.129812002E0,-3.314657450E0,8.965308189E0
8.265144082E2,4.018147469E0,-3.845864296E0,9.187242508E0
8.270144082E2,3.735794306E0,-3.231507063E0,7.998608112E0
8.275144082E2,3.791427374E0,-3.552743435E0,8.925228119E0
8.280144082E2,4.438087940E0,-3.601796389E0,7.752745152E0
8.285144082E2,4.566701889E0,-3.975674868E0,8.971888542E0
8.290144082E2,3.702294827E0,-3.204587698E0,7.191628456E0
8.295144082E2,3.504288673E0,-3.759722471E0,8.717651367E0
8.300144082E2,3.399602890E0,-3.530011654E0,7.969295979E0
8.305144082E2,3.268595695E0,-3.449253798E0,8.294719696E0
8.310144082E2,3.388236761E0,-3.466003656E0,8.697312355E0
8.315144082E2,3.317648649E0,-3.793222189E0,8.761320114E0
8.320144082E2,3.131606579E0,-3.812962770E0,8.000402451E0
8.325144082E2,3.062813044E0,-4.372883320E0,8.209176064E0
8.330144082E2,3.118446112E0,-4.268795490E0,8.821739197E0
8.335144082E2,3.244667530E0,-4.846662045E0,8.366504669E0
8.340144082E2,2.418545485E0,-4.350151539E0,7.867600918E0
8.345144082E2,3.713660717E0,-4.164707661E0,8.142177582E0
8.350144082E2,2.901895761E0,-4.037888050E0,8.538787842E0
8.355144082E2,3.278167009E0,-4.399802685E0,8.391031265E0
8.360144082E2,3.231507063E0,-3.578466177E0,8.411968231E0
8.365144082E2,3.609572887E0,-2.831905603E0,8.263612747E0
8.370144082E2,3.561716557E0,-3.148954630E0,8.956933022E0
8.375144082E2,3.686143398E0,-2.751745939E0,8.510671616E0
8.380144082E2,3.650250912E0,-3.040679455E0,8.852247238E0
8.385144082E2,3.491726398E0,-2.842673302E0,8.536395073E0
8.390144082E2,3.714857101E0,-2.949153900E0,8.639286041E0
8.395144082E2,3.629313707E0,-2.877967358E0,8.574680328E0
8.400144082E2,3.656233072E0,-3.006581545E0,8.737391472E0
8.405144082E2,3.470789194E0,-2.921038151E0,8.644071579E0
8.410144082E2,3.680161238E0,-2.928814888E0,8.693722725E0
8.415144082E2,3.580859184E0,-2.915654421E0,8.639883995E0
8.420144082E2,3.561716557E0,-2.931805849E0,8.713463783E0
8.425144082E2,3.640081406E0,-2.872583628E0,8.620143890E0
8.430144082E2,3.503092289E0,-2.938386202E0,8.772088051E0
8.435144082E2,3.882354736E0,-2.565105915E0,8.940781593E0
8.440144082E2,3.584448338E0,-2.188834429E0,8.892925262E0
8.445144082E2,3.482753277E0,-2.526820660E0,8.866005898E0
8.450144082E2,3.836891174E0,-2.491526604E0,8.733802795E0
8.455144082E2,3.609572887E0,-2.575873613E0,8.758927345E0
8.460144082E2,3.750749588E0,-2.617748022E0,8.708079338E0
8.465144082E2,3.617947817E0,-2.690729141E0,8.569893837E0
8.470144082E2,3.728017569E0,-2.659622431E0,8.883354187E0
8.475144082E2,3.687937975E0,-1.761117458E0,8.784649849E0
8.480144082E2,3.972085476E0,-1.734198213E0,8.936594009E0
8.485144082E2,3.784249067E0,-1.808973908E0,8.904291153E0
8.490144082E2,3.719642878E0,-1.975275040E0,9.056235313E0
8.495144082E2,3.908675671E0,-1.733600020E0,8.289934158E0
8.500144082E2,4.072584152E0,-1.948953986E0,8.562715530E0
8.505144082E2,4.588237286E0,-2.330609322E0,8.496315002E0
8.510144082E2,3.871587038E0,-2.099701881E0,8.270791054E0
8.515144082E2,4.426722050E0,-2.236690998E0,9.140582085E0
8.520144082E2,3.777668715E0,-2.147558212E0,8.880363464E0
8.525144082E2,3.692723513E0,-2.364108801E0,8.584251404E0
8.530144082E2,3.480958700E0,-2.126621008E0,8.785248756E0
8.535144082E2,3.195614576E0,-2.163111687E0,8.967103004E0
8.540144082E2,3.410968781E0,-2.180459738E0,9.055637360E0
8.545144082E2,3.327219963E0,-2.120040894E0,9.901499748E0
8.550144082E2,3.603590965E0,-2.294118643E0,9.319445610E0
8.555144082E2,3.388236761E0,-1.593619823E0,8.228319168E0
8.560144082E2,3.871587038E0,-1.849053741E0,8.912666321E0
8.565144082E2,4.072584152E0,-2.389233351E0,8.863015175E0
8.570144082E2,3.528815269E0,-2.437089920E0,9.268598557E0
8.575144082E2,3.753740549E0,-2.056032896E0,8.127222061E0
8.580144082E2,2.847458839E0,-2.020738840E0,8.478368759E0
8.585144082E2,4.225724697E0,-2.603390932E0,9.357132912E0
8.590144082E2,3.387040377E0,-2.328814745E0,8.810373306E0
8.595144082E2,3.697509289E0,-2.262413740E0,8.759525299E0
8.600144082E2,4.272384644E0,-2.217548370E0,9.344570160E0
8.605144082E2,3.528217077E0,-2.683550596E0,8.634500504E0
8.610144082E2,3.568296671E0,-2.389233351E0,8.711668968E0
8.615144082E2,3.702893019E0,-2.492124796E0,8.870791435E0
8.620144082E2,3.542573929E0,-2.487339020E0,9.080163956E0
8.625144082E2,3.383451223E0,-2.592025042E0,9.087940216E0
8.630144082E2,3.511467218E0,-2.681157827E0,9.282357216E0
8.635144082E2,3.174677372E0,-2.442473650E0,9.006584167E0
8.640144082E2,3.319443226E0,-2.403590441E0,9.281160355E0
8.645144082E2,4.066602230E0,-3.083750248E0,1.132283688E1
8.650144082E2,3.918246984E0,-2.301895380E0,9.269794464E0
8.655144082E2,3.204587698E0,-2.294118643E0,8.343173981E0
8.660144082E2,3.446861029E0,-2.525624275E0,8.967103004E0
8.665144082E2,3.303889751E0,-2.395813704E0,8.971290588E0
8.670144082E2,3.270390272E0,-2.257628202E0,8.970093727E0
8.675144082E2,2.893520832E0,-2.346760750E0,9.234500885E0
8.680144082E2,2.830111027E0,-2.016551256E0,8.233104706E0
8.685144082E2,3.107080221E0,-2.541177750E0,8.608179092E0
8.690144082E2,3.099303484E0,-2.418545485E0,8.861220360E0
8.695144082E2,3.020938635E0,-2.539382935E0,9.460023880E0
8.700144082E2,3.114258766E0,-1.984846354E0,8.430512428E0
8.705144082E2,2.601596355E0,-2.104487419E0,8.400003433E0
8.710144082E2,3.594019651E0,-2.798406124E0,9.577272415E0
8.715144082E2,3.308675528E0,-2.319243431E0,8.917451859E0
8.720144082E2,2.887538671E0,-2.510669231E0,9.567701340E0
8.725144082E2,2.982653379E0,-2.349751949E0,8.510073662E0
8.730144082E2,2.937189817E0,-3.238685369E0,8.799605370E0
8.735144082E2,2.773879766E0,-2.371885538E0,7.976474285E0
8.740144082E2,2.971885681E0,-3.375076294E0,9.427721024E0
8.745144082E2,2.903092146E0,-3.080160856E0,8.601000786E0
8.750144082E2,2.772084951E0,-3.228515863E0,8.511868477E0
8.755144082E2,2.598605394E0,-2.785245657E0,8.752944946E0
8.760144082E2,2.595614433E0,-2.863610506E0,8.684151649E0
8.765144082E2,2.755335331E0,-2.757728100E0,8.834300995E0
8.770144082E2,2.300100803E0,-2.384447813E0,8.151150703E0
8.775144082E2,2.640479803E0,-2.689532757E0,8.714659691E0
8.780144082E2,2.951546669E0,-2.641676188E0,8.297112465E0
8.785144082E2,3.683152199E0,-2.949153900E0,8.756534576E0
8.790144082E2,3.295515060E0,-2.903690338E0,8.475378036E0
8.795144082E2,3.408575773E0,-3.083750248E0,8.301300049E0
8.800144082E2,3.408575773E0,-3.107080221E0,8.009973526E0
8.805144082E2,4.042674065E0,-3.046661377E0,8.294719696E0
8.810144082E2,4.816154003E0,-3.656233072E0,9.486943245E0
8.815144082E2,3.564109325E0,-3.245863914E0,8.718249321E0
8.820144082E2,3.619144201E0,-3.313461065E0,8.736793518E0
8.825144082E2,3.699303865E0,-3.185445070E0,7.807182312E0
8.830144082E2,3.841676712E0,-3.116651535E0,8.118248940E0
8.835144082E2,3.854238987E0,-3.187239647E0,8.864211082E0
8.840144082E2,3.174677372E0,-3.196810961E0,8.703293800E0
8.845144082E2,3.544966698E0,-3.148954630E0,9.244669914E0
8.850144082E2,3.284149170E0,-3.490530014E0,8.711071014E0
8.855144082E2,2.737389088E0,-2.908475876E0,8.499305725E0
8.860144082E2,3.329612732E0,-3.694518089E0,9.129216194E0
8.865144082E2,3.363112211E0,-2.847458839E0,7.808378696E0
8.870144082E2,3.394817114E0,-3.253042459E0,8.593224525E0
8.875144082E2,3.429512978E0,-2.458027124E0,7.824530125E0
8.880144082E2,3.697509289E0,-2.690729141E0,8.529814720E0
8.885144082E2,3.444468260E0,-2.539981127E0,8.269595146E0
8.890144082E2,3.402593851E0,-2.834298372E0,8.620143890E0
8.895144082E2,3.712464333E0,-2.787040234E0,9.091529846E0
8.900144082E2,3.346362352E0,-2.662613392E0,8.916853905E0
8.905144082E2,3.444468260E0,-2.624328136E0,8.551948547E0
8.910144082E2,3.428316593E0,-4.131806374E0,9.498309135E0
8.915144082E2,3.232105255E0,-3.353540897E0,8.152944565E0
8.920144082E2,3.539582968E0,-3.372085333E0,9.035298347E0
8.925144082E2,3.182454109E0,-3.095116138E0,8.697312355E0
8.930144082E2,3.212962627E0,-3.059821844E0,8.367102623E0
8.935144082E2,3.965505362E0,-3.341576815E0,9.361918449E0
8.940144082E2,4.086941242E0,-3.881158352E0,8.995817184E0
8.945144082E2,3.799802303E0,-4.042075634E0,8.073383331E0
8.950144082E2,3.296113253E0,-3.857230186E0,7.749155998E0
8.955144082E2,3.003590584E0,-3.255435228E0,8.067401886E0
8.960144082E2,2.685943365E0,-2.148754835E0,8.692526817E0
8.965144082E2,2.663809776E0,-3.407379389E0,9.654440880E0
8.970144082E2,3.065804005E0,-3.115455151E0,8.617152214E0
8.975144082E2,3.764508247E0,-3.221935749E0,7.890332699E0
8.980144082E2,5.524429321E0,-3.814159393E0,7.869395256E0
8.985144082E2,5.313860893E0,-3.850649834E0,7.540382385E0
8.990144082E2,5.729613781E0,-3.889533281E0,6.516254425E0
8.995144082E2,6.209972858E0,-4.346562386E0,6.882954121E0
9.000144082E2,6.049055576E0,-4.465006828E0,6.541976929E0
9.005144082E2,5.928217888E0,-4.289134502E0,6.109474182E0
9.010144082E2,6.122634888E0,-4.350151539E0,6.779464722E0
9.015144082E2,6.076572895E0,-4.290929317E0,6.518048763E0
9.020144082E2,5.541777134E0,-4.170091629E0,6.535995007E0
9.025144082E2,6.143572330E0,-3.943371773E0,6.521039963E0
9.030144082E2,6.285346985E0,-3.812364578E0,7.114459991E0
9.035144082E2,5.895915031E0,-3.573082447E0,7.516454220E0
9.040144082E2,5.481358528E0,-3.166900873E0,8.352746010E0
9.045144082E2,4.597808838E0,-2.678765059E0,7.902296543E0
9.050144082E2,3.676572084E0,-2.759522676E0,8.981459618E0
9.055144082E2,3.485744476E0,-2.159522533E0,8.123034477E0
9.060144082E2,4.000799656E0,-2.416750908E0,8.517251968E0
9.065144082E2,4.335794449E0,-2.397608280E0,9.393025398E0
9.070144082E2,4.082155228E0,-2.750549555E0,9.099306107E0
9.075144082E2,3.836891174E0,-2.686541557E0,9.187242508E0
9.080144082E2,4.297509670E0,-2.806182861E0,8.835497856E0
9.085144082E2,3.737588882E0,-2.635694027E0,8.280363083E0
9.090144082E2,3.796811342E0,-2.551945448E0,8.591429710E0
9.095144082E2,4.243670940E0,-2.730808735E0,8.946166039E0
9.100144082E2,3.914657831E0,-2.608176708E0,8.571090698E0
9.105144082E2,3.490530014E0,-2.529811859E0,8.468797684E0
9.110144082E2,3.611965895E0,-2.542972326E0,8.615358353E0
9.115144082E2,3.670589924E0,-2.405385017E0,8.230113029E0
9.120144082E2,4.179663181E0,-2.903092146E0,9.424132347E0
9.125144082E2,3.623929977E0,-2.480160713E0,8.511868477E0
9.130144082E2,3.936791420E0,-2.365305185E0,8.561519623E0
9.135144082E2,4.089931965E0,-2.766103029E0,9.330811501E0
9.140144082E2,3.934996843E0,-2.707478762E0,9.384650230E0
9.145144082E2,3.662813187E0,-2.514258385E0,9.116654396E0
9.150144082E2,3.922434568E0,-2.739183664E0,9.687940598E0
9.155144082E2,3.310470104E0,-2.248056889E0,9.124430656E0
9.160144082E2,3.292523861E0,-2.445464849E0,8.467600822E0
9.165144082E2,3.007179976E0,-2.717050076E0,8.818747520E0
9.170144082E2,2.718246460E0,-3.007179976E0,9.067003250E0
9.175144082E2,2.197807550E0,-3.906282902E0,9.873982430E0
9.180144082E2,2.477767944E0,-2.684746981E0,8.846863747E0
9.185144082E2,2.465803623E0,-3.111865759E0,8.939585686E0
9.190144082E2,2.666800737E0,-3.035893679E0,8.818747520E0
9.195144082E2,2.673381090E0,-2.920439959E0,8.853444099E0
9.200144082E2,3.296113253E0,-3.253042459E0,8.716454506E0
9.205144082E2,3.779463291E0,-3.609572887E0,8.935996056E0
9.210144082E2,2.933600664E0,-3.485744476E0,6.964908600E0
9.215144082E2,4.278367043E0,-4.534996986E0,9.168100357E0
9.220144082E2,3.489931822E0,-4.380660057E0,9.613164902E0
9.225144082E2,2.532802820E0,-4.222135544E0,8.012965202E0
9.230144082E2,2.216950178E0,-3.293720484E0,6.746563435E0
9.235144082E2,2.156531334E0,-3.525824070E0,8.410173416E0
9.240144082E2,2.054836512E0,-2.944368362E0,8.486743927E0
9.245144082E2,1.767099500E0,-2.979662418E0,8.732605934E0
9.250144082E2,2.757728100E0,-2.812164783E0,9.215357780E0
9.255144082E2,2.325823545E0,-2.822334290E0,8.981459618E0
9.260144082E2,3.005385160E0,-2.764308453E0,9.325428009E0
9.265144082E2,3.552145243E0,-2.690729141E0,8.701499939E0
9.270144082E2,3.637090445E0,-2.872583628E0,9.196215630E0
9.275144082E2,3.811168194E0,-2.551945448E0,8.736793518E0
9.280144082E2,3.750151396E0,-2.558525562E0,8.558527946E0
9.285144082E2,3.726222992E0,-2.592623234E0,9.306883812E0
9.290144082E2,3.278167009E0,-2.749951363E0,9.357132912E0
9.295144082E2,3.145365477E0,-2.522035122E0,8.813364029E0
9.300144082E2,2.499303341E0,-2.231905222E0,8.467002869E0
9.305144082E2,2.951546669E0,-2.735594511E0,1.022572803E1
9.310144082E2,2.367099762E0,-2.449054003E0,9.368498802E0
9.315144082E2,2.087737799E0,-2.217548370E0,8.836095810E0
9.320144082E2,2.743969440E0,-2.140379906E0,8.196614265E0
9.325144082E2,4.197010994E0,-2.920439959E0,9.673583984E0
9.330144082E2,3.483949661E0,-2.194816589E0,8.038089752E0
9.335144082E2,4.127020836E0,-2.659024239E0,8.542376518E0
9.340144082E2,4.052245140E0,-2.743969440E0,8.306085587E0
9.345144082E2,4.941776752E0,-2.973082066E0,9.110671997E0
9.350144082E2,3.850649834E0,-2.806182861E0,8.474181175E0
9.355144082E2,4.163511276E0,-2.724826813E0,8.675178528E0
9.360144082E2,3.888935089E0,-2.900100946E0,8.696713448E0
9.365144082E2,3.961317778E0,-2.504088879E0,8.301898003E0
9.370144082E2,4.070789337E0,-2.596810818E0,8.730812073E0
9.375144082E2,3.637090445E0,-3.040679455E0,8.588438988E0
9.380144082E2,3.450450182E0,-2.469393015E0,8.164310455E0
9.385144082E2,3.764508247E0,-2.871387243E0,8.907880783E0
9.390144082E2,3.734597921E0,-2.995813847E0,8.880363464E0
9.395144082E2,3.509074450E0,-2.715255499E0,8.577073097E0
9.400144082E2,3.499503136E0,-2.638087034E0,8.918647766E0
9.405144082E2,3.643072367E0,-2.865405083E0,8.822935104E0
9.410144082E2,3.841676712E0,-2.965305567E0,9.172885895E0
9.415144082E2,3.901497364E0,-2.721835852E0,8.582456589E0
9.420144082E2,3.497110367E0,-2.563909531E0,8.401798248E0
9.425144082E2,3.753142357E0,-3.024527788E0,9.431310654E0
9.430144082E2,3.265604734E0,-2.688336134E0,8.671588898E0
9.435144082E2,3.771088600E0,-3.051447153E0,9.327222824E0
9.440144082E2,3.592225075E0,-2.435893536E0,8.486145973E0
9.445144082E2,3.893720627E0,-3.072384357E0,9.608379364E0
9.450144082E2,3.775874138E0,-2.587837696E0,8.756534576E0
9.455144082E2,3.934996843E0,-3.116651535E0,9.430712700E0
9.460144082E2,3.982853174E0,-2.664407969E0,8.362317085E0
9.465144082E2,3.966103554E0,-2.898306370E0,8.835497856E0
9.470144082E2,3.888935089E0,-2.684746981E0,8.663214684E0
9.475144082E2,4.088137627E0,-2.813959360E0,8.400602341E0
9.480144082E2,3.975076675E0,-2.874976397E0,8.435895920E0
9.485144082E2,4.021138668E0,-2.690729141E0,8.086544037E0
9.490144082E2,4.337589264E0,-3.330809116E0,9.114859581E0
9.495144082E2,3.763311863E0,-2.544766903E0,7.795815945E0
9.500144082E2,4.088137627E0,-3.287738323E0,9.644869804E0
9.505144082E2,3.828516245E0,-2.437089920E0,7.996813297E0
9.510144082E2,4.099503517E0,-3.107080221E0,9.255437851E0
9.515144082E2,3.990031719E0,-2.834298372E0,8.517251968E0
9.520144082E2,3.951148272E0,-3.059223652E0,8.677571297E0
9.525144082E2,4.056432724E0,-2.797807932E0,8.050651550E0
9.530144082E2,4.139583111E0,-3.094517946E0,8.977870941E0
9.535144082E2,3.651447296E0,-2.528017044E0,7.945367813E0
9.540144082E2,4.083351612E0,-3.099303484E0,8.737391472E0
9.545144082E2,4.212564468E0,-2.769093990E0,8.773882866E0
9.550144082E2,4.000799656E0,-2.802593470E0,7.864609718E0
9.555144082E2,3.884149313E0,-3.041875839E0,8.692526817E0
9.560144082E2,3.787240028E0,-2.740380049E0,8.390432358E0
9.565144082E2,3.964308977E0,-2.837887764E0,8.119445801E0
9.570144082E2,4.188635826E0,-2.836691141E0,8.670392990E0
9.575144082E2,3.726821184E0,-2.676970243E0,8.352746010E0
9.580144082E2,4.274777889E0,-3.133401155E0,9.050851822E0
9.585144082E2,3.726222992E0,-2.689532757E0,8.469395638E0
9.590144082E2,3.686143398E0,-2.836092949E0,7.993822098E0
9.595144082E2,3.188436270E0,-2.638087034E0,8.830712318E0
9.600144082E2,3.873381615E0,-2.882753134E0,8.595019341E0
9.605144082E2,3.812962770E0,-2.737389088E0,8.687741280E0
9.610144082E2,3.956532240E0,-2.802593470E0,8.018946648E0
9.615144082E2,4.396811485E0,-3.133401155E0,9.069993973E0
9.620144082E2,4.278367043E0,-2.690729141E0,8.163114548E0
9.625144082E2,4.128815651E0,-3.131008387E0,8.542376518E0
9.630144082E2,4.128815651E0,-2.936591625E0,8.567501068E0
9.635144082E2,4.387240410E0,-3.066402197E0,8.695517540E0
9.640144082E2,4.341776848E0,-3.051447153E0,8.414361000E0
9.645144082E2,4.343571186E0,-2.855235577E0,8.295317650E0
9.650144082E2,4.712664127E0,-2.858226538E0,8.395816803E0
9.655144082E2,4.467998028E0,-3.193820000E0,8.483154297E0
9.660144082E2,4.104289055E0,-2.842673302E0,8.149953842E0
9.665144082E2,4.287938118E0,-2.961117983E0,8.009375572E0
9.670144082E2,4.233501434E0,-3.201596737E0,8.883354187E0
9.675144082E2,3.300300598E0,-2.644667149E0,7.911868095E0
9.680144082E2,3.628715515E0,-2.678765059E0,7.939385414E0
9.685144082E2,3.629313707E0,-2.713460922E0,8.377870560E0
9.690144082E2,3.625724554E0,-3.640679598E0,8.892925262E0
9.695144082E2,3.617947817E0,-3.212364435E0,8.283951759E0
9.700144082E2,3.333800077E0,-3.571886063E0,8.610571861E0
9.705144082E2,3.485146284E0,-3.312862873E0,8.405387878E0
9.710144082E2,3.539582968E0,-3.516252756E0,8.966505051E0
9.715144082E2,3.793820381E0,-3.305684566E0,8.338388443E0
9.720144082E2,3.320041418E0,-3.313461065E0,8.318648338E0
9.725144082E2,3.851248026E0,-3.279363394E0,8.328817368E0
9.730144082E2,3.836292982E0,-3.421736479E0,8.352147102E0
9.735144082E2,4.739583492E0,-3.595216036E0,8.203792572E0
9.740144082E2,3.859024763E0,-3.430111170E0,7.867600918E0
9.745144082E2,3.464807272E0,-3.295515060E0,8.256434441E0
9.750144082E2,4.167100430E0,-4.004388809E0,9.676574707E0
9.755144082E2,3.562314749E0,-2.657827854E0,6.291927338E0
9.760144082E2,3.799802303E0,-3.922434568E0,9.098708153E0
9.765144082E2,3.061616659E0,-2.754737139E0,6.806982040E0
9.770144082E2,3.547359467E0,-3.561716557E0,8.626724243E0
9.775144082E2,3.284149170E0,-2.732603550E0,8.334799767E0
9.780144082E2,3.753740549E0,-3.040081263E0,8.586644173E0
9.785144082E2,3.740580082E0,-2.885744095E0,8.588438988E0
9.790144082E2,3.327818155E0,-2.903690338E0,8.711668968E0
9.795144082E2,3.527020693E0,-2.773879766E0,8.550751686E0
9.800144082E2,3.692723513E0,-2.999403238E0,9.150154114E0
9.805144082E2,3.113660574E0,-2.505883455E0,8.400602341E0
9.810144082E2,3.402593851E0,-2.769093990E0,8.690732002E0
9.815144082E2,3.962514400E0,-3.150151014E0,1.065165043E1
9.820144082E2,3.476173162E0,-2.514258385E0,8.312665939E0
9.825144082E2,3.420539856E0,-3.005385160E0,9.587442398E0
9.830144082E2,2.912663460E0,-2.367099762E0,7.811369419E0
9.835144082E2,3.578466177E0,-2.767299414E0,9.083154678E0
9.840144082E2,3.439084291E0,-2.755335331E0,9.065806389E0
9.845144082E2,3.172882795E0,-2.911466837E0,9.046664238E0
9.850144082E2,3.152543783E0,-2.870190859E0,8.352746010E0
9.855144082E2,3.136392355E0,-3.144168854E0,1.030050373E1
9.860144082E2,3.171686411E0,-3.276372433E0,9.306883812E0
9.865144082E2,3.171088219E0,-2.956332445E0,8.216953278E0
9.870144082E2,4.171288013E0,-3.491726398E0,1.000678444E1
9.875144082E2,3.437887907E0,-3.008376360E0,8.663812637E0
9.880144082E2,3.475574970E0,-3.043670416E0,8.694320679E0
9.885144082E2,3.140579700E0,-2.773879766E0,8.602795601E0
9.890144082E2,3.483949661E0,-2.967100143E0,8.464610100E0
9.895144082E2,2.937189817E0,-2.883949518E0,8.516654015E0
9.900144082E2,3.377469063E0,-2.997010469E0,8.588438988E0
9.905144082E2,3.483949661E0,-2.946761131E0,8.781659126E0
9.910144082E2,2.922234535E0,-2.919243574E0,8.520243645E0
9.915144082E2,3.447459221E0,-2.867797852E0,8.500502586E0
9.920144082E2,3.733999729E0,-3.266801119E0,9.861420631E0
9.925144082E2,2.983251572E0,-2.935395241E0,9.089735031E0
9.930144082E2,3.074178934E0,-2.599801779E0,7.644470215E0
9.935144082E2,3.729812384E0,-3.363112211E0,9.657432556E0
9.940144082E2,3.430111170E0,-2.726621389E0,8.023732185E0
9.945144082E2,3.390031576E0,-3.022733212E0,8.888737679E0
9.950144082E2,3.513859987E0,-3.125026464E0,8.632107735E0
9.955144082E2,4.009174347E0,-3.155534744E0,8.505886078E0
9.960144082E2,4.100101471E0,-3.190829039E0,8.534002304E0
9.965144082E2,4.314857483E0,-3.121437073E0,8.240880966E0
9.970144082E2,4.638486862E0,-4.621138573E0,1.092861938E1
9.975144082E2,3.884149313E0,-3.030509949E0,7.708477974E0
9.980144082E2,3.588037491E0,-3.747160196E0,9.661021233E0
9.985144082E2,3.598805189E0,-3.090330362E0,8.347960472E0
9.990144082E2,3.290729284E0,-3.476173162E0,9.046066284E0
9.995144082E2,2.951546669E0,-3.068794966E0,8.110472679E0
1.000014408E3,3.150151014E0,-3.094517946E0,8.416155815E0
1.000514408E3,3.546163082E0,-3.568296671E0,8.923434258E0
1.001014408E3,2.635694027E0,-3.075375319E0,8.566305161E0
1.001514408E3,3.619742393E0,-3.504288673E0,8.944371223E0
1.002014408E3,3.506083488E0,-2.925225735E0,7.843672752E0
1.002514408E3,3.932604074E0,-3.354737282E0,8.604590416E0
1.003014408E3,3.047259569E0,-3.169891834E0,8.081758499E0
1.003514408E3,3.798605919E0,-3.646661758E0,8.894720078E0
1.004014408E3,3.767499208E0,-3.419941664E0,8.377870560E0
1.004514408E3,4.079164505E0,-3.276372433E0,9.134600639E0
1.005014408E3,3.424727440E0,-3.298506021E0,8.571090698E0
1.005514408E3,3.254238844E0,-3.221935749E0,8.821739197E0
1.006014408E3,3.566502094E0,-3.025724173E0,8.850452423E0
1.006514408E3,3.125026464E0,-2.834298372E0,8.638090134E0
1.007014408E3,3.517449379E0,-3.147160053E0,9.033503532E0
1.007514408E3,3.056232691E0,-2.755335331E0,8.508877754E0
1.008014408E3,3.996013880E0,-3.166302681E0,9.020941734E0
1.008514408E3,3.664607763E0,-2.842673302E0,7.950153351E0
1.009014408E3,3.972085476E0,-3.111865759E0,8.804390907E0
1.009514408E3,3.863810301E0,-3.038884640E0,8.519644737E0
1.010014408E3,3.101098061E0,-2.845664263E0,7.724031448E0
1.010514408E3,4.120440483E0,-3.161516905E0,8.813961983E0
1.011014408E3,3.379862070E0,-2.681157827E0,7.892725468E0
1.011514408E3,4.344169617E0,-2.981456995E0,9.311071396E0
1.012014408E3,3.450450182E0,-2.863012314E0,8.228319168E0
1.012514408E3,3.560520172E0,-2.909672260E0,8.947959900E0
1.013014408E3,2.965903759E0,-3.035295486E0,8.933005333E0
1.013514408E3,3.461816072E0,-2.970091105E0,8.872586250E0
1.014014408E3,3.568894863E0,-2.855833769E0,8.161319733E0
1.014514408E3,3.799802303E0,-3.284149170E0,8.840283394E0
1.015014408E3,4.490131855E0,-2.759522676E0,8.601598740E0
1.015514408E3,3.396611691E0,-3.418745279E0,8.253443718E0
1.016014408E3,3.667598963E0,-3.217149973E0,8.495717049E0
1.016514408E3,3.772883177E0,-3.405584812E0,8.840881348E0
1.017014408E3,3.606581926E0,-2.999403238E0,8.495717049E0
1.017514408E3,3.918246984E0,-3.361317635E0,8.842078209E0
1.018014408E3,3.509074450E0,-3.188436270E0,9.314660072E0
1.018514408E3,3.168097258E0,-2.841476917E0,7.966304779E0
1.019014408E3,3.520440340E0,-3.037688255E0,8.799007416E0
1.019514408E3,3.629313707E0,-2.914458036E0,8.129614830E0
1.020014408E3,3.560520172E0,-3.190829039E0,9.587442398E0
1.020514408E3,3.764508247E0,-3.056830883E0,9.336793900E0
1.021014408E3,4.013959885E0,-3.239881754E0,9.686145782E0
1.021514408E3,3.285943747E0,-2.638087034E0,8.166105270E0
1.022014408E3,4.086941242E0,-3.377469063E0,8.851649284E0
1.022514408E3,3.948157310E0,-2.405385017E0,7.593024254E0
1.023014408E3,3.942175388E0,-3.322434187E0,9.552147865E0
1.023514408E3,2.950948477E0,-2.979662418E0,8.577073097E0
1.024014408E3,3.287738323E0,-2.703889608E0,8.321041107E0
1.024514408E3,3.477369547E0,-2.900100946E0,7.940581799E0
1.025014408E3,3.988237143E0,-3.029313564E0,8.953942299E0
1.025514408E3,3.620938778E0,-2.840878725E0,8.839086533E0
1.026014408E3,3.693321705E0,-2.827120066E0,8.706883430E0
1.026514408E3,4.083950043E0,-2.954537868E0,8.923434258E0
1.027014408E3,4.122235298E0,-2.981456995E0,9.371489525E0
1.027514408E3,3.632304668E0,-2.636890650E0,8.335397720E0
1.028014408E3,3.533600807E0,-3.064009428E0,9.445069313E0
1.028514408E3,3.413361549E0,-2.505883455E0,8.236095428E0
1.029014408E3,2.934797049E0,-2.879163742E0,8.821140289E0
1.029514408E3,3.311666489E0,-2.654836655E0,8.743373871E0
1.030014408E3,2.542972326E0,-2.566302299E0,8.366504669E0
1.030514408E3,3.238685369E0,-2.456830740E0,7.762316704E0
1.031014408E3,3.025724173E0,-3.028116941E0,9.633503914E0
1.031514408E3,3.303889751E0,-2.411965132E0,7.939385414E0
1.032014408E3,3.524029493E0,-3.016152859E0,8.532805443E0
1.032514408E3,2.851048231E0,-3.399602890E0,6.589833736E0
1.033014408E3,3.387040377E0,-3.528217077E0,8.928817749E0
1.033514408E3,3.137588739E0,-2.984447956E0,8.690732002E0
1.034014408E3,3.686741590E0,-3.222533941E0,8.676374435E0
1.034514408E3,3.046661377E0,-2.901895761E0,7.689335346E0
1.035014408E3,3.184248686E0,-3.750151396E0,9.859625816E0
1.035514408E3,3.268595695E0,-2.908475876E0,8.003393173E0
1.036014408E3,3.757927895E0,-3.723232031E0,9.702297211E0
1.036514408E3,3.332603693E0,-2.906083107E0,8.261219978E0
1.037014408E3,3.305086374E0,-3.370290756E0,8.678169250E0
1.037514408E3,3.528815269E0,-3.004188776E0,8.373085022E0
1.038014408E3,3.705883980E0,-3.463610888E0,9.121439934E0
1.038514408E3,3.154936552E0,-2.950948477E0,7.831110477E0
1.039014408E3,3.363112211E0,-4.042674065E0,8.653642654E0
1.039514408E3,3.157329559E0,-3.493520975E0,7.712665558E0
1.040014408E3,3.327219963E0,-3.937389612E0,7.791030407E0
1.040514408E3,3.809373617E0,-4.076173306E0,7.464410305E0
1.041014408E3,4.088735580E0,-4.298706055E0,7.696514130E0
1.041514408E3,3.774677753E0,-4.153940201E0,7.161119938E0
1.042014408E3,5.554937840E0,-4.203591347E0,8.158329010E0
1.042514408E3,5.613562107E0,-3.774079561E0,7.817949772E0
1.043014408E3,5.428716183E0,-4.004388809E0,7.136593342E0
1.043514408E3,5.916254044E0,-3.945166349E0,6.953542709E0
1.044014408E3,6.258427620E0,-4.186243057E0,6.835097790E0
1.044514408E3,5.916851997E0,-4.227519512E0,7.267600536E0
1.045014408E3,6.518048763E0,-4.575077057E0,7.783253670E0
1.045514408E3,5.775077343E0,-4.200001717E0,6.634100914E0
1.046014408E3,6.441478729E0,-4.389633179E0,8.487939835E0
1.046514408E3,4.939982414E0,-3.859024763E0,7.536194801E0
1.047014408E3,3.692723513E0,-3.578466177E0,8.162516594E0
1.047514408E3,3.096312523E0,-3.236890793E0,8.598010063E0
1.048014408E3,1.811964989E0,-2.908475876E0,8.290532112E0
1.048514408E3,1.622333765E0,-2.858226538E0,8.992227554E0
1.049014408E3,1.406979680E0,-3.246462107E0,9.672985077E0
1.049514408E3,1.173679471E0,-3.056830883E0,9.437292099E0
1.050014408E3,1.241276741E0,-2.849253654E0,8.907281876E0
1.050514408E3,2.260020971E0,-2.799602509E0,8.901300430E0
