"Time (s)","Gyroscope x (rad/s)","Gyroscope y (rad/s)","Gyroscope z (rad/s)"
2.739990130E-1,-1.001971006E0,2.099847645E-1,3.926333487E-1
7.781206800E-1,-3.712530732E-1,-4.092793912E-2,-2.444986254E-1
1.282242919E0,-5.177079141E-2,-4.001164436E-2,2.779434621E-1
1.786365680E0,-6.520981342E-2,-1.737910360E-1,-2.834412456E-1
2.290489013E0,2.214384824E-2,5.497782957E-3,-1.542433538E-2
2.794612711E0,-2.244928107E-2,-7.024944760E-3,-1.450803876E-2
3.298736774E0,-6.276635826E-2,-9.010255337E-3,1.985310577E-2
3.802860992E0,5.803215317E-3,7.024944760E-3,-1.069013402E-2
4.306985315E0,-8.552107029E-3,-2.107483521E-2,2.748891525E-2
4.811109690E0,1.114828233E-2,-7.788525894E-3,2.138026804E-2
5.315234013E0,1.191186346E-2,-7.941242307E-3,2.306014486E-2
5.819358284E0,1.175914705E-2,-1.130099874E-2,2.275471389E-2
6.323482503E0,-1.527161920E-3,-1.175914705E-2,2.916879393E-2
6.827606721E0,3.665188793E-3,-1.496618707E-2,2.122755162E-2
7.331730732E0,-1.908952370E-2,-3.069595434E-2,2.351829410E-2
7.835854742E0,-3.848448023E-2,-1.771507785E-2,-3.665188793E-3
8.339978805E0,-3.665188793E-3,7.483093534E-3,-2.825249545E-2
8.844102971E0,-3.970621154E-3,-2.748891478E-3,-3.130681813E-2
9.348227034E0,-1.069013402E-2,1.237001177E-2,-2.550360374E-2
9.852350836E0,-1.771507785E-2,6.719512399E-3,-1.313359290E-2
1.035647438E1,-1.481347065E-2,6.566796452E-3,-6.108647678E-3
1.086059761E1,-1.771507785E-2,-1.007926930E-2,-1.221729559E-3
1.136472078E1,-2.901607659E-3,1.221729559E-3,3.359756200E-3
1.186884412E1,-3.054323839E-3,1.053741761E-2,-2.641990222E-2
1.237296761E1,9.621120058E-3,-2.336557768E-2,-1.832594397E-3
1.287709125E1,7.086031139E-2,-1.527161989E-2,-4.337139800E-2
1.338121474E1,-4.444041103E-2,6.337722391E-2,-2.351829410E-2
1.388533813E1,-9.422589093E-2,9.621120058E-3,6.154462695E-2
1.438946131E1,7.437278330E-2,-9.162971750E-3,-4.291325063E-2
1.489358438E1,-1.221729591E-1,5.681042373E-2,6.047561392E-2
1.539770729E1,3.756818548E-2,-2.550360374E-2,9.010255337E-3
1.590183000E1,-5.192350596E-2,1.939495653E-2,4.108065739E-2
1.640595245E1,-5.955931731E-3,4.428769462E-3,1.985310577E-3
1.691007464E1,-2.260199748E-2,1.420260593E-2,1.114828233E-2
1.741419651E1,-4.581485875E-3,-5.955931731E-3,-1.282816008E-2
1.791831813E1,-8.246674202E-3,-4.581485875E-3,2.748891478E-3
1.842243943E1,-8.552107029E-3,9.315688163E-3,1.527161949E-4
1.892656052E1,-9.162971983E-4,9.162971983E-4,5.497782957E-3
1.943068136E1,1.007926930E-2,4.886918236E-3,-1.389717404E-2
1.993480198E1,-1.466075517E-2,1.007926930E-2,7.788525894E-3
2.043892229E1,-1.496618707E-2,1.740964688E-2,-1.527161920E-3
2.094304229E1,-1.328630932E-2,-7.635809598E-4,1.695149764E-2
2.144716209E1,7.391463965E-2,-1.893680729E-2,-4.276053607E-2
2.195128172E1,-7.589995116E-2,4.169152305E-2,3.558287397E-2
2.245540125E1,4.764745384E-2,-4.367683083E-2,-2.367101051E-2
2.295952078E1,-3.680460155E-2,-2.015853859E-2,2.046396956E-2
2.346364042E1,3.695731983E-2,-1.374445762E-2,-3.375028074E-2
2.396776016E1,-1.618791744E-2,3.298669681E-2,1.557705179E-2
2.447187995E1,2.275471389E-2,-7.635809947E-3,-1.496618707E-2
2.497599974E1,-3.817904973E-3,6.566796452E-3,1.511890348E-2
2.548011964E1,1.221729536E-2,-5.955931731E-3,4.428769462E-3
2.598423948E1,1.237001177E-2,2.046396956E-2,-7.941242307E-3
2.648835927E1,1.282816008E-2,-1.404988952E-2,-3.222311661E-2
2.699247906E1,-1.466075517E-2,3.054323897E-4,1.542433538E-2
2.749659875E1,6.566796452E-3,6.261364091E-3,-7.024944760E-3
2.800071828E1,-1.053741761E-2,-8.093958721E-3,7.024944760E-3
2.850483776E1,1.343902480E-2,-7.788525894E-3,-1.130099874E-2
2.900895714E1,-1.206457894E-2,-0.000000000E0,1.175914705E-2
2.951307646E1,-1.527161949E-4,7.330377586E-3,6.108647678E-3
3.001719568E1,4.428769462E-3,-4.581485875E-3,-3.359756200E-3
3.052131490E1,4.276053514E-3,-1.985310577E-3,-3.054323839E-3
3.102543407E1,2.397644334E-2,-2.443459118E-3,-3.100138716E-2
3.152955313E1,-1.404988952E-2,8.857538924E-3,5.192350596E-3
3.203367198E1,-1.527161949E-4,-6.108647794E-4,5.650499370E-3
3.253779068E1,-1.069013402E-2,1.572976820E-2,3.970621154E-3
3.304190922E1,-4.886918236E-3,-3.817904973E-3,3.817904973E-3
3.354602761E1,5.803215317E-3,-4.734201822E-3,-4.276053514E-3
3.405014594E1,0.000000000E0,5.192350596E-3,-9.162971983E-4
3.455426417E1,-1.527161920E-3,1.527161949E-4,1.527161920E-3
3.505838235E1,2.138026757E-3,1.069013379E-3,-2.901607659E-3
3.556250037E1,-9.162971983E-4,-1.527161920E-3,1.221729559E-3
3.606661818E1,-3.054323897E-4,2.290742937E-3,-0.000000000E0
3.657073589E1,1.221729559E-3,3.359756200E-3,-2.290742937E-3
3.707485349E1,-4.734201822E-3,-3.054323839E-3,3.512472380E-3
3.757897094E1,-6.566796452E-3,1.985310577E-3,5.039634649E-3
3.808308828E1,7.177661173E-3,3.970621154E-3,-5.803215317E-3
3.858720552E1,2.290742937E-3,-1.374445739E-3,4.581485991E-4
3.909132271E1,1.985310577E-3,0.000000000E0,-1.221729559E-3
3.959543979E1,4.581485991E-4,-1.527161949E-4,-1.374445739E-3
4.009955672E1,-3.054323897E-4,-2.443459118E-3,9.162971983E-4
4.060367349E1,6.108647794E-4,1.374445739E-3,-1.527161949E-4
4.110779011E1,-7.635809598E-4,-0.000000000E0,-4.581485991E-4
4.161190662E1,4.581485991E-4,-4.428769462E-3,1.374445739E-3
4.211602313E1,4.581485991E-4,3.817904973E-3,-2.748891478E-3
4.262013964E1,5.497782957E-3,-3.207040019E-3,-2.443459118E-3
4.312425610E1,6.872228812E-3,-1.069013379E-3,-5.650499370E-3
4.362837250E1,1.985310577E-3,-4.581485875E-3,-1.985310577E-3
4.413248880E1,6.414080039E-3,-3.207040019E-3,-5.803215317E-3
4.463660500E1,3.665188793E-3,2.138026757E-3,1.832594397E-3
4.514072110E1,-1.527161920E-3,-6.261364091E-3,-1.221729559E-3
4.564483714E1,-8.399390616E-3,-2.412915789E-2,2.748891478E-3
4.614895313E1,4.734201822E-3,-2.428187430E-2,-7.941242307E-3
4.665306907E1,-2.748891478E-3,1.466075517E-2,5.803215317E-3
4.715718495E1,1.343902480E-2,9.468403645E-3,2.138026757E-3
4.766130078E1,5.955931731E-3,-7.177661173E-3,1.847865991E-2
4.816541646E1,1.725693047E-2,-5.039634649E-3,2.412915789E-2
4.866953214E1,2.809977904E-2,-1.221729536E-2,3.619373962E-2
4.917364782E1,1.679878123E-2,-2.321286127E-2,5.787943676E-2
4.967776349E1,1.527161989E-2,-2.733619884E-2,4.856374860E-2
5.018187917E1,2.336557768E-2,-1.450803876E-2,1.649334840E-2
5.068599479E1,2.748891478E-3,-6.414080039E-3,2.168569900E-2
5.119011087E1,-1.038470119E-2,-2.000582218E-2,-3.207040019E-3
5.169422639E1,-1.389717404E-2,-5.955931731E-3,-2.321286127E-2
5.219834180E1,-3.069595434E-2,5.497782957E-3,-2.107483521E-2
5.270245717E1,-3.634645417E-2,-4.184423760E-2,-2.932151034E-2
5.320657243E1,-2.275471389E-2,4.428769462E-3,-1.649334840E-2
5.371068774E1,1.374445739E-3,1.221729559E-3,-5.558869615E-2
5.421480311E1,-1.053741761E-2,7.941242307E-3,-4.214967042E-2
5.471891842E1,-2.382372692E-2,3.329212964E-2,-1.878409274E-2
5.522303368E1,-3.665188700E-2,-1.404988952E-2,1.206457894E-2
5.572714884E1,-2.107483521E-2,3.008509055E-2,-2.000582218E-2
5.623126394E1,-1.069013402E-2,7.483093534E-3,-2.076940238E-2
5.673537894E1,-3.054323839E-3,1.496618707E-2,-3.756818548E-2
5.723949399E1,-3.252854943E-2,2.611446939E-2,1.313359290E-2
5.774360899E1,2.290742937E-3,1.634063199E-2,-1.786779426E-2
5.824772394E1,1.038470119E-2,1.863137633E-2,-1.450803876E-2
5.875183878E1,7.788525894E-3,6.872228812E-3,2.687804960E-2
5.925595358E1,5.192350596E-3,-1.496618707E-2,2.489273995E-2
5.976006831E1,1.282816008E-2,-1.435532235E-2,2.748891525E-2
6.026418295E1,2.076940238E-2,-1.206457894E-2,2.993237413E-2
6.076829759E1,1.206457894E-2,-1.908952370E-2,2.015853859E-2
6.127241227E1,8.552107029E-3,-2.138026757E-3,1.252272818E-2
6.177652712E1,9.162971750E-3,-2.138026757E-3,1.679878100E-3
6.228064212E1,1.237001177E-2,-2.443459118E-3,-1.802051067E-2
6.278475732E1,-5.650499370E-3,4.886918236E-3,9.162971750E-3
6.328887269E1,1.221729536E-2,4.581485991E-4,-1.282816008E-2
6.379298842E1,8.704823442E-3,-3.817904973E-3,1.114828233E-2
6.429710451E1,2.458730713E-2,3.817904973E-3,4.581485875E-3
6.480122118E1,2.886336111E-2,5.039634649E-3,4.123337194E-2
6.530533842E1,4.657844082E-2,-1.679878100E-3,8.109229803E-2
6.580945618E1,6.230820715E-2,-4.505127668E-2,1.412624866E-1
6.631357436E1,7.651081681E-2,-2.428187430E-2,1.620318890E-1
6.681769290E1,1.096502244E-1,-7.345648855E-2,2.441931963E-1
6.732181165E1,1.284343153E-1,-1.070540547E-1,2.713766694E-1
6.782593050E1,1.525634825E-1,-7.788526267E-2,3.046688139E-1
6.833004946E1,1.525634825E-1,-7.788526267E-2,3.081812859E-1
6.883416847E1,1.356119812E-1,-1.420260668E-1,2.918406427E-1
6.933828753E1,1.186604798E-1,-5.283980444E-2,1.910479665E-1
6.984240654E1,1.047633067E-1,-9.315688163E-3,1.687513888E-1
7.034652545E1,4.169152305E-2,-7.192932814E-2,1.598938555E-1
7.085064425E1,5.558869615E-2,-2.748891478E-3,8.491020650E-2
7.135476295E1,3.054323979E-2,-1.328630932E-2,5.925388262E-2
7.185888160E1,2.214384824E-2,-2.031125315E-2,3.802633286E-2
7.236300014E1,1.893680729E-2,7.635809598E-4,2.947422490E-2
7.286711873E1,1.007926930E-2,-3.054323839E-3,2.290742844E-2
7.337123727E1,7.483093534E-3,-1.053741761E-2,1.771507785E-2
7.387535576E1,-2.138026757E-3,-1.389717404E-2,9.162971750E-3
7.437947415E1,8.246674202E-3,-9.621120058E-3,-2.901607659E-3
7.488359238E1,-1.252272818E-2,1.527161920E-3,-3.512472380E-3
7.538771040E1,3.207040019E-3,-3.665188793E-3,-3.054323839E-3
7.589182842E1,4.276053514E-3,8.552107029E-3,-3.512472380E-3
7.639594644E1,-7.330377586E-3,5.345067009E-3,-0.000000000E0
7.690006462E1,-5.955931731E-3,4.276053514E-3,-3.359756200E-3
7.740418279E1,2.168569900E-2,-9.773836471E-3,-1.359174121E-2
7.790830092E1,-3.420842811E-2,1.404988952E-2,3.817904741E-2
7.841241884E1,-6.261364091E-3,-0.000000000E0,4.428769462E-3
7.891653691E1,3.726275265E-2,7.483093534E-3,-2.092211880E-2
7.942065540E1,-1.679878100E-3,-3.054323839E-3,5.497782957E-3
7.992477446E1,-2.641990222E-2,-4.321868345E-2,-9.926552884E-3
8.042889404E1,-1.878409274E-2,1.496618707E-2,4.245510325E-2
8.093301415E1,5.329795182E-2,1.053741761E-2,-2.153298259E-2
8.143713462E1,-3.329212964E-2,1.908952370E-2,3.573558852E-2
8.194125529E1,-7.177661173E-3,-2.825249545E-2,-1.985310577E-3
8.244537618E1,3.817904973E-3,-1.298087649E-2,-1.160643063E-2
8.294949712E1,-1.374445762E-2,3.817904973E-3,6.414080039E-3
8.345361831E1,-2.901607659E-3,-3.023780696E-2,-3.100138716E-2
8.395773962E1,-4.398226365E-2,-1.542433538E-2,-3.100138716E-2
8.446186134E1,-7.055488229E-2,1.252272818E-2,-2.397644334E-2
8.496598363E1,-4.673115537E-2,4.352411628E-2,-9.865466505E-2
8.547010644E1,-2.626718581E-2,5.222893879E-2,-1.073594838E-1
8.597422967E1,-1.542433538E-2,4.276053607E-2,-1.127045527E-1
8.647835316E1,-7.635809947E-3,7.666353136E-2,-9.636391699E-2
8.698247691E1,-2.290742844E-2,7.681624591E-2,-4.444041103E-2
8.748660081E1,-3.527744114E-2,-1.073594838E-1,2.046396956E-2
8.799072472E1,-5.650499370E-3,-4.153880477E-2,4.764745384E-2
8.849484852E1,4.459312931E-2,2.916879393E-2,3.298669681E-2
8.899897222E1,5.436696485E-2,-2.290742937E-3,5.497783050E-2
8.950309571E1,4.337139800E-2,-3.924806044E-2,8.704823256E-2
9.000721904E1,3.665188700E-2,-9.285144508E-2,7.574722916E-2
9.051134222E1,3.252854943E-2,-1.939495653E-2,5.681042373E-2
9.101546529E1,3.161225095E-2,2.244928107E-2,3.497200832E-2
9.151958831E1,3.512472380E-3,-2.993237413E-2,2.947422490E-2
9.202371113E1,1.725693047E-2,-2.443459118E-3,2.351829410E-2
9.252783373E1,8.246674202E-3,6.566796452E-3,-2.748891478E-3
9.303195608E1,-1.527161949E-4,-8.246674202E-3,4.428769462E-3
9.353607821E1,3.207040019E-3,-1.374445739E-3,2.290742937E-3
9.404020014E1,6.414080039E-3,1.145371422E-2,-4.734201822E-3
9.454432191E1,-9.926552884E-3,4.886918236E-3,8.399390616E-3
9.504844358E1,-4.581485875E-3,-6.414080039E-3,3.512472380E-3
9.555256514E1,-1.069013402E-2,1.252272818E-2,1.237001177E-2
9.605668660E1,3.817904973E-3,-4.734201822E-3,1.802051067E-2
9.656080784E1,1.374445739E-3,7.788525894E-3,-3.680460155E-2
9.706492899E1,-1.725693047E-2,-1.221729559E-3,2.901607659E-3
9.756904993E1,1.160643063E-2,1.343902480E-2,-1.786779426E-2
9.807317061E1,-1.771507785E-2,9.773836471E-3,2.748891525E-2
9.857729128E1,-3.359756200E-3,-3.817904973E-3,1.007926930E-2
9.908141180E1,-5.192350596E-3,-2.901607659E-3,-6.108647678E-3
9.958553227E1,3.207040019E-3,-5.192350596E-3,1.954767294E-2
1.000896526E2,1.649334840E-2,9.010255337E-3,-1.252272818E-2
1.005937729E2,1.069013379E-3,-1.191186346E-2,1.389717404E-2
1.010978931E2,7.330377586E-3,3.665188793E-3,3.054323897E-4
1.016020133E2,8.399390616E-3,1.802051067E-2,-1.374445739E-3
1.021061335E2,1.221729559E-3,-7.635809947E-3,-4.886918236E-3
1.026102540E2,-4.734201822E-3,-1.313359290E-2,3.817904973E-3
1.031143750E2,-5.192350596E-3,3.817904973E-3,1.389717404E-2
1.036184965E2,-1.069013379E-3,1.679878100E-3,5.803215317E-3
1.041226187E2,-2.443459118E-3,-4.428769462E-3,9.162971983E-4
1.046267416E2,1.695149764E-2,-1.527161920E-3,-3.420842811E-2
1.051308650E2,4.581485991E-4,9.468403645E-3,5.955931731E-3
1.056349889E2,-3.970621154E-3,4.734201822E-3,-1.527161949E-4
1.061391130E2,-9.621120058E-3,-4.123337101E-3,4.886918236E-3
1.066432373E2,-2.138026757E-3,8.399390616E-3,4.428769462E-3
1.071473615E2,-1.679878100E-3,1.679878100E-3,-1.527161949E-4
1.076514858E2,-6.414080039E-3,1.221729559E-3,5.955931731E-3
1.081556101E2,3.359756200E-3,-2.901607659E-3,-1.374445739E-3
1.086597342E2,-3.512472380E-3,4.581485875E-3,1.069013379E-3
1.091638584E2,3.665188793E-3,2.901607659E-3,-4.886918236E-3
1.096679825E2,-3.207040019E-3,-5.650499370E-3,1.832594397E-3
1.101721068E2,1.221729559E-3,9.162971983E-4,-2.138026757E-3
1.106762311E2,-4.581485875E-3,3.512472380E-3,2.290742937E-3
1.111803553E2,-6.261364091E-3,-2.596175298E-3,2.290742937E-3
1.116844795E2,2.596175298E-3,-2.290742937E-3,-9.162971983E-4
1.121886035E2,4.276053514E-3,3.054323897E-4,-1.832594397E-3
1.126927274E2,9.162971983E-4,9.162971983E-4,-7.635809598E-4
1.131968513E2,1.221729559E-3,1.679878100E-3,1.527161949E-4
1.137009751E2,-6.108647794E-4,-1.832594397E-3,-1.527161920E-3
1.142050987E2,-1.527161949E-4,-3.054323897E-4,1.069013379E-3
1.147092221E2,-4.428769462E-3,-4.581485991E-4,1.832594397E-3
1.152133453E2,-7.177661173E-3,-2.748891478E-3,3.970621154E-3
1.157174684E2,4.428769462E-3,1.069013379E-3,-2.443459118E-3
1.162215914E2,5.650499370E-3,4.581485991E-4,-3.054323839E-3
1.167257143E2,-4.581485991E-4,-1.221729559E-3,-9.162971983E-4
1.172298371E2,3.665188793E-3,-2.901607659E-3,-2.443459118E-3
1.177339599E2,9.468403645E-3,-7.024944760E-3,-8.093958721E-3
1.182380825E2,1.679878100E-3,-7.024944760E-3,-1.221729559E-3
1.187422049E2,-1.832594397E-3,-3.665188793E-3,-2.290742937E-3
1.192463271E2,6.566796452E-3,4.581485875E-3,-1.114828233E-2
1.197504492E2,9.468403645E-3,4.581485991E-4,-3.512472380E-3
1.202545713E2,4.276053514E-3,2.855792828E-2,9.926552884E-3
1.207586931E2,1.740964688E-2,2.321286127E-2,-7.024944760E-3
1.212628147E2,4.581485875E-3,-1.298087649E-2,7.177661173E-3
1.217669363E2,3.054323897E-4,-1.130099874E-2,1.817322709E-2
1.222710578E2,3.054323839E-3,-6.108647678E-3,2.306014486E-2
1.227751793E2,1.939495653E-2,-1.496618707E-2,2.290742937E-3
1.232793006E2,-4.581485991E-4,-1.191186346E-2,1.084284950E-2
1.237834219E2,-6.872228812E-3,-1.069013379E-3,-1.053741761E-2
1.242875431E2,-8.399390616E-3,2.443459118E-3,-9.315688163E-3
1.247916642E2,-4.734201822E-3,-1.527161989E-2,-1.267544460E-2
1.252957852E2,-1.603520103E-2,-1.160643063E-2,-1.985310577E-3
1.257999061E2,-8.399390616E-3,1.527161949E-4,-1.191186346E-2
1.263040267E2,-1.084284950E-2,6.108647678E-3,-2.901607659E-3
1.268081472E2,8.857538924E-3,3.512472380E-3,-1.771507785E-2
1.273122675E2,-5.345067009E-3,6.414080039E-3,-7.788525894E-3
1.278163878E2,-7.635809947E-3,-1.832594397E-3,-1.069013379E-3
1.283205080E2,5.497782957E-3,1.038470119E-2,1.985310577E-3
1.288246282E2,1.069013379E-3,2.550360374E-2,-6.566796452E-3
1.293287481E2,-1.267544460E-2,-1.252272818E-2,6.719512399E-3
1.298328677E2,2.748891478E-3,-1.634063199E-2,8.399390616E-3
1.303369869E2,-8.399390616E-3,-4.734201822E-3,4.123337101E-3
1.308411056E2,5.345067009E-3,1.099556591E-2,1.679878100E-3
1.313452241E2,-5.497782957E-3,-8.093958721E-3,-7.788525894E-3
1.318493422E2,-1.450803876E-2,6.872228812E-3,7.483093534E-3
1.323534603E2,2.641990222E-2,1.389717404E-2,-1.145371422E-2
1.328575781E2,-1.695149764E-2,-1.084284950E-2,1.404988952E-2
1.333616958E2,-1.832594397E-3,-1.527161989E-2,1.450803876E-2
1.338658135E2,1.771507785E-2,3.069595434E-2,8.399390616E-3
1.343699310E2,1.527161920E-3,1.771507785E-2,1.023198478E-2
1.348740482E2,2.443459118E-3,2.611446939E-2,3.817904973E-3
1.353781653E2,2.229656465E-2,-1.527161920E-3,1.985310577E-3
1.358822821E2,2.809977904E-2,1.374445739E-3,4.917461425E-2
1.363863988E2,7.559451461E-2,-3.344484791E-2,8.277218044E-2
1.368905154E2,3.970621154E-2,-6.551524997E-2,1.027780026E-1
1.373946319E2,4.718930274E-2,-6.688969582E-2,1.157588735E-1
1.378987483E2,1.145371422E-2,-1.374445762E-2,7.376192510E-2
1.384028646E2,-1.527161920E-3,-2.611446939E-2,2.504545636E-2
1.389069809E2,-3.604102135E-2,-4.581485875E-3,-3.909534588E-2
1.394110970E2,-8.857538924E-3,2.916879393E-2,-7.681624591E-2
1.399152130E2,-3.054323979E-2,6.017018110E-2,-9.239330143E-2
1.404193290E2,-5.574141070E-2,1.634063199E-2,-8.323032409E-2
1.409234447E2,-4.306596518E-2,-8.399390616E-3,-6.979130208E-2
1.414275604E2,-9.926552884E-3,6.062832847E-2,-6.078104675E-2
1.419316761E2,-2.474002354E-2,2.260199748E-2,-4.352411628E-2
1.424357916E2,-3.390299529E-2,-1.221729536E-2,-3.359756246E-2
1.429399075E2,-9.162971750E-3,1.527161920E-3,-2.657261863E-2
1.434440237E2,-1.175914705E-2,6.719512399E-3,-2.260199748E-2
1.439481401E2,-1.237001177E-2,1.007926930E-2,-5.207622424E-2
1.444522568E2,-4.123337194E-2,-1.007926930E-2,-2.962694131E-2
1.449563737E2,-3.329212964E-2,3.558287397E-2,-8.475748450E-2
1.454604908E2,-4.932733253E-2,3.878991306E-2,-7.330377400E-2
1.459646080E2,-3.588830680E-2,6.093376130E-2,-8.261945844E-2
1.464687254E2,1.374445739E-3,3.711003438E-2,-7.635809481E-2
1.469728432E2,-2.275471389E-2,-3.512472380E-3,-2.901607659E-3
1.474769612E2,3.481929377E-2,-5.345067009E-3,5.100720748E-2
1.479810795E2,1.603520103E-2,4.138609022E-2,4.413498193E-2
1.484851980E2,1.893680729E-2,-5.864302069E-2,7.422006875E-2
1.489893167E2,4.810560122E-2,-2.000582218E-2,1.078176349E-1
1.494934353E2,5.849030241E-2,-4.291325063E-2,1.125518382E-1
1.499975537E2,5.131264031E-2,-9.117157012E-2,1.437059343E-1
1.505016720E2,7.009673119E-2,-4.138609022E-2,1.435532272E-1
1.510057902E2,5.604684353E-2,-4.245510325E-2,1.379027218E-1
1.515099083E2,6.444623321E-2,-1.649334840E-2,1.325576603E-1
1.520140263E2,8.964440972E-2,6.261364091E-3,1.240055487E-1
1.525181441E2,9.162971377E-2,2.901607752E-2,1.478292793E-1
1.530222619E2,8.491020650E-2,-9.392046183E-2,1.821904182E-1
1.535263796E2,9.239330143E-2,-8.307760954E-2,1.771507859E-1
1.540304972E2,6.902772188E-2,-7.177661359E-2,1.869246215E-1
1.545346146E2,8.994983882E-2,-8.307760954E-2,2.020435184E-1
1.550387320E2,1.114828214E-1,-9.880737960E-2,1.928805560E-1
1.555428492E2,7.895427197E-2,-6.963858753E-2,1.421787739E-1
1.560469662E2,5.787943676E-2,-6.047561392E-2,1.023198515E-1
1.565510829E2,2.458730713E-2,-7.177661173E-3,8.185587823E-2
1.570551995E2,3.390299529E-2,1.206457894E-2,4.795288667E-2
1.575593159E2,2.000582218E-2,-1.053741761E-2,3.375028074E-2
1.580634323E2,1.466075517E-2,-3.420842811E-2,2.565632015E-2
1.585675486E2,6.872228812E-3,-1.175914705E-2,2.367101051E-2
1.590716648E2,1.145371422E-2,8.704823442E-3,8.552107029E-3
1.595757807E2,6.261364091E-3,-2.290742937E-3,1.221729536E-2
1.600798966E2,-5.497782957E-3,-1.786779426E-2,-0.000000000E0
1.605840122E2,-1.175914705E-2,-4.581485991E-4,-1.069013402E-2
1.610881277E2,-1.557705179E-2,7.177661173E-3,-9.162971750E-3
1.615922429E2,-3.054323839E-3,1.252272818E-2,-1.649334840E-2
1.620963581E2,-3.665188793E-3,7.483093534E-3,-2.107483521E-2
1.626004732E2,-1.328630932E-2,4.734201822E-3,-5.497782957E-3
1.631045886E2,-1.664606482E-2,4.734201822E-3,-3.222311661E-2
1.636087040E2,-2.061668597E-2,1.832594397E-3,-3.787361458E-2
1.641128194E2,-2.901607752E-2,2.351829410E-2,-4.596757516E-2
1.646169350E2,-4.718930274E-2,2.947422490E-2,-6.017018110E-2
1.651210506E2,-4.382954910E-2,2.733619884E-2,-8.261945844E-2
1.656251663E2,-4.749473557E-2,2.764163166E-2,-9.040798992E-2
1.661292821E2,-5.009091273E-2,1.817322709E-2,-9.117157012E-2
1.666333980E2,-5.940660089E-2,1.481347065E-2,-8.872810751E-2
1.671375138E2,-5.619955808E-2,2.565632015E-2,-9.208786488E-2
1.676416295E2,-6.811141968E-2,3.252854943E-2,-9.789107740E-2
1.681457452E2,-6.276635826E-2,4.596757516E-2,-1.165224537E-1
1.686498608E2,-4.963276163E-2,4.245510325E-2,-1.232419685E-1
1.691539766E2,-5.436696485E-2,3.726275265E-2,-1.099556610E-1
1.696580922E2,-6.841685623E-2,2.229656465E-2,-9.346231073E-2
1.701622077E2,-5.940660089E-2,3.573558852E-2,-1.015562713E-1
1.706663232E2,-6.734783947E-2,2.733619884E-2,-1.018617004E-1
1.711704387E2,-7.559451461E-2,2.703076601E-2,-1.010981202E-1
1.716745540E2,-5.558869615E-2,3.039052337E-2,-1.010981202E-1
1.721786693E2,-4.734202102E-2,4.230238497E-2,-1.006399691E-1
1.726827846E2,-5.650499091E-2,3.069595434E-2,-1.169806048E-1
1.731868999E2,-6.291907281E-2,3.451386094E-2,-1.030834317E-1
1.736910152E2,-7.192932814E-2,3.878991306E-2,-1.010981202E-1
1.741951305E2,-5.971203372E-2,6.734783947E-2,-1.782197952E-1
1.746992457E2,6.185005978E-2,4.856374860E-2,-1.621845961E-1
1.752033609E2,5.742128938E-2,7.635809947E-3,-1.151480079E-1
1.757074761E2,-1.036942974E-1,3.466657549E-2,-3.069595434E-2
1.762115913E2,2.840521187E-2,5.726857483E-2,-9.071341902E-2
1.767157065E2,-2.321286127E-2,1.389717404E-2,6.872228812E-3
1.772198221E2,-2.596175298E-2,-1.572976820E-2,3.466657549E-2
1.777239382E2,2.397644334E-2,-4.337139800E-2,-2.901607752E-2
1.782280551E2,5.574141070E-2,1.773035079E-1,7.422006875E-2
1.787321730E2,-2.489273995E-2,-3.619373962E-2,5.009091273E-2
1.792362915E2,-2.336557768E-2,-2.290742844E-2,-2.107483521E-2
1.797404109E2,-2.138026804E-2,-3.069595434E-2,1.511890348E-2
1.802445312E2,-9.315688163E-3,-1.374445739E-3,1.221729559E-3
1.807486523E2,-9.162971750E-3,4.428769462E-3,1.359174121E-2
1.812527742E2,6.108647794E-4,-6.108647794E-4,-3.970621154E-3
1.817568967E2,-1.023198478E-2,-4.581485875E-3,2.290742937E-3
1.822610198E2,-1.114828233E-2,-7.635809598E-4,-3.512472380E-3
1.827651435E2,4.276053514E-3,-1.435532235E-2,3.817904973E-3
1.832692676E2,-7.177661173E-3,-4.123337101E-3,-1.069013379E-3
1.837733919E2,-6.108647794E-4,1.985310577E-3,7.635809598E-4
1.842775163E2,1.435532235E-2,-7.483093534E-3,3.054323839E-3
1.847816409E2,2.443459071E-2,-7.788525894E-3,-5.986474827E-2
1.852857656E2,-1.343902480E-2,2.443459118E-3,1.420260593E-2
1.857898902E2,-1.404988952E-2,6.108647678E-3,2.871064469E-2
1.862940147E2,4.123337101E-3,7.024944760E-3,-1.130099874E-2
1.867981393E2,-1.114828233E-2,7.330377586E-3,8.093958721E-3
1.873022639E2,-1.679878100E-3,-1.679878100E-3,-1.069013379E-3
1.878063891E2,-1.374445739E-3,1.527161949E-4,1.221729559E-3
1.883105149E2,3.359756200E-3,1.374445739E-3,-3.512472380E-3
1.888146413E2,-4.276053514E-3,-3.817904973E-3,5.955931731E-3
1.893187684E2,-2.901607659E-3,-2.290742937E-3,6.108647794E-4
1.898228960E2,1.435532235E-2,3.665188793E-3,-1.527161920E-3
1.903270242E2,3.665188793E-3,1.069013379E-3,-3.359756200E-3
1.908311529E2,6.108647794E-4,-2.443459118E-3,-3.054323897E-4
1.913352820E2,6.108647794E-4,7.330377586E-3,-1.832594397E-3
1.918394116E2,-1.527161949E-4,6.108647794E-4,-3.054323897E-4
1.923435418E2,-7.483093534E-3,-4.734201822E-3,6.872228812E-3
1.928476723E2,-3.512472380E-3,4.581485991E-4,2.748891478E-3
1.933518032E2,0.000000000E0,-9.162971983E-4,-1.527161920E-3
1.938559345E2,-1.145371422E-2,1.374445739E-3,3.817904973E-3
1.943600660E2,-1.985310577E-3,3.817904973E-3,-2.901607659E-3
1.948641977E2,-4.581485991E-4,-5.345067009E-3,2.443459118E-3
1.953683294E2,7.941242307E-3,2.901607659E-3,-4.581485875E-3
1.958724611E2,4.581485875E-3,2.443459118E-3,-7.635809598E-4
1.963765927E2,7.635809598E-4,9.162971983E-4,9.162971983E-4
1.968807245E2,-1.282816008E-2,-4.581485875E-3,6.872228812E-3
1.973848564E2,-1.053741761E-2,-4.581485991E-4,1.527161920E-3
1.978889882E2,4.276053514E-3,-4.581485991E-4,-3.359756200E-3
1.983931200E2,2.290742937E-3,1.527161949E-4,-9.162971983E-4
1.988972520E2,1.985310577E-3,6.108647794E-4,-1.985310577E-3
1.994013842E2,5.039634649E-3,-4.428769462E-3,-5.192350596E-3
1.999055165E2,9.926552884E-3,-3.665188793E-3,-6.108647678E-3
2.004096490E2,4.581485991E-4,-4.581485875E-3,6.108647794E-4
2.009137818E2,-8.704823442E-3,-9.162971983E-4,-2.901607659E-3
2.014179148E2,1.191186346E-2,-4.581485991E-4,-8.399390616E-3
2.019220481E2,-3.054323839E-3,3.512472380E-3,5.955931731E-3
2.024261818E2,1.160643063E-2,-2.596175298E-3,-3.359756200E-3
2.029303162E2,1.527161920E-3,-1.114828233E-2,8.399390616E-3
2.034344510E2,1.175914705E-2,-2.290742937E-3,1.679878123E-2
2.039385864E2,6.872228812E-3,-2.748891478E-3,2.519817278E-2
2.044427229E2,1.313359290E-2,-2.428187430E-2,-4.581485991E-4
2.049468604E2,4.581485991E-4,2.290742937E-3,1.267544460E-2
2.054509990E2,1.114828233E-2,1.023198478E-2,-6.566796452E-3
2.059551384E2,-4.734201822E-3,-1.267544460E-2,1.069013402E-2
2.064592781E2,-7.024944760E-3,-3.970621154E-3,5.345067009E-3
2.069634181E2,-8.552107029E-3,3.054323839E-3,-1.435532235E-2
2.074675581E2,-3.359756200E-3,1.007926930E-2,-1.588248461E-2
2.079716980E2,-6.414080039E-3,1.160643063E-2,-1.298087649E-2
2.084758375E2,-2.748891478E-3,2.596175298E-3,-2.580903657E-2
2.089799767E2,-9.010255337E-3,9.773836471E-3,-5.345067009E-3
2.094841151E2,1.847865991E-2,3.512472380E-3,9.010255337E-3
2.099882531E2,1.802051067E-2,-1.160643063E-2,2.916879393E-2
2.104923905E2,1.634063199E-2,-3.207040019E-3,4.230238497E-2
2.109965272E2,4.046979174E-2,-4.734201822E-3,5.406153202E-2
2.115006635E2,1.878409274E-2,0.000000000E0,5.451968312E-2
2.120047996E2,1.313359290E-2,-5.345067009E-3,6.963858753E-2
2.125089352E2,9.926552884E-3,-2.993237413E-2,5.070177838E-2
2.130130707E2,3.283398226E-2,-1.221729536E-2,3.100138716E-2
2.135172055E2,2.122755162E-2,-6.566796452E-3,2.947422490E-2
2.140213399E2,-2.901607659E-3,-2.672533318E-2,2.871064469E-2
2.145254737E2,1.985310577E-2,-3.375028074E-2,2.122755162E-2
2.150296071E2,-5.497782957E-3,-2.138026757E-3,2.565632015E-2
2.155337399E2,1.878409274E-2,8.704823442E-3,1.985310577E-3
2.160378725E2,-1.588248461E-2,-3.665188793E-3,2.168569900E-2
2.165420049E2,-2.412915789E-2,1.679878100E-3,3.512472380E-3
2.170461379E2,-7.330377586E-3,-8.399390616E-3,-2.138026757E-3
2.175502709E2,-2.138026757E-3,7.635809947E-3,-1.206457894E-2
2.180544048E2,7.635809598E-4,-9.162971983E-4,-3.817904973E-3
2.185585393E2,7.635809598E-4,-1.023198478E-2,-1.527161949E-4
2.190626745E2,3.359756200E-3,1.832594397E-3,-7.635809598E-4
2.195668101E2,-6.108647794E-4,1.404988952E-2,3.665188793E-3
2.200709462E2,-1.221729559E-3,-5.345067009E-3,3.359756200E-3
2.205750824E2,-9.010255337E-3,-4.428769462E-3,4.428769462E-3
2.210792188E2,-1.374445739E-3,-3.359756200E-3,-1.374445739E-3
2.215833554E2,-6.566796452E-3,-6.414080039E-3,1.374445762E-2
2.220874924E2,-6.261364091E-3,-3.207040019E-3,-2.138026757E-3
2.225916301E2,-5.039634649E-3,2.901607659E-3,-4.886918236E-3
2.230957683E2,2.138026757E-3,-1.023198478E-2,-1.908952370E-2
2.235999069E2,-1.481347065E-2,6.414080039E-3,-1.740964688E-2
2.241040457E2,-1.191186346E-2,2.397644334E-2,-5.451968312E-2
2.246081846E2,-2.672533318E-2,3.207040019E-3,-3.420842811E-2
2.251123234E2,-2.153298259E-2,6.719512399E-3,-3.466657549E-2
2.256164621E2,-7.177661173E-3,2.932151034E-2,9.773836471E-3
2.261206007E2,2.244928107E-2,3.176496923E-2,1.313359290E-2
2.266247390E2,3.405570984E-2,-5.039634649E-3,3.268126398E-2
2.271288773E2,3.054323979E-2,-1.038470119E-2,4.780016840E-2
2.276330155E2,1.450803876E-2,1.527161949E-4,5.604684353E-2
2.281371535E2,2.015853859E-2,-4.810560122E-2,5.238165334E-2
2.286412914E2,3.054323839E-3,-2.199113183E-2,2.000582218E-2
2.291454291E2,-2.000582218E-2,-1.481347065E-2,-2.244928107E-2
2.296495667E2,-1.954767294E-2,-1.389717404E-2,-4.734202102E-2
2.301537040E2,-4.581485689E-2,-1.878409274E-2,-6.933315098E-2
2.306578413E2,-4.703658819E-2,1.282816008E-2,-8.781181276E-2
2.311619788E2,-5.482511222E-2,2.825249545E-2,-8.918625861E-2
2.316661163E2,-6.139190868E-2,2.718348242E-2,-1.024725661E-1
2.321702541E2,-5.192350596E-2,3.115410358E-2,-8.063415438E-2
2.326743924E2,-7.131846249E-2,9.926552884E-3,-9.728021920E-2
2.331785314E2,-4.902189970E-2,3.924806044E-2,-1.073594838E-1
2.336826711E2,-4.795288667E-2,3.268126398E-2,-1.014035568E-1
2.341868113E2,-5.818486959E-2,2.260199748E-2,-9.178243577E-2
2.346909517E2,-5.085449293E-2,2.550360374E-2,-1.000291109E-1
2.351950919E2,-5.146535859E-2,3.100138716E-2,-9.651663154E-2
2.356992320E2,-5.192350596E-2,3.130681813E-2,-8.078686893E-2
2.362033718E2,-6.047561392E-2,3.008509055E-2,-7.803797722E-2
2.367075115E2,-3.787361458E-2,2.825249545E-2,-7.330377400E-2
2.372116510E2,-5.345067009E-3,3.680460155E-2,-6.169734150E-2
2.377157903E2,1.221729559E-3,4.169152305E-2,-4.291325063E-2
2.382199295E2,-7.483093534E-3,2.031125315E-2,-2.626718581E-2
2.387240701E2,-2.000582218E-2,-7.483093534E-3,-1.542433538E-2
2.392282074E2,-5.345067009E-3,-6.719512399E-3,-3.665188793E-3
2.397323461E2,-7.330377586E-3,2.290742937E-3,-1.130099874E-2
2.402364845E2,-2.748891478E-3,1.572976820E-2,-6.566796452E-3
2.407406227E2,4.428769462E-3,3.665188793E-3,-1.099556591E-2
2.412447608E2,0.000000000E0,-7.330377586E-3,-5.803215317E-3
2.417488990E2,-6.719512399E-3,-4.886918236E-3,9.468403645E-3
2.422530375E2,-1.374445739E-3,-7.024944760E-3,3.512472380E-3
2.427571764E2,1.679878100E-3,1.099556591E-2,-9.010255337E-3
2.432613157E2,-1.542433538E-2,-3.512472380E-3,6.108647794E-4
2.437654551E2,-2.748891478E-3,-1.450803876E-2,-2.290742937E-3
2.442695945E2,-1.374445739E-3,1.191186346E-2,7.635809598E-4
2.447737336E2,5.650499370E-3,-7.941242307E-3,-1.099556591E-2
2.452778725E2,-8.857538924E-3,-6.108647794E-4,4.123337101E-3
2.457820110E2,3.512472380E-3,1.527161920E-3,5.039634649E-3
2.462861491E2,-2.748891478E-3,-5.497782957E-3,1.679878100E-3
2.467902869E2,9.621120058E-3,1.924224012E-2,-6.566796452E-3
2.472944243E2,-7.483093534E-3,1.511890348E-2,5.345067009E-3
2.477985615E2,1.221729559E-3,9.621120058E-3,-6.414080039E-3
2.483026984E2,-1.267544460E-2,6.719512399E-3,-3.054323839E-3
2.488068350E2,1.069013402E-2,-9.162971983E-4,-9.010255337E-3
2.493109714E2,-1.084284950E-2,2.748891478E-3,-6.108647678E-3
2.498151073E2,6.719512399E-3,-2.290742937E-3,-9.162971750E-3
2.503192429E2,1.359174121E-2,1.893680729E-2,4.886918236E-3
2.508233781E2,1.374445762E-2,-2.290742937E-3,2.657261863E-2
2.513275131E2,2.107483521E-2,5.345067009E-3,4.825831577E-2
2.518316478E2,3.145953640E-2,5.192350596E-3,7.131846249E-2
2.523357821E2,3.985892609E-2,-4.428769462E-3,7.834340632E-2
2.528399160E2,4.856374860E-2,-2.794706449E-2,8.826996386E-2
2.533440495E2,3.420842811E-2,-2.779434808E-2,9.147699922E-2
2.538481827E2,3.940077871E-2,-1.557705179E-2,9.162971377E-2
2.543523156E2,4.413498193E-2,-2.703076601E-2,1.003345400E-1
2.548564482E2,5.039634556E-2,-2.596175298E-3,8.826996386E-2
2.553605805E2,3.558287397E-2,-2.550360374E-2,9.422589093E-2
2.558647125E2,3.268126398E-2,-1.878409274E-2,9.239330143E-2
2.563688442E2,4.337139800E-2,-2.993237413E-2,8.582650125E-2
2.568729757E2,3.237583488E-2,-3.787361458E-2,9.773836285E-2
2.573771069E2,4.108065739E-2,-3.390299529E-2,7.864884287E-2
2.578812378E2,2.504545636E-2,-2.962694131E-2,8.552107215E-2
2.583853685E2,2.641990222E-2,-4.260781780E-2,5.635227636E-2
2.588894989E2,2.153298259E-2,-2.061668597E-2,5.940660089E-2
2.593936290E2,7.635809598E-4,-3.359756246E-2,4.566214234E-2
2.598977588E2,2.229656465E-2,-5.192350596E-3,1.649334840E-2
2.604018884E2,2.443459071E-2,1.252272818E-2,-3.207040019E-3
2.609060177E2,9.162971983E-4,-6.414080039E-3,2.183841541E-2
2.614101467E2,7.483093534E-3,-2.748891478E-3,2.138026804E-2
2.619142757E2,7.330377586E-3,4.581485991E-4,7.483093534E-3
2.624184047E2,-4.886918236E-3,-1.679878100E-3,1.450803876E-2
2.629225336E2,3.054323897E-4,-9.315688163E-3,6.414080039E-3
2.634266625E2,4.276053514E-3,-4.581485875E-3,1.389717404E-2
2.639307912E2,3.817904973E-3,-2.443459118E-3,8.552107029E-3
2.644349199E2,5.803215317E-3,-3.054323839E-3,-2.138026757E-3
2.649390485E2,2.153298259E-2,-3.054323897E-4,-3.711003438E-2
2.654431769E2,-7.635809947E-3,4.581485991E-4,6.261364091E-3
2.659473053E2,-2.076940238E-2,5.803215317E-3,2.336557768E-2
2.664514336E2,4.123337101E-3,1.069013402E-2,-6.414080039E-3
2.669555620E2,-5.497782957E-3,-1.832594397E-3,5.650499370E-3
2.674596909E2,3.817904973E-3,-1.679878100E-3,-3.207040019E-3
2.679638201E2,-1.985310577E-3,1.985310577E-3,1.985310577E-3
2.684679498E2,1.527161920E-3,-1.527161920E-3,-1.527161949E-4
2.689720799E2,-8.857538924E-3,4.123337101E-3,3.359756200E-3
2.694762105E2,-4.428769462E-3,-2.290742937E-3,2.901607659E-3
2.699803413E2,4.276053514E-3,-9.162971983E-4,-2.443459118E-3
2.704844722E2,3.665188793E-3,2.443459118E-3,-1.985310577E-3
2.709886032E2,3.054323897E-4,2.748891478E-3,3.054323897E-4
2.714927341E2,9.162971983E-4,1.679878100E-3,-7.635809598E-4
2.719968650E2,-1.527161949E-4,-2.596175298E-3,4.581485991E-4
2.725009959E2,-1.679878100E-3,-1.069013379E-3,1.527161949E-4
2.730051266E2,-7.941242307E-3,9.162971983E-4,3.359756200E-3
2.735092572E2,-1.527161920E-3,4.581485991E-4,1.527161920E-3
2.740133877E2,6.108647678E-3,3.817904973E-3,-1.527161920E-3
2.745175178E2,1.221729559E-3,-2.138026757E-3,-1.985310577E-3
2.750216476E2,3.054323897E-4,-7.635809598E-4,3.054323897E-4
2.755257769E2,-7.635809598E-4,6.108647794E-4,4.581485991E-4
2.760299059E2,-1.069013379E-3,-1.679878100E-3,7.635809598E-4
2.765340347E2,0.000000000E0,1.221729559E-3,-1.374445739E-3
2.770381631E2,4.581485991E-4,-3.054323897E-4,-1.527161949E-4
2.775422914E2,7.177661173E-3,-1.527161920E-3,-3.512472380E-3
2.780464192E2,9.010255337E-3,-1.527161949E-4,-6.719512399E-3
2.785505468E2,4.581485875E-3,-2.443459118E-3,-4.276053514E-3
2.790546741E2,4.734201822E-3,-3.970621154E-3,-3.359756200E-3
2.795588012E2,-4.581485875E-3,-1.679878100E-3,-7.024944760E-3
2.800629279E2,5.803215317E-3,-1.985310577E-3,1.527161920E-3
2.805670545E2,7.177661173E-3,1.527161949E-4,6.566796452E-3
2.810711808E2,6.566796452E-3,-6.108647678E-3,1.130099874E-2
2.815753069E2,7.941242307E-3,2.748891478E-3,1.175914705E-2
2.820794327E2,9.926552884E-3,-6.108647794E-4,1.893680729E-2
2.825835581E2,1.130099874E-2,-1.328630932E-2,2.825249545E-2
2.830876833E2,1.572976820E-2,-1.832594350E-2,1.099556591E-2
2.835918081E2,6.719512399E-3,-8.704823442E-3,9.162971750E-3
2.840959327E2,6.108647794E-4,-6.872228812E-3,5.803215317E-3
2.846000570E2,-1.832594350E-2,-2.474002354E-2,-1.343902480E-2
2.851041810E2,-1.282816008E-2,-1.511890348E-2,-1.649334840E-2
2.856083047E2,-1.771507785E-2,2.275471389E-2,-1.359174121E-2
2.861124280E2,-9.010255337E-3,6.719512399E-3,-6.566796452E-3
2.866165511E2,4.276053514E-3,3.817904973E-3,-9.926552884E-3
2.871206738E2,-1.374445739E-3,-9.468403645E-3,-2.748891478E-3
2.876247965E2,1.832594397E-3,6.108647794E-4,1.527161920E-3
2.881289190E2,5.497782957E-3,7.635809598E-4,5.039634649E-3
2.886330413E2,-1.634063199E-2,-2.932151034E-2,-1.114828233E-2
2.891371635E2,-1.069013402E-2,1.191186346E-2,-7.177661173E-3
2.896412854E2,3.054323897E-4,2.474002354E-2,-9.926552884E-3
2.901454071E2,-1.053741761E-2,-1.374445739E-3,-1.130099874E-2
2.906495286E2,1.618791744E-2,5.955931731E-3,-4.734201822E-3
2.911536492E2,-1.145371422E-2,-1.832594397E-3,7.483093534E-3
2.916577705E2,-4.276053514E-3,-1.695149764E-2,2.290742937E-3
2.921618916E2,-9.162971750E-3,-2.596175298E-3,7.941242307E-3
2.926660128E2,-1.069013379E-3,2.443459118E-3,-6.872228812E-3
2.931701337E2,4.276053514E-3,3.665188793E-3,-7.635809947E-3
2.936742545E2,-9.773836471E-3,1.435532235E-2,1.023198478E-2
2.941783753E2,1.282816008E-2,2.046396956E-2,-2.443459118E-3
2.946824958E2,9.010255337E-3,1.939495653E-2,2.092211880E-2
2.951866163E2,2.015853859E-2,1.908952370E-2,3.985892609E-2
2.956907365E2,2.428187430E-2,1.038470119E-2,6.536252797E-2
2.961948565E2,4.886918142E-2,-3.313941509E-2,6.887500733E-2
2.966989763E2,3.252854943E-2,-4.352411628E-2,7.559451461E-2
2.972030960E2,2.657261863E-2,-3.008509055E-2,7.864884287E-2
2.977072158E2,2.825249545E-2,-2.779434808E-2,8.689551800E-2
2.982113357E2,2.122755162E-2,-2.947422490E-2,4.917461425E-2
2.987154557E2,2.458730713E-2,-1.450803876E-2,3.756818548E-2
2.992195758E2,1.389717404E-2,-1.603520103E-2,2.794706449E-2
2.997236959E2,1.557705179E-2,1.466075517E-2,2.031125315E-2
3.002278161E2,1.267544460E-2,-6.719512399E-3,7.635809598E-4
3.007319362E2,-1.038470119E-2,-2.015853859E-2,1.175914705E-2
3.012360565E2,4.581485991E-4,-6.108647678E-3,1.237001177E-2
3.017401769E2,-5.803215317E-3,6.566796452E-3,1.740964688E-2
3.022442975E2,1.313359290E-2,-3.665188793E-3,-2.901607659E-3
3.027484184E2,1.282816008E-2,1.221729559E-3,1.481347065E-2
3.032525395E2,6.108647678E-3,7.635809598E-4,7.330377586E-3
3.037566608E2,3.817904973E-3,-1.511890348E-2,1.359174121E-2
3.042607825E2,2.596175298E-3,1.985310577E-3,2.061668597E-2
3.047649045E2,1.221729559E-3,-6.566796452E-3,1.527161920E-3
3.052690268E2,-5.345067009E-3,-6.872228812E-3,5.039634649E-3
3.057731495E2,3.817904973E-3,-3.054323839E-3,-2.138026757E-3
3.062772723E2,-6.872228812E-3,-3.665188793E-3,1.069013379E-3
3.067813954E2,7.635809598E-4,-2.138026757E-3,4.428769462E-3
3.072855186E2,2.443459118E-3,-1.374445739E-3,-1.450803876E-2
3.077896419E2,-5.039634649E-3,-1.191186346E-2,-9.162971750E-3
3.082937652E2,-6.414080039E-3,-2.596175298E-3,-1.679878100E-3
3.087978885E2,-5.192350596E-3,-3.359756200E-3,-3.512472380E-3
3.093020118E2,4.734201822E-3,-3.665188793E-3,-7.330377586E-3
3.098061349E2,-3.817904973E-3,-3.512472380E-3,-5.192350596E-3
3.103102579E2,-9.621120058E-3,-7.483093534E-3,1.130099874E-2
3.108143807E2,-2.443459118E-3,-2.748891478E-3,-8.246674202E-3
3.113185033E2,-1.206457894E-2,-7.177661173E-3,7.788525894E-3
3.118226257E2,-3.512472380E-3,1.374445739E-3,-1.985310577E-2
3.123267479E2,1.679878100E-3,-7.941242307E-3,3.512472380E-3
3.128308699E2,1.572976820E-2,-2.748891478E-3,-9.315688163E-3
3.133349918E2,9.621120058E-3,-1.359174121E-2,-9.468403645E-3
3.138391136E2,6.414080039E-3,-6.108647794E-4,-3.054323897E-4
3.143432354E2,3.970621154E-3,-9.468403645E-3,-6.261364091E-3
3.148473572E2,-1.191186346E-2,-4.276053514E-3,-2.901607659E-3
3.153514788E2,-2.168569900E-2,7.024944760E-3,-3.970621154E-3
3.158556002E2,-6.108647794E-4,1.114828233E-2,-1.160643063E-2
3.163597214E2,2.092211880E-2,1.588248461E-2,-2.474002354E-2
3.168638425E2,1.970038936E-2,-5.039634649E-3,-8.093958721E-3
3.173679636E2,-1.985310577E-3,1.817322709E-2,8.552107029E-3
3.178720844E2,-2.886336111E-2,-3.817904973E-3,1.496618707E-2
3.183762048E2,-1.267544460E-2,-9.162971750E-3,-5.039634649E-3
3.188803246E2,-2.199113183E-2,9.162971983E-4,5.345067009E-3
3.193844438E2,1.572976857E-1,5.054906011E-2,-1.001818255E-1
3.198885624E2,2.104429156E-1,3.249800503E-1,-4.352411628E-2
3.203926804E2,1.224783882E-1,-1.392771751E-1,-5.940660089E-2
3.208967979E2,6.597339362E-2,8.292489499E-2,5.772672221E-2
3.214009148E2,-1.847865991E-2,-1.276707351E-1,-1.747073233E-1
3.219050312E2,-1.230892539E-1,2.813032269E-1,-1.151480079E-1
3.224091471E2,5.192350596E-3,-9.728021920E-2,-3.298669681E-2
3.229132626E2,-2.406807244E-1,-1.774562150E-1,1.240055487E-1
3.234173776E2,-7.177661359E-2,-5.238165334E-2,1.740964688E-2
3.239214924E2,-3.970621154E-2,-6.872228812E-3,3.008509055E-2
3.244256068E2,-7.788525894E-3,-4.886918236E-3,7.024944760E-3
3.249297209E2,1.069013379E-3,-3.359756200E-3,-1.664606482E-2
3.254338349E2,-1.404988952E-2,-4.886918236E-3,2.596175298E-3
3.259379495E2,-1.359174121E-2,-3.665188793E-3,1.985310577E-3
3.264420648E2,-2.932151034E-2,-1.725693047E-2,1.679878100E-3
3.269461808E2,-8.399390616E-3,8.857538924E-3,-3.161225095E-2
3.274502973E2,-1.878409274E-2,-9.315688163E-3,-4.352411628E-2
3.279544143E2,-4.092793912E-2,9.926552884E-3,-5.833758786E-2
3.284585316E2,-4.138609022E-2,2.168569900E-2,-7.467821985E-2
3.289626492E2,-6.582067907E-2,1.679878123E-2,-1.003345400E-1
3.294667669E2,-7.483093441E-2,3.817904741E-2,-1.279761642E-1
3.299708848E2,-8.994983882E-2,3.833176568E-2,-1.644753367E-1
3.304750029E2,-1.214093715E-1,4.673115537E-2,-1.791360974E-1
3.309791209E2,-1.226311028E-1,6.185005978E-2,-1.989891976E-1
3.314832390E2,-1.450803876E-1,5.818486959E-2,-2.211330533E-1
3.319873571E2,-1.249218509E-1,6.414080411E-2,-2.498437017E-1
3.324914753E2,-1.414151937E-1,9.086613357E-2,-2.438877672E-1
3.329955935E2,-1.258381456E-1,5.925388262E-2,-2.357937992E-1
3.334997117E2,-1.047633067E-1,8.307760954E-2,-2.102901936E-1
3.340038299E2,-8.750637621E-2,4.489856213E-2,-2.069304436E-1
3.345079484E2,-5.604684353E-2,5.131264031E-2,-1.061377525E-1
3.350120669E2,-3.084867075E-2,2.748891525E-2,-6.673697382E-2
3.355161854E2,-3.390299529E-2,-2.550360374E-2,-7.483093534E-3
3.360203039E2,-7.177661173E-3,1.527161920E-3,-4.474584386E-2
3.365244224E2,-9.926552884E-3,1.985310577E-3,-3.711003438E-2
3.370285410E2,-4.886918236E-3,7.483093534E-3,-2.733619884E-2
3.375326597E2,-7.330377586E-3,3.268126398E-2,-1.130099874E-2
3.380367785E2,7.635809947E-3,2.916879393E-2,-1.878409274E-2
3.385408973E2,-1.343902480E-2,2.290742937E-3,5.039634649E-3
3.390450162E2,-4.123337101E-3,-2.367101051E-2,-8.857538924E-3
3.395491351E2,9.315688163E-3,7.483093534E-3,-9.468403645E-3
3.400532541E2,-4.581485991E-4,3.817904973E-3,-1.252272818E-2
3.405573731E2,3.512472380E-3,-3.054323839E-3,-3.054323897E-4
3.410614921E2,9.162971750E-3,-7.483093534E-3,-6.261364091E-3
3.415656112E2,3.970621154E-3,-1.084284950E-2,-5.497782957E-3
3.420697304E2,4.581485875E-3,3.970621154E-3,1.970038936E-2
3.425738499E2,-1.374445739E-3,1.374445739E-3,2.153298259E-2
3.430779701E2,-1.023198478E-2,9.162971983E-4,0.000000000E0
3.435820916E2,2.290742937E-3,-2.138026757E-3,1.832594397E-3
3.440862142E2,1.328630932E-2,4.581485875E-3,8.093958721E-3
3.445903377E2,5.192350596E-3,-1.267544460E-2,-2.138026757E-3
3.450944620E2,-6.108647678E-3,1.527161920E-3,2.993237413E-2
3.455985868E2,4.428769462E-3,1.511890348E-2,3.665188793E-3
3.461027121E2,-5.803215317E-3,6.108647794E-4,-4.581485991E-4
3.466068378E2,-1.191186346E-2,5.192350596E-3,1.740964688E-2
3.471109640E2,7.635809947E-3,9.621120058E-3,4.123337101E-3
3.476150906E2,-3.665188793E-3,-6.872228812E-3,-3.359756200E-3
3.481192174E2,7.177661173E-3,-1.786779426E-2,-2.138026757E-3
3.486233444E2,-9.621120058E-3,-8.246674202E-3,2.351829410E-2
3.491274716E2,1.114828233E-2,-1.832594397E-3,-1.160643063E-2
3.496315988E2,9.315688163E-3,-5.039634649E-3,-4.581485991E-4
3.501357259E2,7.941242307E-3,9.773836471E-3,4.123337101E-3
3.506398529E2,7.177661173E-3,2.138026757E-3,9.162971983E-4
3.511439812E2,5.650499370E-3,-9.162971750E-3,-1.527161949E-4
3.516481081E2,5.039634649E-3,3.054323897E-4,9.468403645E-3
3.521522350E2,1.679878100E-3,4.581485875E-3,8.857538924E-3
3.526563616E2,1.282816008E-2,1.527161949E-4,-2.458730713E-2
3.531604881E2,-1.069013379E-3,2.596175298E-3,4.734201822E-3
3.536646144E2,2.748891525E-2,-1.237001177E-2,-4.230238497E-2
3.541687405E2,-1.069013379E-3,4.734201822E-3,1.603520103E-2
3.546728665E2,1.771507785E-2,1.725693047E-2,3.817904973E-3
3.551769926E2,1.237001177E-2,3.054323897E-4,3.359756246E-2
3.556811187E2,1.802051067E-2,-1.970038936E-2,4.642572254E-2
3.561852447E2,2.764163166E-2,3.665188793E-3,4.841103405E-2
3.566893704E2,3.863719851E-2,1.160643063E-2,8.521563560E-2
3.571934958E2,6.658425927E-2,7.330377586E-3,1.084285006E-1
3.576976210E2,5.864302069E-2,-6.001746282E-2,1.595884264E-1
3.582017460E2,9.972367436E-2,-4.398226365E-2,2.176205814E-1
3.587058709E2,1.082757786E-1,-6.261363626E-2,2.587012351E-1
3.592099958E2,1.101083755E-1,-8.735366166E-2,2.901607752E-1
3.597141206E2,1.227838174E-1,-6.826414168E-2,3.055851161E-1
3.602182452E2,1.409570426E-1,-6.688969582E-2,2.971857190E-1
3.607223696E2,1.229365394E-1,-1.140789986E-1,2.910770774E-1
3.612264937E2,1.204930767E-1,-6.261364091E-3,2.258672565E-1
3.617306177E2,7.895427197E-2,-9.819651395E-2,2.128863782E-1
3.622347416E2,6.001746282E-2,-8.949168772E-2,1.279761642E-1
3.627388654E2,4.092793912E-2,-1.893680729E-2,6.246092543E-2
3.632429892E2,2.641990222E-2,4.428769462E-3,3.405570984E-2
3.637471128E2,1.359174121E-2,-1.985310577E-2,3.756818548E-2
3.642512363E2,4.734201822E-3,-9.468403645E-3,1.084284950E-2
3.647553597E2,3.970621154E-3,1.298087649E-2,1.328630932E-2
3.652594830E2,7.483093534E-3,-4.428769462E-3,2.962694131E-2
3.657636061E2,7.635809947E-3,-3.023780696E-2,1.618791744E-2
3.662677289E2,8.093958721E-3,-9.162971750E-3,1.221729559E-3
3.667718516E2,-4.123337101E-3,-7.635809598E-4,1.175914705E-2
3.672759741E2,1.954767294E-2,9.315688163E-3,2.138026757E-3
3.677800966E2,-8.552107029E-3,3.207040019E-3,1.572976820E-2
3.682842190E2,7.330377586E-3,1.343902480E-2,-3.817904973E-3
3.687883415E2,-1.786779426E-2,-1.878409274E-2,-1.023198478E-2
3.692924639E2,3.054323897E-4,7.635809598E-4,9.773836471E-3
3.697965863E2,3.512472380E-3,-2.596175298E-3,4.581485875E-3
3.703007086E2,-1.832594397E-3,1.496618707E-2,-1.496618707E-2
3.708048308E2,1.007926930E-2,1.130099874E-2,9.621120058E-3
3.713089528E2,-2.290742937E-3,-4.428769462E-3,-7.788525894E-3
3.718130749E2,1.053741761E-2,-2.061668597E-2,1.908952370E-2
3.723171968E2,-2.382372692E-2,-5.497782957E-3,1.771507785E-2
3.728213187E2,1.023198478E-2,-1.328630932E-2,1.114828233E-2
3.733254405E2,1.695149764E-2,1.313359290E-2,1.267544460E-2
3.738295627E2,-8.399390616E-3,-1.832594397E-3,-1.038470119E-2
3.743336852E2,-5.650499370E-3,-1.160643063E-2,-7.483093534E-3
3.748378080E2,-4.734201822E-3,8.246674202E-3,4.428769462E-3
3.753419308E2,4.428769462E-3,6.566796452E-3,1.832594397E-3
3.758460536E2,1.374445739E-3,3.665188793E-3,-4.581485991E-4
3.763501763E2,-1.374445762E-2,-1.145371422E-2,0.000000000E0
3.768542989E2,5.803215317E-3,-3.054323839E-3,1.069013379E-3
3.773584214E2,4.123337101E-3,5.803215317E-3,1.832594397E-3
3.778625438E2,3.817904973E-3,2.748891478E-3,8.093958721E-3
3.783666661E2,4.734201822E-3,-7.177661173E-3,-9.162971750E-3
3.788707881E2,-1.511890348E-2,-1.863137633E-2,1.679878100E-3
3.793749100E2,-4.276053514E-3,1.099556591E-2,1.939495653E-2
3.798790316E2,-4.276053514E-3,9.010255337E-3,6.108647678E-3
3.803831530E2,-4.276053514E-3,-1.099556591E-2,-1.832594397E-3
3.808872741E2,1.145371422E-2,1.145371422E-2,-1.114828233E-2
3.813913952E2,-5.039634649E-3,3.970621154E-3,1.985310577E-3
3.818955162E2,2.443459118E-3,-9.773836471E-3,1.527161920E-3
3.823996371E2,7.635809598E-4,-1.603520103E-2,1.404988952E-2
3.829037579E2,-1.985310577E-3,-4.123337101E-3,8.552107029E-3
3.834078786E2,-2.626718581E-2,-1.282816008E-2,2.092211880E-2
3.839119993E2,4.581485991E-4,1.954767294E-2,-2.122755162E-2
3.844161199E2,3.054323839E-3,2.748891478E-3,3.054323897E-4
3.849202404E2,-1.282816008E-2,-1.038470119E-2,1.863137633E-2
3.854243609E2,7.483093534E-3,7.330377586E-3,-1.908952370E-2
3.859284813E2,1.023198478E-2,4.276053514E-3,-1.786779426E-2
3.864326016E2,6.719512399E-3,4.581485991E-4,-1.420260593E-2
3.869367218E2,3.054323897E-4,3.054323839E-3,-5.345067009E-3
3.874408419E2,3.054323897E-4,4.428769462E-3,-8.093958721E-3
3.879449618E2,-7.941242307E-3,-3.054323839E-3,5.803215317E-3
3.884490814E2,-1.679878100E-3,4.886918236E-3,-3.359756200E-3
3.889532010E2,6.719512399E-3,1.985310577E-3,-4.581485991E-4
3.894573203E2,1.527161920E-3,-1.221729559E-3,-1.374445739E-3
3.899614397E2,1.099556591E-2,2.748891478E-3,-2.214384824E-2
3.904655588E2,9.162971983E-4,-2.596175298E-3,1.374445739E-3
3.909696777E2,1.527161989E-2,-3.054323897E-4,-2.748891525E-2
3.914737963E2,3.207040019E-3,-1.099556591E-2,-4.734201822E-3
3.919779147E2,-2.596175298E-3,6.719512399E-3,9.010255337E-3
3.924820328E2,5.497782957E-3,1.328630932E-2,-1.130099874E-2
3.929861508E2,-7.024944760E-3,-4.276053514E-3,-2.901607659E-3
3.934902686E2,-1.847865991E-2,-2.199113183E-2,-1.023198478E-2
3.939943862E2,-6.566796452E-3,-2.229656465E-2,-1.771507785E-2
3.944985036E2,-1.313359290E-2,2.580903657E-2,-2.061668597E-2
3.950026208E2,-1.618791744E-2,6.414080039E-3,-3.756818548E-2
3.955067378E2,-1.985310577E-2,3.817904973E-3,-2.596175298E-2
3.960108549E2,-1.359174121E-2,1.511890348E-2,-2.000582218E-2
3.965149719E2,-9.162971750E-3,3.054323979E-2,1.069013379E-3
3.970190890E2,3.054323839E-3,1.634063199E-2,-1.771507785E-2
3.975232060E2,1.038470119E-2,6.108647678E-3,-2.596175298E-3
3.980273228E2,4.581485875E-3,-8.093958721E-3,2.000582218E-2
3.985314394E2,1.557705179E-2,-1.878409274E-2,1.695149764E-2
3.990355558E2,3.970621154E-3,-9.162971750E-3,3.588830680E-2
3.995396720E2,1.695149764E-2,-1.527161920E-3,2.733619884E-2
4.000437881E2,6.414080039E-3,-7.177661173E-3,2.596175298E-2
4.005479041E2,6.261364091E-3,-1.832594397E-3,4.428769462E-3
4.010520200E2,1.511890348E-2,-4.276053514E-3,5.650499370E-3
4.015561356E2,-6.719512399E-3,-6.261364091E-3,1.099556591E-2
4.020602510E2,1.175914705E-2,-1.939495653E-2,8.399390616E-3
4.025643662E2,-1.069013379E-3,-5.039634649E-3,7.177661173E-3
4.030684812E2,-9.162971983E-4,-4.734201822E-3,-6.719512399E-3
4.035725964E2,-1.496618707E-2,5.955931731E-3,1.679878100E-3
4.040767117E2,5.039634649E-3,1.053741761E-2,-6.261364091E-3
4.045808271E2,-2.443459118E-3,2.901607659E-3,-7.941242307E-3
4.050849427E2,1.679878100E-3,-6.566796452E-3,5.955931731E-3
4.055890582E2,1.924224012E-2,1.847865991E-2,1.832594397E-3
4.060931737E2,-9.926552884E-3,-4.581485991E-4,5.497782957E-3
4.065972892E2,-8.246674202E-3,-1.695149764E-2,-3.970621154E-3
4.071014047E2,1.191186346E-2,7.330377586E-3,-3.817904973E-3
4.076055202E2,-1.206457894E-2,1.191186346E-2,4.886918236E-3
4.081096356E2,-1.328630932E-2,-2.076940238E-2,-3.207040019E-3
4.086137509E2,9.621120058E-3,4.276053514E-3,2.290742937E-3
4.091178662E2,6.261364091E-3,1.298087649E-2,0.000000000E0
4.096219816E2,-2.901607659E-3,-1.588248461E-2,-5.039634649E-3
4.101260972E2,1.618791744E-2,1.893680729E-2,1.145371422E-2
4.106302128E2,-2.138026757E-3,-4.886918236E-3,6.108647794E-4
4.111343271E2,-8.093958721E-3,-2.092211880E-2,3.817904973E-3
4.116384430E2,-3.207040019E-3,2.138026804E-2,1.114828233E-2
4.121425590E2,3.207040019E-3,-6.261364091E-3,-1.328630932E-2
4.126466750E2,8.093958721E-3,1.328630932E-2,4.581485875E-3
4.131507912E2,2.443459118E-3,1.970038936E-2,1.527161949E-4
4.136549075E2,-8.246674202E-3,-2.183841541E-2,-7.024944760E-3
4.141590239E2,-4.886918236E-3,4.581485991E-4,4.581485991E-4
4.146631404E2,8.246674202E-3,4.428769462E-3,-2.596175298E-3
4.151672571E2,-1.374445762E-2,-1.725693047E-2,6.108647794E-4
4.156713747E2,9.621120058E-3,-7.330377586E-3,-1.374445739E-3
4.161754910E2,-1.069013379E-3,-1.069013379E-3,4.734201822E-3
4.166796081E2,3.054323839E-3,-1.374445739E-3,-7.635809598E-4
4.171837254E2,-3.054323897E-4,1.221729536E-2,1.069013402E-2
4.176878428E2,9.621120058E-3,-5.497782957E-3,-1.160643063E-2
4.181919603E2,-2.015853859E-2,-1.924224012E-2,3.054323897E-4
4.186960778E2,1.374445762E-2,1.466075517E-2,1.527161949E-4
4.192001953E2,-3.512472380E-3,1.221729559E-3,1.527161920E-3
4.197043128E2,-7.483093534E-3,-1.725693047E-2,-6.719512399E-3
4.202084303E2,8.552107029E-3,1.542433538E-2,5.192350596E-3
4.207125479E2,-5.497782957E-3,2.596175298E-3,-7.635809598E-4
4.212166655E2,1.527161949E-4,-2.504545636E-2,-9.315688163E-3
4.217207831E2,-2.901607659E-3,1.343902480E-2,1.007926930E-2
4.222249006E2,-5.803215317E-3,6.872228812E-3,5.497782957E-3
4.227290181E2,-1.481347065E-2,-1.908952370E-2,-6.872228812E-3
4.232331355E2,7.483093534E-3,-1.527161949E-4,3.054323839E-3
4.237372531E2,1.878409274E-2,2.260199748E-2,-6.872228812E-3
4.242413707E2,-1.756236330E-2,-1.221729536E-2,-2.901607659E-3
4.247454945E2,1.588248461E-2,6.872228812E-3,-3.054323839E-3
4.252496066E2,-1.099556591E-2,-1.069013379E-3,7.941242307E-3
4.257537246E2,-7.788525894E-3,-2.138026757E-3,1.679878100E-3
4.262578427E2,-8.704823442E-3,-5.497782957E-3,-2.596175298E-3
4.267619607E2,1.038470119E-2,-8.552107029E-3,-6.414080039E-3
4.272660784E2,7.941242307E-3,2.718348242E-2,8.246674202E-3
4.277701960E2,1.237001177E-2,-2.748891478E-3,-7.788525894E-3
4.282743132E2,-2.153298259E-2,-3.298669681E-2,-2.901607659E-3
4.287784303E2,1.160643063E-2,6.414080039E-3,9.162971750E-3
4.292825470E2,-1.343902480E-2,-6.108647794E-4,7.635809947E-3
4.297866636E2,5.497782957E-3,-3.665188793E-3,-7.024944760E-3
4.302907803E2,4.123337101E-3,-1.221729559E-3,-6.261364091E-3
4.307948968E2,1.985310577E-3,7.788525894E-3,1.374445739E-3
4.312990131E2,1.374445739E-3,7.635809947E-3,-2.443459118E-3
4.318031295E2,2.596175298E-3,-1.527161920E-3,-5.955931731E-3
4.323072459E2,-6.108647794E-4,1.618791744E-2,9.162971750E-3
4.328113624E2,-6.872228812E-3,-2.397644334E-2,-1.267544460E-2
4.333154790E2,1.252272818E-2,3.100138716E-2,1.847865991E-2
4.338195958E2,3.527744114E-2,1.725693047E-2,-7.330377586E-3
4.343237127E2,-2.871064469E-2,-1.133154184E-1,-5.955931731E-3
4.348278296E2,-1.527161920E-3,-3.023780696E-2,3.894263133E-2
4.353319468E2,2.107483521E-2,1.542433538E-2,2.855792828E-2
4.358360640E2,-4.581485991E-4,-4.734202102E-2,7.177661173E-3
4.363401811E2,4.734201822E-3,-3.207040019E-3,2.901607752E-2
4.368442981E2,1.114828233E-2,7.024944760E-3,1.893680729E-2
4.373484147E2,1.328630932E-2,-1.420260593E-2,8.857538924E-3
4.378525308E2,1.756236330E-2,-3.817904973E-3,8.399390616E-3
4.383566462E2,2.596175298E-3,-7.330377586E-3,1.924224012E-2
4.388607611E2,-1.374445762E-2,-6.108647678E-3,2.886336111E-2
4.393648753E2,1.649334840E-2,4.184423760E-2,2.687804960E-2
4.398689889E2,3.634645417E-2,6.444623321E-2,-6.872228812E-3
4.403731019E2,-3.512472380E-3,-1.221729536E-2,-8.552107029E-3
4.408772143E2,1.985310577E-3,-1.527161949E-4,-1.221729559E-3
4.413813261E2,2.122755162E-2,2.794706449E-2,7.635809947E-3
4.418854374E2,-2.244928107E-2,-2.474002354E-2,-1.237001177E-2
4.423895481E2,6.872228812E-3,2.000582218E-2,1.160643063E-2
4.428936583E2,9.773836471E-3,1.695149764E-2,-3.512472380E-3
4.433977683E2,-4.734201822E-3,-2.076940238E-2,5.650499370E-3
4.439018789E2,-3.817904973E-3,-2.138026757E-3,5.803215317E-3
4.444059903E2,-1.527161989E-2,-2.015853859E-2,4.886918236E-3
4.449101024E2,4.428769462E-3,1.160643063E-2,2.748891478E-3
4.454142152E2,-2.138026757E-3,-3.970621154E-3,-3.817904973E-3
4.459183284E2,-2.443459118E-3,-3.054323839E-3,-4.886918236E-3
4.464224420E2,8.246674202E-3,1.893680729E-2,6.872228812E-3
4.469265559E2,-3.970621154E-3,1.832594397E-3,-2.901607659E-3
4.474306702E2,-3.054323839E-3,-1.893680729E-2,-9.468403645E-3
4.479347851E2,4.734201822E-3,2.290742844E-2,1.023198478E-2
4.484389008E2,-7.635809947E-3,9.010255337E-3,5.345067009E-3
4.489430176E2,-1.084284950E-2,-1.878409274E-2,-4.886918236E-3
4.494471355E2,9.926552884E-3,4.276053514E-3,2.443459118E-3
4.499512545E2,5.345067009E-3,-9.315688163E-3,-5.345067009E-3
4.504553744E2,-1.374445739E-3,-5.192350596E-3,1.679878100E-3
4.509594952E2,1.221729536E-2,1.313359290E-2,4.428769462E-3
4.514636168E2,-1.160643063E-2,-4.734201822E-3,1.069013379E-3
4.519677391E2,7.788525894E-3,-1.038470119E-2,-9.773836471E-3
4.524718620E2,-1.496618707E-2,9.315688163E-3,8.246674202E-3
4.529759854E2,1.328630932E-2,-3.817904973E-3,-9.010255337E-3
4.534801092E2,-1.695149764E-2,-1.557705179E-2,5.955931731E-3
4.539842329E2,1.786779426E-2,1.175914705E-2,4.276053514E-3
4.544883560E2,-3.207040019E-3,-9.162971983E-4,1.374445739E-3
4.549924785E2,-1.374445762E-2,-2.947422490E-2,1.832594397E-3
4.554966004E2,8.552107029E-3,2.138026757E-3,4.886918236E-3
4.560007219E2,-1.542433538E-2,-8.246674202E-3,-1.679878100E-3
4.565048431E2,-1.007926930E-2,3.970621154E-3,1.175914705E-2
4.570089641E2,1.114828233E-2,5.955931731E-3,1.527161949E-4
4.575130845E2,-1.130099874E-2,8.552107029E-3,-6.108647794E-4
4.580172045E2,1.114828233E-2,-5.650499370E-3,-4.886918236E-3
4.585213240E2,3.359756200E-3,-1.359174121E-2,-2.443459118E-3
4.590254433E2,-3.359756200E-3,-9.162971750E-3,-1.221729559E-3
4.595295623E2,1.069013402E-2,4.535670951E-2,1.771507785E-2
4.600336809E2,7.941242307E-3,-3.207040019E-3,-1.725693047E-2
4.605377990E2,-5.803215317E-3,-1.298087649E-2,1.527161920E-3
4.610419166E2,1.267544460E-2,6.414080039E-3,3.359756200E-3
4.615460336E2,5.955931731E-3,1.527161920E-3,-3.512472380E-3
4.620501504E2,-5.497782957E-3,1.389717404E-2,9.315688163E-3
4.625542673E2,-7.024944760E-3,1.221729536E-2,-3.054323897E-4
4.630583845E2,-5.192350596E-3,-1.023198478E-2,1.374445739E-3
4.635625018E2,-3.054323839E-3,3.817904973E-3,7.635809598E-4
4.640666192E2,7.941242307E-3,6.719512399E-3,7.941242307E-3
4.645707365E2,1.160643063E-2,-1.527161949E-4,4.276053514E-3
4.650748539E2,-1.588248461E-2,-1.527161989E-2,1.084284950E-2
4.655789712E2,1.313359290E-2,2.138026757E-3,4.276053514E-3
4.660830886E2,-8.704823442E-3,1.527161920E-3,4.276053514E-3
4.665872062E2,1.084284950E-2,-2.031125315E-2,-1.237001177E-2
4.670913239E2,-2.550360374E-2,9.010255337E-3,1.756236330E-2
4.675954414E2,2.733619884E-2,2.443459118E-3,-1.267544460E-2
4.680995587E2,-1.572976820E-2,-1.374445739E-3,2.596175298E-3
4.686036758E2,1.237001177E-2,-3.054323897E-4,-2.138026757E-3
4.691077927E2,-5.497782957E-3,-1.389717404E-2,-8.093958721E-3
4.696119096E2,-8.093958721E-3,-8.399390616E-3,4.428769462E-3
4.701160270E2,7.635809598E-4,7.177661173E-3,7.483093534E-3
4.706201453E2,-4.428769462E-3,-4.734201822E-3,-4.276053514E-3
4.711242647E2,1.175914705E-2,-7.635809598E-4,-3.665188793E-3
4.716283846E2,-6.872228812E-3,9.010255337E-3,4.428769462E-3
4.721325051E2,1.817322709E-2,1.099556591E-2,-7.483093534E-3
4.726366268E2,-1.191186346E-2,-1.099556591E-2,-7.788525894E-3
4.731407479E2,4.581485875E-3,1.679878100E-3,5.803215317E-3
4.736448699E2,-4.276053514E-3,-1.679878100E-3,3.512472380E-3
4.741489921E2,-1.832594350E-2,1.527161949E-4,9.010255337E-3
4.746531147E2,2.031125315E-2,-4.428769462E-3,-1.908952370E-2
4.751572376E2,-1.160643063E-2,2.443459118E-3,8.399390616E-3
4.756613609E2,1.710421406E-2,9.773836471E-3,-5.192350596E-3
4.761654846E2,-1.511890348E-2,2.290742937E-3,1.832594397E-3
4.766696088E2,1.588248461E-2,-4.123337101E-3,-3.054323839E-3
4.771737337E2,-2.412915789E-2,-3.207040019E-3,1.191186346E-2
4.776778591E2,1.206457894E-2,-1.069013379E-3,-1.374445739E-3
4.781819850E2,6.108647794E-4,-5.192350596E-3,-2.748891478E-3
4.786861112E2,-5.803215317E-3,1.374445739E-3,3.207040019E-3
4.791902377E2,1.679878123E-2,9.162971983E-4,-2.138026757E-3
4.796943647E2,-1.282816008E-2,4.581485991E-4,-4.428769462E-3
4.801984920E2,1.038470119E-2,-1.221729559E-3,9.162971983E-4
4.807026196E2,-1.527161989E-2,-1.466075517E-2,-4.734201822E-3
4.812067474E2,-8.552107029E-3,-7.483093534E-3,1.053741761E-2
4.817108755E2,5.497782957E-3,9.315688163E-3,-2.443459118E-3
4.822150039E2,4.581485875E-3,-2.748891478E-3,-1.435532235E-2
4.827191325E2,-1.527161949E-4,0.000000000E0,6.414080039E-3
4.832232611E2,-3.054323839E-3,-1.237001177E-2,-1.252272818E-2
4.837273899E2,-5.803215317E-3,9.162971750E-3,2.229656465E-2
4.842315188E2,1.038470119E-2,2.886336111E-2,-1.679878100E-3
4.847356478E2,-1.420260593E-2,-2.733619884E-2,-1.023198478E-2
4.852397769E2,-1.221729559E-3,1.466075517E-2,7.483093534E-3
4.857439059E2,3.054323979E-2,4.505127668E-2,2.596175298E-3
4.862480349E2,-1.527161949E-4,-1.832594350E-2,-4.886918236E-3
4.867521638E2,2.351829410E-2,4.031707719E-2,3.756818548E-2
4.872562927E2,4.795288667E-2,9.621120058E-3,1.252272818E-2
4.877604216E2,-5.192350596E-2,-1.062904745E-1,4.886918236E-3
4.882645503E2,4.993819445E-2,9.926552884E-3,5.574141070E-2
4.887686789E2,-4.474584386E-2,-9.300415963E-2,2.504545636E-2
4.892728074E2,7.223475724E-2,6.719512399E-3,7.391463965E-2
4.897769359E2,1.007926930E-2,7.024944760E-3,5.467239767E-2
4.902810644E2,2.672533318E-2,-1.237001177E-2,5.772672221E-2
4.907851934E2,3.283398226E-2,2.351829410E-2,4.917461425E-2
4.912893232E2,6.261364091E-3,-2.046396956E-2,-2.061668597E-2
4.917934538E2,3.359756200E-3,9.773836471E-3,1.298087649E-2
4.922975854E2,7.024944760E-3,3.817904973E-3,-1.069013379E-3
4.928017182E2,1.832594397E-3,-1.450803876E-2,-2.138026757E-3
4.933058522E2,2.748891478E-3,1.527161949E-4,8.246674202E-3
4.938099874E2,-6.414080039E-3,-1.435532235E-2,2.443459118E-3
4.943141235E2,-1.084284950E-2,-7.788525894E-3,-1.985310577E-3
4.948182604E2,-1.359174121E-2,3.054323839E-3,2.901607659E-3
4.953223980E2,2.535088919E-2,1.221729536E-2,-9.773836471E-3
4.958265360E2,-9.315688163E-3,8.552107029E-3,9.162971983E-4
4.963306740E2,8.246674202E-3,-1.343902480E-2,-9.621120058E-3
4.968348122E2,-1.298087649E-2,-4.886918236E-3,8.857538924E-3
4.973389503E2,1.802051067E-2,2.214384824E-2,8.246674202E-3
4.978430882E2,-1.649334840E-2,-1.695149764E-2,4.123337101E-3
4.983472260E2,6.872228812E-3,-1.481347065E-2,-8.552107029E-3
4.988513644E2,3.207040019E-3,1.389717404E-2,-6.108647678E-3
4.993555034E2,-2.901607659E-3,-1.527161949E-4,2.443459118E-3
4.998596429E2,1.374445739E-3,5.192350596E-3,-3.207040019E-3
5.003637831E2,-2.901607659E-3,-1.053741761E-2,2.138026757E-3
5.008679237E2,-1.695149764E-2,8.552107029E-3,1.084284950E-2
5.013720646E2,1.939495653E-2,8.399390616E-3,-3.359756200E-3
5.018762055E2,-4.734201822E-3,-8.246674202E-3,6.108647794E-4
5.023803463E2,1.466075517E-2,3.817904973E-3,1.221729559E-3
5.028844871E2,-1.038470119E-2,-1.603520103E-2,-3.512472380E-3
5.033886284E2,5.039634649E-3,1.832594397E-3,1.007926930E-2
5.038927701E2,9.162971750E-3,5.497782957E-3,7.788525894E-3
5.043969119E2,-8.704823442E-3,3.054323897E-4,1.481347065E-2
5.049010536E2,1.175914705E-2,-1.374445739E-3,1.527161920E-3
5.054051953E2,-5.650499370E-3,-1.588248461E-2,3.817904973E-3
5.059093372E2,2.260199748E-2,8.093958721E-3,2.901607659E-3
5.064134795E2,-4.123337101E-3,-4.276053514E-3,5.497782957E-3
5.069176219E2,5.497782957E-3,-9.926552884E-3,7.330377586E-3
5.074217644E2,-2.901607659E-3,5.650499370E-3,9.468403645E-3
5.079259067E2,1.374445739E-3,-8.552107029E-3,-4.734201822E-3
5.084300488E2,-1.847865991E-2,-6.108647678E-3,6.872228812E-3
5.089341909E2,-6.719512399E-3,-5.803215317E-3,8.857538924E-3
5.094383329E2,-3.054323839E-3,4.886918236E-3,9.773836471E-3
5.099424748E2,1.847865991E-2,2.122755162E-2,-1.252272818E-2
5.104466164E2,-1.603520103E-2,-2.901607659E-3,-1.069013379E-3
5.109507577E2,4.276053514E-3,-7.024944760E-3,-4.123337101E-3
5.114548985E2,7.483093534E-3,1.695149764E-2,1.878409274E-2
5.119590388E2,1.496618707E-2,-3.207040019E-3,1.389717404E-2
5.124631787E2,1.023198478E-2,-2.901607659E-3,5.497782957E-3
5.129673184E2,1.970038936E-2,1.664606482E-2,1.817322709E-2
5.134714576E2,1.924224012E-2,2.275471389E-2,4.627300799E-2
5.139755964E2,4.367683083E-2,-1.069013402E-2,4.321868345E-2
5.144797349E2,2.733619884E-2,-3.176496923E-2,6.841685623E-2
5.149838731E2,1.542433538E-2,-4.841103405E-2,6.688969582E-2
5.154880112E2,2.901607659E-3,-5.329795182E-2,-0.000000000E0
5.159921491E2,2.000582218E-2,-5.986474827E-2,3.970621154E-3
5.164962866E2,-2.519817278E-2,2.626718581E-2,-4.886918236E-3
5.170004235E2,-3.634645417E-2,2.901607752E-2,-7.208204269E-2
5.175045604E2,-3.207040206E-2,1.191186346E-2,-4.978547990E-2
5.180086974E2,-1.450803876E-2,5.482511222E-2,-6.551524997E-2
5.185128347E2,-3.588830680E-2,3.069595434E-2,-4.108065739E-2
5.190169725E2,-3.054323839E-3,1.374445739E-3,-2.000582218E-2
5.195211110E2,-2.290742844E-2,1.603520103E-2,-9.162971983E-4
5.200252500E2,-2.809977904E-2,-1.099556591E-2,1.756236330E-2
5.205293896E2,1.618791744E-2,9.468403645E-3,-2.901607659E-3
5.210335298E2,7.177661173E-3,1.069013402E-2,-3.054323839E-3
5.215376704E2,1.374445739E-3,-3.512472380E-3,-1.069013379E-3
5.220418113E2,-7.024944760E-3,4.428769462E-3,1.863137633E-2
5.225459525E2,-3.817904973E-3,3.817904973E-3,1.069013402E-2
5.230500937E2,9.468403645E-3,1.985310577E-3,-1.313359290E-2
5.235542350E2,-1.527161949E-4,-1.374445739E-3,2.138026757E-3
5.240583763E2,-5.497782957E-3,-8.246674202E-3,2.596175298E-3
5.245625176E2,1.053741761E-2,1.664606482E-2,-9.468403645E-3
5.250666590E2,1.527161920E-3,-4.276053514E-3,2.596175298E-3
5.255708004E2,7.635809598E-4,-5.955931731E-3,9.162971983E-4
5.260749418E2,-1.527161949E-4,-1.069013379E-3,2.901607659E-3
5.265790835E2,1.679878100E-3,-1.374445739E-3,1.985310577E-3
5.270832257E2,1.908952370E-2,4.123337101E-3,-2.168569900E-2
5.275873688E2,5.345067009E-3,2.901607659E-3,-1.847865991E-2
5.280915126E2,-1.832594350E-2,-1.527161920E-3,2.519817278E-2
5.285956571E2,-6.414080039E-3,1.221729559E-3,9.162971983E-4
5.290998019E2,-8.399390616E-3,-1.832594397E-3,9.773836471E-3
5.296039466E2,6.719512399E-3,1.985310577E-3,-3.665188793E-3
5.301080913E2,2.748891478E-3,-1.832594397E-3,-1.679878100E-3
5.306122359E2,-1.069013379E-3,2.443459118E-3,-1.221729559E-3
5.311163799E2,-5.955931731E-3,4.123337101E-3,8.704823442E-3
5.316205239E2,5.192350596E-3,-6.108647794E-4,-6.719512399E-3
5.321246676E2,-8.399390616E-3,-3.817904973E-3,6.719512399E-3
5.326288112E2,-4.276053514E-3,-0.000000000E0,4.581485991E-4
5.331329546E2,5.803215317E-3,9.162971983E-4,6.108647794E-4
5.336370979E2,6.872228812E-3,-2.748891478E-3,-6.719512399E-3
5.341412413E2,-1.527161949E-4,1.832594397E-3,1.985310577E-3
5.346453845E2,1.069013379E-3,3.054323839E-3,3.054323897E-4
5.351495277E2,9.162971983E-4,-1.527161920E-3,-1.069013379E-3
5.356536708E2,-3.970621154E-3,-7.635809598E-4,9.162971983E-4
5.361578138E2,0.000000000E0,-3.359756200E-3,9.162971983E-4
5.366619564E2,3.054323839E-3,4.581485991E-4,-1.069013379E-3
5.371660990E2,1.527161949E-4,1.527161949E-4,-3.054323897E-4
5.376702413E2,1.069013379E-3,-0.000000000E0,-1.374445739E-3
5.381743835E2,-2.748891478E-3,-1.374445739E-3,1.679878100E-3
5.386785254E2,-8.857538924E-3,-3.512472380E-3,3.359756200E-3
5.391826671E2,6.108647678E-3,-2.443459118E-3,-2.596175298E-3
5.396868085E2,-4.718930274E-2,6.261364091E-3,4.963276163E-2
5.401909499E2,1.985310577E-3,6.108647678E-3,1.417206228E-1
5.406950912E2,-1.064431891E-1,-9.728021920E-2,4.152353406E-1
5.411992324E2,6.032289565E-2,1.621845961E-1,-1.320995092E-1
5.417033737E2,1.933387071E-1,-3.405570984E-2,-1.818849891E-1
5.422075148E2,-4.413498193E-2,5.528326333E-2,-8.399390616E-3
5.427116562E2,-7.483093534E-3,-4.016435891E-2,8.246674202E-3
5.432157977E2,3.970621154E-3,-1.908952370E-2,3.512472380E-3
5.437199394E2,2.596175298E-3,-7.177661173E-3,3.665188793E-3
5.442240813E2,-1.053741761E-2,6.108647794E-4,1.359174121E-2
5.447282232E2,-4.413498193E-2,1.466075517E-2,2.580903657E-2
5.452323653E2,7.284562290E-2,-9.773836471E-3,-1.478292793E-1
5.457365076E2,-3.512472659E-2,-1.527161949E-4,5.207622424E-2
5.462406499E2,-1.130099874E-2,4.123337101E-3,1.740964688E-2
5.467447923E2,7.483093534E-3,8.093958721E-3,-9.315688163E-3
5.472489348E2,-5.650499370E-3,2.596175298E-3,8.857538924E-3
5.477530771E2,-1.374445739E-3,-1.527161920E-3,3.054323897E-4
5.482572194E2,-6.566796452E-3,2.138026757E-3,6.108647678E-3
5.487613615E2,-9.162971983E-4,-1.069013379E-3,-1.527161920E-3
5.492655035E2,-9.621120058E-3,-1.985310577E-3,6.719512399E-3
5.497696453E2,7.635809947E-3,-9.162971983E-4,-3.817904973E-3
5.502737871E2,1.832594397E-3,-3.054323897E-4,-1.374445739E-3
5.507779289E2,1.679878100E-3,-1.069013379E-3,-7.635809598E-4
5.512820706E2,-4.581485991E-4,-4.581485991E-4,3.054323897E-4
5.517862125E2,1.069013379E-3,-1.221729559E-3,0.000000000E0
5.522903544E2,1.374445739E-3,-2.290742937E-3,9.162971983E-4
5.527944962E2,-2.138026757E-3,-1.527161920E-3,1.527161920E-3
5.532986380E2,-4.581485875E-3,-4.581485991E-4,1.985310577E-3
5.538027797E2,2.443459118E-3,3.054323897E-4,-6.108647794E-4
5.543069215E2,4.581485875E-3,2.596175298E-3,0.000000000E0
5.548110632E2,1.527161949E-4,-1.221729559E-3,3.054323897E-4
5.553152050E2,6.108647794E-4,4.581485991E-4,1.374445739E-3
5.558193466E2,1.679878100E-3,-0.000000000E0,9.162971983E-4
5.563234882E2,-2.748891478E-3,-0.000000000E0,1.527161920E-3
5.568276299E2,-6.414080039E-3,-1.527161949E-4,3.054323839E-3
5.573317717E2,3.207040019E-3,3.054323897E-4,-2.901607659E-3
5.578359135E2,3.665188793E-3,-1.527161949E-4,-6.108647794E-4
5.583400554E2,7.635809598E-4,1.527161949E-4,6.108647794E-4
5.588441973E2,3.054323897E-4,-1.527161949E-4,4.581485991E-4
5.593483393E2,-6.108647794E-4,-6.108647794E-4,6.108647794E-4
5.598524812E2,1.527161949E-4,6.108647794E-4,-1.527161949E-4
5.603566231E2,-5.650499370E-3,-4.581485991E-4,1.374445739E-3
5.608607650E2,2.443459118E-3,-3.512472380E-3,-1.679878100E-3
5.613649068E2,1.221729536E-2,-5.345067009E-3,-8.552107029E-3
5.618690487E2,9.926552884E-3,-2.596175298E-3,-6.261364091E-3
5.623731905E2,9.162971983E-4,-3.054323897E-4,-2.138026757E-3
5.628773325E2,-1.985310577E-3,4.734201822E-3,2.138026757E-3
5.633814744E2,1.374445739E-3,2.443459118E-3,-9.162971983E-4
5.638856164E2,-6.566796452E-3,1.679878100E-3,3.970621154E-3
5.643897584E2,4.734201822E-3,3.970621154E-3,-1.069013402E-2
5.648939005E2,1.084284950E-2,-6.872228812E-3,-7.177661173E-3
5.653980425E2,-1.679878100E-3,-5.803215317E-3,4.734201822E-3
5.659021845E2,3.359756200E-3,-7.635809598E-4,-2.443459118E-3
5.664063266E2,7.177661173E-3,-2.748891478E-3,-2.138026757E-3
5.669104685E2,-6.261364091E-3,-5.345067009E-3,5.039634649E-3
5.674146105E2,-1.069013402E-2,-5.039634649E-3,1.069013379E-3
5.679187523E2,6.414080039E-3,-1.832594397E-3,-6.872228812E-3
5.684228942E2,-2.596175298E-3,3.359756200E-3,-1.481347065E-2
5.689270362E2,-7.635809947E-3,0.000000000E0,-2.122755162E-2
5.694311781E2,-1.221729536E-2,-2.443459118E-3,-1.252272818E-2
5.699353201E2,-1.130099874E-2,8.246674202E-3,-2.153298259E-2
5.704394620E2,4.581485991E-4,1.572976820E-2,-1.496618707E-2
5.709436041E2,-1.725693047E-2,7.635809947E-3,4.428769462E-3
5.714477463E2,-1.069013379E-3,-6.872228812E-3,1.374445762E-2
5.719518883E2,1.160643063E-2,1.496618707E-2,1.130099874E-2
5.724560303E2,4.428769462E-3,7.330377586E-3,2.168569900E-2
5.729601724E2,5.345067009E-3,-2.809977904E-2,-1.206457894E-2
5.734643147E2,8.399390616E-3,2.748891525E-2,-3.665188793E-3
5.739684573E2,3.512472380E-3,3.695731983E-2,1.114828233E-2
5.744726005E2,5.451968312E-2,-2.229656465E-2,-3.665188793E-3
5.749767444E2,-3.329212964E-2,-2.015853859E-2,5.589412898E-2
5.754808891E2,8.246674202E-3,-1.267544460E-2,4.932733253E-2
5.759850345E2,2.367101051E-2,-2.458730713E-2,3.405570984E-2
5.764891803E2,3.894263133E-2,-5.955931544E-2,4.581485875E-3
5.769933263E2,-5.772672221E-2,-4.825831577E-2,2.321286127E-2
5.774974723E2,1.542433538E-2,3.512472380E-3,-2.703076601E-2
5.780016184E2,-2.672533318E-2,-3.054323839E-3,-8.277218044E-2
5.785057646E2,-9.254601598E-2,2.962694131E-2,-3.084867075E-2
5.790099107E2,-5.375609919E-2,1.527161920E-3,-2.611446939E-2
5.795140569E2,1.466075517E-2,3.680460155E-2,-7.162389904E-2
5.800182031E2,-5.375609919E-2,4.184423760E-2,-5.329795182E-2
5.805223492E2,-2.504545636E-2,-4.902189970E-2,-9.498947114E-2
5.810264953E2,-3.573558852E-2,4.214967042E-2,-4.367683083E-2
5.815306414E2,-8.552107029E-3,4.993819445E-2,-6.551524997E-2
5.820347878E2,-3.741546720E-2,3.069595434E-2,-5.070177838E-2
5.825389344E2,1.679878100E-3,1.664606482E-2,-4.535670951E-2
5.830430814E2,2.031125315E-2,4.382954910E-2,2.382372692E-2
5.835472288E2,1.343902480E-2,1.099556591E-2,-1.954767294E-2
5.840513770E2,-8.093958721E-3,-2.382372692E-2,4.489856213E-2
5.845555264E2,2.840521187E-2,1.542433538E-2,4.031707719E-2
5.850596768E2,2.504545636E-2,-5.803215317E-3,1.404988952E-2
5.855638280E2,3.054323897E-4,-7.024944760E-3,3.268126398E-2
5.860679801E2,2.733619884E-2,-8.399390616E-3,1.695149764E-2
5.865721327E2,-7.330377586E-3,-2.443459118E-3,3.848448023E-2
5.870762858E2,3.375028074E-2,-6.566796452E-3,2.809977904E-2
5.875804393E2,8.857538924E-3,-1.695149764E-2,2.641990222E-2
5.880845931E2,8.093958721E-3,-1.359174121E-2,2.764163166E-2
5.885887470E2,-5.803215317E-3,-2.290742937E-3,2.977965772E-2
5.890929012E2,1.572976820E-2,-8.093958721E-3,2.474002354E-2
5.895970556E2,1.725693047E-2,-1.466075517E-2,1.878409274E-2
5.901012101E2,-1.221729559E-3,-2.138026804E-2,9.315688163E-3
5.906053646E2,1.084284950E-2,1.679878100E-3,2.611446939E-2
5.911095197E2,8.552107029E-3,-1.282816008E-2,1.618791744E-2
5.916136741E2,-9.773836471E-3,-1.740964688E-2,3.665188793E-3
5.921178285E2,-1.374445739E-3,-4.581485875E-3,1.053741761E-2
5.926219826E2,-5.039634649E-3,-1.023198478E-2,2.138026757E-3
5.931261365E2,-1.557705179E-2,9.162971983E-4,4.581485875E-3
5.936302902E2,2.229656465E-2,-5.345067009E-3,-1.496618707E-2
5.941344438E2,-2.596175298E-3,3.054323897E-4,7.635809598E-4
5.946385971E2,-4.276053514E-3,2.138026757E-3,-9.162971983E-4
5.951427500E2,-9.773836471E-3,-8.246674202E-3,9.162971983E-4
5.956469025E2,2.306014486E-2,1.832594397E-3,-3.817904973E-3
5.961510545E2,-1.786779426E-2,7.788525894E-3,2.901607659E-3
5.966552058E2,-9.162971983E-4,-1.466075517E-2,7.024944760E-3
5.971593566E2,1.924224012E-2,2.748891478E-3,-9.162971750E-3
5.976635068E2,-9.315688163E-3,8.857538924E-3,3.207040019E-3
5.981676564E2,1.221729559E-3,-4.886918236E-3,-4.581485875E-3
5.986718055E2,-1.069013379E-3,6.566796452E-3,1.221729559E-3
5.991759540E2,4.276053514E-3,-8.399390616E-3,-5.803215317E-3
5.996801020E2,-1.954767294E-2,2.748891478E-3,8.093958721E-3
6.001842494E2,1.252272818E-2,-6.414080039E-3,-6.261364091E-3
6.006883963E2,-1.679878100E-3,8.093958721E-3,7.635809947E-3
6.011925428E2,1.924224012E-2,-3.665188793E-3,-8.552107029E-3
6.016966887E2,-3.390299529E-2,1.527161949E-4,1.099556591E-2
6.022008341E2,1.847865991E-2,-3.756818548E-2,-3.726275265E-2
6.027049791E2,-1.771507785E-2,4.046979174E-2,8.399390616E-3
6.032091239E2,-1.985310577E-3,-5.803215317E-3,-1.450803876E-2
6.037132683E2,-2.886336111E-2,-9.315688163E-3,-1.985310577E-3
6.042174124E2,9.162971750E-3,8.552107029E-3,-1.466075517E-2
6.047215560E2,8.246674202E-3,1.511890348E-2,-6.872228812E-3
6.052256994E2,-2.596175298E-3,-1.221729559E-3,-7.635809947E-3
6.057298423E2,3.054323897E-4,1.298087649E-2,3.970621154E-3
6.062339849E2,2.061668597E-2,2.596175298E-3,6.108647794E-4
6.067381272E2,-5.650499370E-3,-3.207040019E-3,6.108647678E-3
6.072422693E2,4.123337101E-3,-7.635809598E-4,6.566796452E-3
6.077464110E2,-6.261364091E-3,4.581485991E-4,9.926552884E-3
6.082505525E2,2.474002354E-2,-1.221729559E-3,-2.290742937E-3
6.087546938E2,-1.466075517E-2,-1.206457894E-2,5.039634649E-3
6.092588353E2,-3.283398226E-2,-1.420260593E-2,1.359174121E-2
6.097629769E2,2.046396956E-2,-1.924224012E-2,-3.680460155E-2
6.102671186E2,-2.412915789E-2,1.618791744E-2,-1.527161949E-4
6.107712606E2,-1.053741761E-2,-8.857538924E-3,-2.000582218E-2
6.112754028E2,-2.794706449E-2,-1.175914705E-2,-2.611446939E-2
6.117795453E2,-4.581485689E-2,0.000000000E0,-4.138609022E-2
6.122836878E2,-2.199113183E-2,3.817904973E-3,-5.314523727E-2
6.127878303E2,-3.924806044E-2,2.290742844E-2,-4.978547990E-2
6.132919727E2,-2.993237413E-2,1.145371422E-2,-6.948586553E-2
6.137961150E2,-3.222311661E-2,2.993237413E-2,-5.849030241E-2
6.143002571E2,-4.260781780E-2,2.519817278E-2,-6.139190868E-2
6.148043989E2,-3.023780696E-2,2.458730713E-2,-6.841685623E-2
6.153085406E2,-2.916879393E-2,3.787361458E-2,-5.039634556E-2
6.158126823E2,-3.084867075E-2,2.153298259E-2,-5.345066637E-2
6.163168240E2,-2.428187430E-2,2.672533318E-2,-5.085449293E-2
6.168209658E2,-3.329212964E-2,2.138026804E-2,-4.062250629E-2
6.173251076E2,-4.581485875E-3,1.939495653E-2,-5.894844979E-2
6.178292492E2,-2.229656465E-2,4.199695215E-2,-2.458730713E-2
6.183333907E2,-4.123337101E-3,-5.039634649E-3,-5.207622424E-2
6.188375320E2,-1.740964688E-2,4.841103405E-2,-1.527161989E-2
6.193416732E2,-2.138026757E-3,1.298087649E-2,-1.817322709E-2
6.198458140E2,-7.177661173E-3,2.382372692E-2,-7.635809947E-3
6.203499546E2,1.542433538E-2,1.985310577E-3,-1.023198478E-2
6.208540950E2,4.581485875E-3,8.246674202E-3,-6.108647794E-4
6.213582356E2,-1.069013402E-2,-1.069013379E-3,8.093958721E-3
6.218623764E2,9.315688163E-3,-4.581485991E-4,-3.970621154E-3
6.223665175E2,8.246674202E-3,3.512472380E-3,5.650499370E-3
6.228706586E2,-1.740964688E-2,4.734201822E-3,8.704823442E-3
6.233747998E2,-6.719512399E-3,-7.330377586E-3,-2.443459118E-3
6.238789411E2,1.710421406E-2,1.160643063E-2,-9.162971983E-4
6.243830826E2,-4.428769462E-3,8.552107029E-3,1.985310577E-3
6.248872242E2,1.221729559E-3,-1.420260593E-2,-7.177661173E-3
6.253913660E2,2.596175298E-3,1.237001177E-2,3.817904973E-3
6.258955078E2,-6.108647678E-3,-7.330377586E-3,-7.024944760E-3
6.263996498E2,-1.221729536E-2,-1.832594350E-2,-2.748891478E-3
6.269037919E2,5.650499370E-3,2.000582218E-2,1.084284950E-2
6.274079341E2,5.039634649E-3,-1.603520103E-2,-1.634063199E-2
6.279120765E2,3.665188793E-3,6.872228812E-3,1.069013379E-3
6.284162190E2,2.000582218E-2,1.832594397E-3,-6.719512399E-3
6.289203616E2,-1.970038936E-2,5.497782957E-3,9.621120058E-3
6.294245045E2,1.298087649E-2,-9.010255337E-3,-7.483093534E-3
6.299286474E2,1.007926930E-2,5.345067009E-3,6.261364091E-3
6.304327906E2,1.542433538E-2,-1.282816008E-2,-7.941242307E-3
6.309369339E2,-3.237583488E-2,-1.832594397E-3,8.704823442E-3
6.314410773E2,7.483093534E-3,-5.803215317E-3,-7.941242307E-3
6.319452207E2,-2.641990222E-2,1.221729536E-2,1.053741761E-2
6.324493641E2,-1.221729536E-2,-2.748891478E-3,-2.748891478E-3
6.329535075E2,-3.145953640E-2,2.351829410E-2,3.039052337E-2
6.334576510E2,2.107483521E-2,-9.926552884E-3,-1.664606482E-2
6.339617945E2,-6.872228812E-3,4.428769462E-3,1.328630932E-2
6.344659377E2,2.092211880E-2,-1.679878100E-3,-1.160643063E-2
6.349700805E2,-1.527161920E-3,2.901607659E-3,5.803215317E-3
6.354742223E2,-2.596175298E-3,-1.740964688E-2,-8.093958721E-3
6.359783630E2,1.740964688E-2,1.679878100E-3,-4.886918236E-3
6.364825025E2,-1.359174121E-2,9.621120058E-3,1.053741761E-2
6.369866409E2,6.414080039E-3,-1.069013402E-2,-1.466075517E-2
6.374907790E2,2.290742937E-3,1.023198478E-2,3.207040019E-3
6.379949177E2,-1.649334840E-2,-7.635809598E-4,3.054323839E-3
6.384990571E2,1.206457894E-2,-1.374445739E-3,-7.024944760E-3
6.390031969E2,1.359174121E-2,3.069595434E-2,-1.527161949E-4
6.395073368E2,-3.207040019E-3,6.108647678E-3,-1.267544460E-2
6.400114765E2,1.206457894E-2,1.328630932E-2,-9.621120058E-3
6.405156160E2,2.092211880E-2,3.497200832E-2,2.015853859E-2
6.410197549E2,-5.192350596E-3,3.359756200E-3,4.428769462E-3
6.415238935E2,1.175914705E-2,4.581485991E-4,1.267544460E-2
6.420280316E2,8.857538924E-3,3.390299529E-2,2.840521187E-2
6.425321694E2,1.618791744E-2,-2.138026804E-2,2.321286127E-2
6.430363068E2,-5.192350596E-3,-5.039634649E-3,3.726275265E-2
6.435404440E2,5.345066637E-2,-1.557705179E-2,4.214967042E-2
6.440445810E2,-2.076940238E-2,-4.657844082E-2,3.909534588E-2
6.445487178E2,1.970038936E-2,-4.031707719E-2,4.138609022E-2
6.450528546E2,7.788525894E-3,-1.237001177E-2,6.368265301E-2
6.455569910E2,5.497783050E-2,-6.108647678E-3,5.345066637E-2
6.460611270E2,6.872228812E-3,-4.062250629E-2,4.276053607E-2
6.465652626E2,1.267544460E-2,-5.345067009E-3,5.528326333E-2
6.470693977E2,2.672533318E-2,2.138026757E-3,5.329795182E-2
6.475735324E2,-6.108647794E-4,-3.497200832E-2,4.428769648E-2
6.480776666E2,4.581485689E-2,-3.207040019E-3,5.115992576E-2
6.485818003E2,7.941242307E-3,-7.330377586E-3,5.100720748E-2
6.490859336E2,-3.665188793E-3,-4.596757516E-2,1.023198478E-2
6.495900666E2,9.468403645E-3,-2.596175298E-3,5.803215317E-3
6.500941994E2,6.414080039E-3,1.267544460E-2,1.695149764E-2
6.505983318E2,8.246674202E-3,1.374445739E-3,1.863137633E-2
6.511024631E2,-2.275471389E-2,-6.414080039E-3,1.725693047E-2
6.516065946E2,7.788525894E-3,-1.328630932E-2,9.621120058E-3
6.521107257E2,1.420260593E-2,-2.183841541E-2,-1.267544460E-2
6.526148568E2,-9.926552884E-3,3.665188793E-3,2.901607659E-3
6.531189885E2,2.138026804E-2,-6.108647678E-3,-5.039634649E-3
6.536231209E2,-1.832594350E-2,3.512472380E-3,1.435532235E-2
6.541272543E2,1.069013379E-3,-1.053741761E-2,-8.399390616E-3
6.546313880E2,-2.290742937E-3,4.581485875E-3,1.221729559E-3
6.551355221E2,4.276053514E-3,1.832594397E-3,-1.679878100E-3
6.556396565E2,1.832594397E-3,2.901607659E-3,-3.817904973E-3
6.561437907E2,-7.024944760E-3,-1.679878100E-3,-9.162971983E-4
6.566479247E2,-6.108647794E-4,-1.221729559E-3,3.359756200E-3
6.571520585E2,-5.650499370E-3,-1.924224012E-2,2.596175298E-3
6.576561921E2,-3.726275265E-2,-5.054906011E-2,-3.191768378E-2
6.581603255E2,-1.481347065E-2,-1.985310577E-2,-1.313359290E-2
6.586644586E2,-1.802051067E-2,2.000582218E-2,-3.680460155E-2
6.591685915E2,-9.315688163E-3,2.825249545E-2,-4.337139800E-2
6.596727239E2,1.023198478E-2,5.696314201E-2,-1.069013402E-2
6.601768559E2,1.618791744E-2,4.413498193E-2,7.635809598E-4
6.606809875E2,3.084867075E-2,2.764163166E-2,2.260199748E-2
6.611851190E2,3.359756200E-3,-4.581485991E-4,3.069595434E-2
6.616892510E2,1.908952370E-2,-8.552107029E-3,3.558287397E-2
6.621933837E2,-9.315688163E-3,-4.718930274E-2,3.665188793E-3
6.626975174E2,-4.428769462E-3,9.926552884E-3,3.543015569E-2
6.632016522E2,4.092793912E-2,4.581485991E-4,-2.443459118E-3
6.637057878E2,2.138026757E-3,-6.872228812E-3,5.497782957E-3
6.642099242E2,-1.878409274E-2,5.192350596E-3,2.519817278E-2
6.647140613E2,5.681042373E-2,2.535088919E-2,4.566214234E-2
6.652181991E2,1.985310577E-3,-3.329212964E-2,1.985310577E-2
6.657223376E2,-2.138026804E-2,-4.138609022E-2,3.756818548E-2
6.662264768E2,2.504545636E-2,-2.367101051E-2,-6.108647794E-4
6.667306171E2,-3.619373962E-2,-5.757400393E-2,-3.207040019E-3
6.672347583E2,-2.336557768E-2,-4.428769648E-2,-3.222311661E-2
6.677389002E2,-2.474002354E-2,1.313359290E-2,-3.222311661E-2
6.682430428E2,-8.093958721E-3,3.527744114E-2,-4.169152305E-2
6.687471862E2,9.010255337E-3,5.558869615E-2,-1.450803876E-2
6.692513303E2,-7.483093534E-3,1.160643063E-2,-7.483093534E-3
6.697554749E2,-7.330377586E-3,7.635809598E-4,2.290742937E-3
6.702596199E2,1.954767294E-2,6.108647678E-3,3.207040019E-3
6.707637651E2,1.679878100E-3,-1.053741761E-2,-2.596175298E-3
6.712679105E2,-7.330377586E-3,2.901607659E-3,2.901607659E-3
6.717720560E2,1.832594350E-2,1.679878100E-3,-4.581485991E-4
6.722762016E2,-2.993237413E-2,-3.207040019E-3,4.428769462E-3
6.727803475E2,5.497782957E-3,-1.160643063E-2,-6.261364091E-3
6.732844937E2,-8.246674202E-3,1.496618707E-2,1.099556591E-2
6.737886402E2,9.773836471E-3,-5.345067009E-3,-1.298087649E-2
6.742927866E2,1.527161920E-3,-1.985310577E-3,-1.527161949E-4
6.747969327E2,3.817904973E-3,9.773836471E-3,3.207040019E-3
6.753010780E2,-7.788525894E-3,-4.123337101E-3,2.748891478E-3
6.758052227E2,1.267544460E-2,4.581485991E-4,1.985310577E-3
6.763093669E2,-1.114828233E-2,1.527161949E-4,6.261364091E-3
6.768135105E2,6.414080039E-3,-9.162971750E-3,-7.788525894E-3
6.773176536E2,2.443459118E-3,5.803215317E-3,5.955931731E-3
6.778217961E2,9.162971750E-3,-2.443459118E-3,-3.665188793E-3
6.783259379E2,-1.466075517E-2,-6.566796452E-3,1.832594397E-3
6.788300793E2,8.246674202E-3,-1.374445762E-2,-1.099556591E-2
6.793342201E2,-7.177661173E-3,1.588248461E-2,5.345067009E-3
6.798383604E2,-8.552107029E-3,-6.261364091E-3,-6.108647678E-3
6.803425006E2,1.679878100E-3,9.621120058E-3,6.108647678E-3
6.808466412E2,2.443459118E-3,2.443459118E-3,3.054323897E-4
6.813507827E2,5.650499370E-3,-4.886918236E-3,-2.748891478E-3
6.818549257E2,-1.221729559E-3,-4.581485991E-4,4.886918236E-3
6.823590700E2,5.803215317E-3,-6.414080039E-3,-3.359756200E-3
6.828632153E2,-1.206457894E-2,2.290742937E-3,7.635809947E-3
6.833673616E2,-9.010255337E-3,-2.748891478E-3,-1.069013379E-3
6.838715085E2,1.542433538E-2,9.315688163E-3,-1.069013379E-3
6.843756559E2,3.207040019E-3,2.748891478E-3,-2.290742937E-3
6.848798036E2,-3.817904973E-3,-7.330377586E-3,-2.901607659E-3
6.853839515E2,3.512472380E-3,-3.054323897E-4,-2.290742937E-3
6.858880994E2,-3.512472380E-3,5.192350596E-3,4.428769462E-3
6.863922474E2,-7.330377586E-3,1.527161949E-4,4.276053514E-3
6.868963957E2,6.261364091E-3,-5.650499370E-3,-6.719512399E-3
6.874005440E2,3.054323897E-4,1.038470119E-2,3.359756200E-3
6.879046924E2,1.511890348E-2,-4.734201822E-3,-5.192350596E-3
6.884088406E2,-1.985310577E-2,-3.970621154E-3,3.970621154E-3
6.889129887E2,7.177661173E-3,-8.399390616E-3,-6.108647678E-3
6.894171368E2,4.734201822E-3,1.740964688E-2,7.024944760E-3
6.899212848E2,2.290742937E-3,-6.719512399E-3,-4.886918236E-3
6.904254328E2,-1.847865991E-2,-1.817322709E-2,2.443459118E-3
6.909295939E2,2.779434808E-2,8.246674202E-3,-3.359756200E-3
6.914337292E2,-3.512472380E-3,4.581485875E-3,2.443459118E-3
6.919378777E2,5.345067009E-3,-1.221729536E-2,-1.130099874E-2
6.924420261E2,2.748891478E-3,8.857538924E-3,5.955931731E-3
6.929461745E2,2.138026757E-3,-7.635809598E-4,-9.162971983E-4
6.934503229E2,-1.069013402E-2,-9.315688163E-3,2.138026757E-3
6.939544715E2,6.719512399E-3,8.246674202E-3,1.221729559E-3
6.944586200E2,2.519817278E-2,-4.428769462E-3,-1.404988952E-2
6.949627680E2,-6.414080039E-3,-7.177661173E-3,1.679878100E-3
6.954669156E2,-1.863137633E-2,-3.512472380E-3,5.803215317E-3
6.959710629E2,-3.711003438E-2,1.649334840E-2,2.794706449E-2
6.964752100E2,-1.847865991E-2,6.414080039E-3,-2.596175298E-3
6.969793569E2,-7.330377586E-3,6.872228812E-3,8.552107029E-3
6.974835040E2,5.039634649E-3,9.468403645E-3,3.512472380E-3
6.979876516E2,1.191186346E-2,-6.261364091E-3,-6.872228812E-3
6.984917994E2,1.771507785E-2,-7.941242307E-3,-1.007926930E-2
6.989959475E2,-6.719512399E-3,5.192350596E-3,8.093958721E-3
6.995000961E2,2.061668597E-2,-6.261364091E-3,-1.007926930E-2
7.000042450E2,-1.511890348E-2,2.596175298E-3,1.038470119E-2
7.005083941E2,-6.108647678E-3,-3.054323897E-4,3.512472380E-3
7.010125437E2,6.261364091E-3,-1.679878100E-3,-3.054323897E-4
7.015166938E2,1.252272818E-2,-5.345067009E-3,-7.941242307E-3
7.020208448E2,-9.621120058E-3,-2.138026757E-3,2.443459118E-3
7.025249966E2,1.175914705E-2,-9.773836471E-3,-9.621120058E-3
7.030291492E2,8.704823442E-3,6.872228812E-3,-1.679878100E-3
7.035333028E2,-2.260199748E-2,8.552107029E-3,9.315688163E-3
7.040374575E2,2.138026757E-3,-1.313359290E-2,-1.114828233E-2
7.045416128E2,-8.399390616E-3,1.282816008E-2,1.404988952E-2
7.050457684E2,1.527161989E-2,5.803215317E-3,-3.359756200E-3
7.055499239E2,-3.817904973E-3,-9.315688163E-3,-5.955931731E-3
7.060540791E2,-8.552107029E-3,-4.428769462E-3,3.054323839E-3
7.065582341E2,5.955931731E-3,5.192350596E-3,1.832594397E-3
7.070623884E2,1.099556591E-2,-3.054323839E-3,-1.985310577E-3
7.075665423E2,-6.719512399E-3,-1.328630932E-2,-1.985310577E-3
7.080706958E2,-2.596175298E-3,-1.374445739E-3,-3.817904973E-3
7.085748498E2,-1.404988952E-2,7.635809947E-3,-1.679878100E-3
7.090790042E2,2.290742937E-3,-5.803215317E-3,-1.313359290E-2
7.095831590E2,6.719512399E-3,1.053741761E-2,-9.162971750E-3
7.100873142E2,-1.084284950E-2,1.221729559E-3,-6.872228812E-3
7.105914699E2,-2.138026757E-3,-4.581485875E-3,-1.970038936E-2
7.110956264E2,-5.192350596E-3,1.542433538E-2,-8.399390616E-3
7.115997831E2,-6.719512399E-3,1.160643063E-2,-6.719512399E-3
7.121039401E2,6.261364091E-3,3.817904973E-3,-4.123337101E-3
7.126080975E2,2.901607752E-2,4.734201822E-3,-9.773836471E-3
7.131122549E2,-3.481929377E-2,-4.734201822E-3,9.621120058E-3
7.136164125E2,-9.010255337E-3,-2.550360374E-2,3.817904973E-3
7.141205700E2,-3.985892609E-2,2.687804960E-2,1.542433538E-2
7.146247275E2,2.306014486E-2,-1.450803876E-2,-6.154462695E-2
7.151288848E2,-3.039052337E-2,1.114828233E-2,3.543015569E-2
7.156330422E2,-2.092211880E-2,1.832594350E-2,-1.404988952E-2
7.161371998E2,-1.817322709E-2,2.321286127E-2,1.511890348E-2
7.166413576E2,-2.031125315E-2,2.901607659E-3,1.588248461E-2
7.171455159E2,3.359756246E-2,6.872228812E-3,-6.719512399E-3
7.176496747E2,-1.298087649E-2,-1.527161920E-3,9.926552884E-3
7.181538339E2,-7.177661173E-3,-1.786779426E-2,1.099556591E-2
7.186579932E2,4.046979174E-2,-5.955931731E-3,-8.399390616E-3
7.191621521E2,-2.290742844E-2,3.756818548E-2,4.841103405E-2
7.196663104E2,4.825831577E-2,1.496618707E-2,1.160643063E-2
7.201704681E2,5.604684353E-2,-2.015853859E-2,4.398226365E-2
7.206746253E2,4.031707719E-2,-4.016435891E-2,7.925970852E-2
7.211787821E2,4.367683083E-2,-3.787361458E-2,7.757982612E-2
7.216829383E2,4.627300799E-2,-2.138026804E-2,8.429934084E-2
7.221870938E2,3.787361458E-2,-4.642572254E-2,8.109229803E-2
7.226912485E2,2.764163166E-2,-3.145953640E-2,3.145953640E-2
7.231954024E2,1.267544460E-2,-7.635809598E-4,3.054323897E-4
7.236995556E2,-3.955349326E-2,-1.374445762E-2,1.527161949E-4
7.242037083E2,-1.985310577E-2,2.061668597E-2,-2.382372692E-2
7.247078607E2,-7.941242307E-3,9.468403645E-3,-5.925388262E-2
7.252120131E2,-3.298669681E-2,1.679878123E-2,-6.841685623E-2
7.257161654E2,-4.046979174E-2,1.695149764E-2,-6.215549260E-2
7.262203173E2,-3.375028074E-2,2.290742844E-2,-5.665770918E-2
7.267244688E2,-1.145371422E-2,4.581485689E-2,-5.681042373E-2
7.272286201E2,-1.878409274E-2,5.177079141E-2,-2.168569900E-2
7.277327714E2,-4.260781780E-2,2.886336111E-2,1.695149764E-2
7.282369230E2,-1.527161920E-3,3.512472380E-3,4.428769462E-3
7.287410747E2,7.024944760E-3,-1.237001177E-2,4.123337101E-3
7.292452266E2,7.788525894E-3,-7.941242307E-3,1.985310577E-3
7.297493782E2,1.954767294E-2,-2.244928107E-2,-5.955931731E-3
7.302535295E2,1.128572673E-1,-6.215549260E-2,5.054906011E-2
7.307576803E2,-4.398226365E-2,2.015853859E-2,-6.123919412E-2
7.312618304E2,1.710421406E-2,1.160643063E-2,-2.733619884E-2
7.317659798E2,3.359756200E-3,-3.970621154E-3,7.177661173E-3
7.322701284E2,-2.901607659E-3,6.566796452E-3,1.649334840E-2
7.327742760E2,4.581485875E-3,3.665188793E-3,-6.414080039E-3
7.332784225E2,-1.053741761E-2,3.817904973E-3,9.010255337E-3
7.337825678E2,3.207040019E-3,-7.635809598E-4,-3.359756200E-3
7.342867120E2,-2.290742937E-3,-2.443459118E-3,2.596175298E-3
7.347908551E2,1.985310577E-3,3.054323897E-4,-1.832594397E-3
7.352949972E2,-5.650499370E-3,5.345067009E-3,6.261364091E-3
7.357991385E2,5.650499370E-3,3.054323897E-4,-4.734201822E-3
7.363032788E2,-4.428769462E-3,-2.748891478E-3,2.901607659E-3
7.368074183E2,-8.246674202E-3,7.635809598E-4,1.374445739E-3
7.373115569E2,3.054323839E-3,1.527161949E-4,-3.054323897E-4
7.378156946E2,1.557705179E-2,-4.734201822E-3,-8.857538924E-3
7.383198316E2,7.177661173E-3,-4.734201822E-3,-5.497782957E-3
7.388239678E2,1.802051067E-2,-4.276053514E-3,-1.527161989E-2
7.393281033E2,1.084284950E-2,-8.704823442E-3,-1.939495653E-2
7.398322382E2,-5.192350596E-3,-2.596175298E-3,1.404988952E-2
7.403363725E2,5.803215317E-3,-5.497782957E-3,1.557705179E-2
7.408405060E2,1.389717404E-2,-1.099556591E-2,1.878409274E-2
7.413446389E2,1.970038936E-2,1.221729559E-3,1.878409274E-2
7.418487712E2,1.435532235E-2,-5.497782957E-3,2.550360374E-2
7.423529030E2,8.246674202E-3,-1.420260593E-2,1.970038936E-2
7.428570344E2,-1.496618707E-2,-2.565632015E-2,-1.221729559E-3
7.433611655E2,-1.557705179E-2,7.024944760E-3,-9.315688163E-3
7.438652963E2,-6.719512399E-3,2.061668597E-2,-4.642572254E-2
7.443694268E2,-4.046979174E-2,-5.039634649E-3,-5.925388262E-2
7.448735569E2,-4.444041103E-2,1.496618707E-2,-8.185587823E-2
7.453776867E2,-4.764745384E-2,2.932151034E-2,-9.117157012E-2
7.458818159E2,-3.848448023E-2,5.955931544E-2,-7.422006875E-2
7.463859448E2,-1.572976820E-2,3.130681813E-2,-3.588830680E-2
7.468900734E2,-9.162971983E-4,2.076940238E-2,-9.926552884E-3
7.473942015E2,-2.993237413E-2,-2.641990222E-2,-3.665188793E-3
7.478983291E2,-9.621120058E-3,-4.123337101E-3,6.566796452E-3
7.484024562E2,3.634645417E-2,4.123337101E-3,1.496618707E-2
7.489065827E2,4.413498193E-2,-4.886918236E-3,5.299251899E-2
7.494107088E2,1.695149764E-2,-3.741546720E-2,7.605266571E-2
7.499148343E2,4.321868345E-2,-1.908952370E-2,7.452550530E-2
7.504189594E2,2.993237413E-2,-4.902189970E-2,6.337722391E-2
7.509230838E2,-9.773836471E-3,-4.932733253E-2,2.046396956E-2
7.514272079E2,-8.093958721E-3,-3.894263133E-2,-8.246674202E-3
7.519313314E2,-0.000000000E0,1.450803876E-2,-1.252272818E-2
7.524354544E2,-2.443459118E-3,1.786779426E-2,-1.496618707E-2
7.529395769E2,-1.847865991E-2,9.162971983E-4,-1.847865991E-2
7.534436988E2,-7.788525894E-3,1.389717404E-2,-1.572976820E-2
7.539478202E2,-6.719512399E-3,1.038470119E-2,-1.572976820E-2
7.544519412E2,3.665188793E-3,5.192350596E-3,-1.557705179E-2
7.549560618E2,-1.282816008E-2,3.054323897E-4,-1.007926930E-2
7.554601818E2,-1.175914705E-2,2.748891478E-3,-1.756236330E-2
7.559643013E2,-2.443459118E-3,2.168569900E-2,-1.359174121E-2
7.564684204E2,1.832594397E-3,1.298087649E-2,-7.635809947E-3
7.569725391E2,-2.061668597E-2,-2.748891478E-3,-3.207040019E-3
7.574766579E2,4.734201822E-3,1.985310577E-3,-1.404988952E-2
7.579807777E2,-1.374445739E-3,7.177661173E-3,-5.345067009E-3
7.584848986E2,-6.108647794E-4,2.901607659E-3,-8.246674202E-3
7.589890207E2,-1.221729536E-2,-6.108647794E-4,-7.635809947E-3
7.594931444E2,-5.345067009E-3,-5.039634649E-3,-1.007926930E-2
7.599972693E2,-1.832594397E-3,6.872228812E-3,-1.053741761E-2
7.605013951E2,-2.748891478E-3,7.024944760E-3,-8.399390616E-3
7.610055217E2,-1.267544460E-2,3.512472380E-3,-6.872228812E-3
7.615096485E2,9.162971983E-4,-2.290742937E-3,-1.099556591E-2
7.620137755E2,-6.566796452E-3,-7.635809598E-4,-1.191186346E-2
7.625179025E2,-9.315688163E-3,9.315688163E-3,-1.053741761E-2
7.630220295E2,1.985310577E-3,1.832594397E-3,-1.267544460E-2
7.635261568E2,-2.290742937E-3,1.038470119E-2,-9.162971983E-4
7.640302847E2,6.108647794E-4,4.276053514E-3,-4.886918236E-3
7.645344137E2,1.679878100E-3,6.108647794E-4,-5.192350596E-3
7.650385438E2,-5.955931731E-3,4.428769462E-3,2.901607659E-3
7.655426751E2,-1.160643063E-2,2.443459118E-3,-2.443459118E-3
7.660468078E2,-3.054323897E-4,5.039634649E-3,1.069013379E-3
7.665509418E2,1.740964688E-2,6.566796452E-3,1.221729559E-3
7.670550770E2,1.527161920E-3,-5.039634649E-3,5.039634649E-3
7.675592135E2,-1.374445739E-3,-1.053741761E-2,2.290742937E-3
7.680633506E2,4.581485991E-4,9.315688163E-3,9.468403645E-3
7.685674882E2,-8.399390616E-3,-7.635809947E-3,-4.581485991E-4
7.690716261E2,-4.581485875E-3,-3.512472380E-3,-1.985310577E-3
7.695757643E2,1.099556591E-2,7.788525894E-3,-1.985310577E-3
7.700799025E2,6.719512399E-3,-5.955931731E-3,-1.221729559E-3
7.705840409E2,-1.053741761E-2,-9.162971983E-4,7.635809598E-4
7.710881798E2,-8.093958721E-3,1.985310577E-3,1.527161920E-3
7.715923189E2,4.886918236E-3,-3.665188793E-3,-3.512472380E-3
7.720964588E2,7.330377586E-3,6.566796452E-3,1.527161949E-4
7.726005993E2,4.428769462E-3,-5.345067009E-3,-7.635809598E-4
7.731047406E2,-7.024944760E-3,-5.192350596E-3,3.817904973E-3
7.736088827E2,-1.985310577E-3,1.679878100E-3,3.817904973E-3
7.741130255E2,-9.773836471E-3,6.414080039E-3,5.650499370E-3
7.746171693E2,3.970621154E-3,-4.734201822E-3,-3.207040019E-3
7.751213137E2,5.803215317E-3,-1.527161949E-4,-4.123337101E-3
7.756254586E2,9.162971750E-3,1.832594397E-3,-2.596175298E-3
7.761296041E2,-3.970621154E-3,-1.527161949E-4,-1.679878100E-3
7.766337501E2,-3.665188793E-3,5.345067009E-3,1.374445739E-3
7.771378964E2,-9.773836471E-3,1.527161949E-4,4.581485991E-4
7.776420428E2,-6.414080039E-3,-2.901607659E-3,6.108647794E-4
7.781461894E2,9.926552884E-3,7.941242307E-3,4.581485991E-4
7.786503361E2,-4.581485991E-4,-1.221729559E-3,2.290742937E-3
7.791544828E2,7.635809598E-4,-5.497782957E-3,-0.000000000E0
7.796586294E2,3.054323839E-3,3.054323897E-4,2.138026757E-3
7.801627761E2,1.527161920E-3,-9.162971983E-4,7.635809598E-4
7.806669226E2,-1.374445739E-3,-4.123337101E-3,-2.443459118E-3
7.811710690E2,-6.414080039E-3,9.162971983E-4,3.665188793E-3
7.816752154E2,5.345067009E-3,6.414080039E-3,-1.221729559E-3
7.821793618E2,3.665188793E-3,-4.734201822E-3,-4.886918236E-3
7.826835086E2,3.665188793E-3,9.162971983E-4,-4.123337101E-3
7.831876561E2,-1.069013379E-3,-3.054323897E-4,-3.054323897E-4
7.836918042E2,1.237001177E-2,1.206457894E-2,-9.162971983E-4
7.841959529E2,-1.374445739E-3,7.483093534E-3,-1.985310577E-3
7.847001019E2,6.414080039E-3,-4.886918236E-3,-8.399390616E-3
7.852042515E2,-7.941242307E-3,8.552107029E-3,6.872228812E-3
7.857084014E2,4.428769462E-3,-3.665188793E-3,-4.581485875E-3
7.862125520E2,2.626718581E-2,-7.788525894E-3,-1.191186346E-2
7.867167030E2,7.024944760E-3,-2.290742937E-3,9.162971983E-4
7.872208545E2,-6.872228812E-3,5.497782957E-3,5.955931731E-3
7.877250063E2,1.023198478E-2,-7.635809947E-3,-5.039634649E-3
7.882291583E2,-2.809977904E-2,2.443459118E-3,1.603520103E-2
7.887333105E2,-5.955931731E-3,1.435532235E-2,1.160643063E-2
7.892374628E2,-3.084867075E-2,2.290742937E-3,1.359174121E-2
7.897416153E2,-1.114828233E-2,-1.206457894E-2,-2.443459118E-3
7.902457680E2,-3.527744114E-2,1.802051067E-2,1.527161989E-2
7.907499209E2,2.015853859E-2,-5.497782957E-3,-5.039634649E-3
7.912540740E2,1.832594397E-3,-0.000000000E0,-4.581485991E-4
7.917582270E2,2.687804960E-2,-1.679878100E-3,-9.010255337E-3
7.922623800E2,-7.330377586E-3,5.039634649E-3,1.374445739E-3
7.927665324E2,5.803215317E-3,-2.596175298E-3,-2.596175298E-3
7.932706840E2,2.748891478E-3,5.803215317E-3,3.207040019E-3
7.937748345E2,1.221729559E-3,-2.748891478E-3,-4.428769462E-3
7.942789839E2,-7.941242307E-3,-4.581485991E-4,-3.359756200E-3
7.947831323E2,1.038470119E-2,2.748891478E-3,3.054323897E-4
7.952872795E2,7.635809947E-3,1.679878100E-3,-3.054323839E-3
7.957914255E2,3.054323897E-4,1.374445739E-3,6.108647794E-4
7.962955705E2,3.054323897E-4,-4.276053514E-3,-3.512472380E-3
7.967997142E2,-9.162971983E-4,7.635809598E-4,1.679878100E-3
7.973038570E2,-1.527161920E-3,3.054323839E-3,-6.108647794E-4
7.978079992E2,3.054323897E-4,-1.679878100E-3,-7.635809598E-4
7.983121409E2,-2.138026757E-3,7.024944760E-3,2.290742937E-3
7.988162818E2,1.496618707E-2,-3.054323897E-4,-4.276053514E-3
7.993204221E2,-1.007926930E-2,3.054323897E-4,5.650499370E-3
7.998245619E2,4.276053514E-3,1.374445739E-3,7.635809598E-4
8.003287011E2,-4.581485991E-4,-3.359756200E-3,-3.054323897E-4
8.008328395E2,-9.162971750E-3,-1.527161949E-4,4.276053514E-3
8.013369773E2,-3.054323897E-4,2.443459118E-3,1.679878100E-3
8.018411144E2,7.635809598E-4,-2.443459118E-3,0.000000000E0
8.023452509E2,1.420260593E-2,1.527161949E-4,-3.817904973E-3
8.028493869E2,-5.650499370E-3,1.221729559E-3,1.985310577E-3
8.033535225E2,-2.290742937E-3,-1.053741761E-2,-3.970621154E-3
8.038576575E2,9.162971983E-4,1.527161949E-4,1.832594397E-3
8.043617919E2,8.552107029E-3,8.857538924E-3,3.512472380E-3
8.048659256E2,-1.725693047E-2,-6.414080039E-3,-3.054323897E-4
8.053700588E2,4.581485991E-4,-6.261364091E-3,-6.108647794E-4
8.058741913E2,6.261364091E-3,1.160643063E-2,4.734201822E-3
8.063783234E2,1.069013379E-3,-1.084284950E-2,-4.886918236E-3
8.068824550E2,1.679878100E-3,-1.985310577E-3,-2.443459118E-3
8.073865866E2,7.635809598E-4,4.428769462E-3,9.162971983E-4
8.078907186E2,2.901607659E-3,-2.901607659E-3,-5.192350596E-3
8.083948512E2,-7.177661173E-3,3.817904973E-3,4.886918236E-3
8.088989842E2,-6.108647678E-3,1.374445739E-3,-6.108647794E-4
8.094031179E2,-5.803215317E-3,3.054323897E-4,7.635809947E-3
8.099072520E2,5.955931731E-3,-9.162971983E-4,-7.941242307E-3
8.104113866E2,2.596175298E-3,-5.955931731E-3,-9.162971983E-4
8.109155219E2,2.596175298E-3,6.719512399E-3,4.428769462E-3
8.114196580E2,-1.527161949E-4,-9.162971983E-4,9.162971983E-4
8.119237950E2,-8.857538924E-3,3.054323897E-4,3.054323897E-4
8.124279328E2,1.130099874E-2,-2.290742937E-3,-4.276053514E-3
8.129320712E2,-9.468403645E-3,1.328630932E-2,8.399390616E-3
8.134362105E2,3.054323839E-3,4.581485991E-4,-5.497782957E-3
8.139403509E2,1.221729559E-3,-9.162971750E-3,-8.552107029E-3
8.144444924E2,-1.313359290E-2,-8.704823442E-3,2.596175298E-3
8.149486352E2,1.802051067E-2,1.527161920E-3,1.679878100E-3
8.154527794E2,-1.069013402E-2,2.748891478E-3,1.084284950E-2
8.159569255E2,-1.069013379E-3,-1.359174121E-2,-7.788525894E-3
8.164610732E2,-5.345067009E-3,-6.108647794E-4,4.886918236E-3
8.169652226E2,-1.374445739E-3,6.872228812E-3,2.748891478E-3
8.174693732E2,-1.374445739E-3,-3.207040019E-3,-5.650499370E-3
8.179735254E2,7.635809947E-3,-6.261364091E-3,-7.941242307E-3
8.184776785E2,4.123337101E-3,6.414080039E-3,2.596175298E-3
8.189818322E2,4.886918236E-3,7.330377586E-3,-1.221729559E-3
8.194859861E2,-9.010255337E-3,6.261364091E-3,6.414080039E-3
8.199901400E2,9.926552884E-3,-4.581485991E-4,-1.099556591E-2
8.204942937E2,-2.611446939E-2,-1.099556591E-2,4.581485875E-3
8.209984469E2,8.704823442E-3,5.803215317E-3,4.581485875E-3
8.215025998E2,-7.635809947E-3,7.788525894E-3,1.374445762E-2
8.220067522E2,-5.803215317E-3,-4.581485991E-4,4.581485991E-4
8.225109043E2,2.107483521E-2,-5.650499370E-3,-9.773836471E-3
8.230150563E2,-1.527161949E-4,8.704823442E-3,-1.527161949E-4
8.235192076E2,5.497782957E-3,1.572976820E-2,1.084284950E-2
8.240233580E2,1.420260593E-2,1.557705179E-2,2.504545636E-2
8.245275076E2,3.375028074E-2,2.901607659E-3,3.481929377E-2
8.250316566E2,2.092211880E-2,-1.786779426E-2,6.352993846E-2
8.255358052E2,4.153880477E-2,-3.313941509E-2,6.994401664E-2
8.260399537E2,1.557705179E-2,-1.679878123E-2,6.414080411E-2
8.265441016E2,6.108647794E-4,-3.970621154E-2,2.886336111E-2
8.270482489E2,-9.773836471E-3,2.183841541E-2,-1.893680729E-2
8.275523955E2,-2.672533318E-2,-2.504545636E-2,-2.840521187E-2
8.280565416E2,-4.382954910E-2,-1.893680729E-2,-5.803215504E-2
8.285606874E2,-2.031125315E-2,4.046979174E-2,-6.979130208E-2
8.290648329E2,-1.695149764E-2,6.276635826E-2,-6.459894776E-2
8.295689780E2,-3.787361458E-2,3.039052337E-2,-5.177079141E-2
8.300731228E2,-6.872228812E-3,-8.399390616E-3,-2.901607752E-2
8.305772672E2,7.330377586E-3,3.237583488E-2,-7.177661173E-3
8.310814105E2,-4.581485991E-4,1.328630932E-2,7.635809598E-4
8.315855540E2,-7.635809598E-4,-1.282816008E-2,1.527161949E-4
8.320896980E2,-3.817904973E-3,1.069013379E-3,1.359174121E-2
8.325938426E2,-4.123337101E-3,-9.315688163E-3,9.162971750E-3
8.330979884E2,-8.093958721E-3,-1.435532235E-2,1.985310577E-3
8.336021353E2,-2.443459118E-3,2.901607659E-3,1.802051067E-2
8.341062829E2,1.664606482E-2,1.374445739E-3,-1.191186346E-2
8.346104307E2,3.359756200E-3,-9.010255337E-3,7.330377586E-3
8.351145782E2,-2.748891478E-3,-3.512472380E-3,1.679878100E-3
8.356187252E2,2.443459118E-3,-4.581485875E-3,-1.374445739E-3
8.361228716E2,2.306014486E-2,6.108647794E-4,-2.000582218E-2
8.366270173E2,-8.246674202E-3,4.581485991E-4,6.872228812E-3
8.371311623E2,-1.374445739E-3,3.359756200E-3,-3.207040019E-3
8.376353065E2,-1.527161949E-4,-4.123337101E-3,-3.054323897E-4
8.381394499E2,6.566796452E-3,1.679878100E-3,-2.138026757E-3
8.386435926E2,4.581485991E-4,-4.581485991E-4,1.527161949E-4
8.391477345E2,4.581485991E-4,1.069013379E-3,-1.069013379E-3
8.396518756E2,-6.108647794E-4,2.138026757E-3,7.635809598E-4
8.401560160E2,0.000000000E0,3.665188793E-3,6.108647794E-4
8.406601555E2,-4.886918236E-3,-1.221729559E-3,1.985310577E-3
8.411642941E2,-4.428769462E-3,-1.221729559E-3,9.162971983E-4
8.416684318E2,6.261364091E-3,2.138026757E-3,-2.443459118E-3
8.421725688E2,3.512472380E-3,1.069013379E-3,-1.069013379E-3
8.426767050E2,0.000000000E0,6.108647794E-4,3.054323897E-4
8.431808406E2,9.162971983E-4,6.108647794E-4,1.527161949E-4
8.436849757E2,7.330377586E-3,6.108647794E-4,-6.719512399E-3
8.441891101E2,-1.832594397E-3,-3.207040019E-3,-4.581485991E-4
8.446932439E2,-2.596175298E-3,-4.428769462E-3,5.803215317E-3
8.451973774E2,2.596175298E-3,3.512472380E-3,7.635809598E-4
8.457015104E2,9.162971750E-3,-1.985310577E-3,3.665188793E-3
8.462056430E2,3.512472380E-3,3.054323839E-3,3.665188793E-3
8.467097750E2,9.162971983E-4,-2.290742937E-3,4.428769462E-3
8.472139065E2,9.162971750E-3,-4.886918236E-3,-6.261364091E-3
8.477180374E2,-2.596175298E-3,-4.123337101E-3,5.955931731E-3
8.482221680E2,-6.108647794E-4,9.468403645E-3,8.399390616E-3
8.487262980E2,2.748891478E-3,-4.428769462E-3,1.069013402E-2
8.492304274E2,6.566796452E-3,-1.435532235E-2,7.788525894E-3
8.497345566E2,-1.069013402E-2,-1.588248461E-2,-6.108647794E-4
8.502386856E2,-1.679878100E-3,1.374445762E-2,-1.053741761E-2
8.507428145E2,-1.267544460E-2,3.252854943E-2,-3.451386094E-2
8.512469430E2,-2.809977904E-2,1.542433538E-2,-4.321868345E-2
8.517510709E2,-1.863137633E-2,1.252272818E-2,-3.924806044E-2
8.522551984E2,-2.901607659E-3,1.374445762E-2,-2.199113183E-2
8.527593253E2,-2.138026757E-3,1.664606482E-2,-2.199113183E-2
8.532634518E2,-4.734201822E-3,3.054323839E-3,-1.481347065E-2
8.537675779E2,-1.679878100E-3,1.756236330E-2,1.725693047E-2
8.542717037E2,1.847865991E-2,2.260199748E-2,3.588830680E-2
8.547758291E2,6.719512399E-3,-1.435532235E-2,3.588830680E-2
8.552799541E2,2.748891525E-2,-1.832594350E-2,1.908952370E-2
8.557840786E2,-5.039634649E-3,-5.131264031E-2,2.672533318E-2
8.562882027E2,7.941242307E-3,-1.114828233E-2,7.483093534E-3
8.567923263E2,-1.420260593E-2,1.970038936E-2,9.621120058E-3
8.572964497E2,4.627300799E-2,-5.192350596E-3,-1.099556591E-2
8.578005728E2,1.221729559E-3,1.511890348E-2,-1.237001177E-2
8.583046954E2,-2.932151034E-2,-6.230820715E-2,-6.261364091E-3
8.588088178E2,-7.330377586E-3,2.733619884E-2,2.428187430E-2
8.593129400E2,1.924224012E-2,1.007926930E-2,-3.054323897E-4
8.598170622E2,-4.581485991E-4,-1.847865991E-2,-4.428769462E-3
8.603211843E2,7.635809598E-4,-1.832594397E-3,2.138026757E-3
8.608253062E2,1.832594397E-3,3.359756200E-3,-3.054323839E-3
8.613294277E2,7.635809598E-4,3.512472380E-3,-1.527161949E-4
8.618335487E2,-5.192350596E-3,9.162971983E-4,-3.817904973E-3
8.623376694E2,-6.261364091E-3,7.330377586E-3,2.443459118E-3
8.628417900E2,1.527161989E-2,2.901607659E-3,-4.276053514E-3
8.633459105E2,4.734201822E-3,-2.748891478E-3,2.290742937E-3
8.638500307E2,2.901607659E-3,-1.527161949E-4,2.244928107E-2
8.643541508E2,3.817904973E-3,-4.734201822E-3,1.420260593E-2
8.648582706E2,1.328630932E-2,-2.596175298E-3,1.908952370E-2
8.653623901E2,1.298087649E-2,-6.108647794E-4,2.474002354E-2
8.658665095E2,1.542433538E-2,-3.054323897E-4,2.290742844E-2
8.663706289E2,2.015853859E-2,-5.650499370E-3,1.603520103E-2
8.668747481E2,1.863137633E-2,-7.941242307E-3,2.687804960E-2
8.673788671E2,3.054323839E-3,-3.054323839E-3,3.237583488E-2
8.678829857E2,2.412915789E-2,-7.941242307E-3,2.153298259E-2
8.683871041E2,-4.428769462E-3,-2.748891478E-3,2.382372692E-2
8.688912222E2,8.399390616E-3,-1.282816008E-2,2.382372692E-2
8.693953400E2,1.343902480E-2,-1.802051067E-2,2.428187430E-2
8.698994577E2,2.076940238E-2,-1.267544460E-2,3.252854943E-2
8.704035751E2,-8.704823442E-3,-8.093958721E-3,2.703076601E-2
8.709076923E2,9.315688163E-3,-9.468403645E-3,2.504545636E-2
8.714118092E2,-6.108647678E-3,-1.832594397E-3,3.344484791E-2
8.719159257E2,2.748891525E-2,-3.054323897E-4,1.267544460E-2
8.724200421E2,1.313359290E-2,-1.221729536E-2,1.924224012E-2
8.729241583E2,-7.483093534E-3,-6.566796452E-3,4.031707719E-2
8.734282743E2,3.359756200E-3,-1.160643063E-2,2.550360374E-2
8.739323901E2,1.679878123E-2,-8.093958721E-3,2.840521187E-2
8.744365057E2,1.588248461E-2,-1.847865991E-2,2.489273995E-2
8.749406210E2,1.527161920E-3,9.162971750E-3,4.474584386E-2
8.754447366E2,3.940077871E-2,2.428187430E-2,3.084867075E-2
8.759488528E2,-2.748891525E-2,-1.695149764E-2,3.833176568E-2
8.764529695E2,2.092211880E-2,-1.450803876E-2,3.329212964E-2
8.769570869E2,2.443459118E-3,-1.679878123E-2,4.153880477E-2
8.774612047E2,2.397644334E-2,-1.328630932E-2,4.474584386E-2
8.779653232E2,-1.084284950E-2,-5.238165334E-2,1.802051067E-2
8.784694420E2,-1.679878100E-3,-2.244928107E-2,1.114828233E-2
8.789735615E2,2.046396956E-2,-6.261364091E-3,1.007926930E-2
8.794776815E2,-8.552107029E-3,-3.084867075E-2,3.054323839E-3
8.799818020E2,-1.175914705E-2,-5.192350596E-2,-1.007926930E-2
8.804859229E2,-1.160643063E-2,-1.298087649E-2,1.970038936E-2
8.809900441E2,-4.581485991E-4,2.199113183E-2,-1.374445739E-3
8.814941657E2,-3.313941509E-2,3.756818548E-2,1.389717404E-2
8.819982877E2,2.076940238E-2,-1.160643063E-2,-3.054323897E-4
8.825024099E2,-3.268126398E-2,2.748891525E-2,1.863137633E-2
8.830065323E2,3.772090003E-2,1.939495653E-2,-7.635809598E-4
8.835106555E2,-8.246674202E-3,2.626718581E-2,-5.345067009E-3
8.840147797E2,2.229656465E-2,1.954767294E-2,6.261364091E-3
8.845189049E2,-1.114828233E-2,1.481347065E-2,-5.345067009E-3
8.850230310E2,5.345067009E-3,-1.878409274E-2,7.635809598E-4
8.855271579E2,7.788525894E-3,-1.084284950E-2,-6.719512399E-3
8.860312856E2,-3.237583488E-2,-3.084867075E-2,2.092211880E-2
8.865354143E2,3.191768378E-2,1.069013402E-2,-8.857538924E-3
8.870395442E2,-3.252854943E-2,-4.886918236E-3,1.450803876E-2
8.875436750E2,2.611446939E-2,3.817904973E-3,-1.191186346E-2
8.880478069E2,-2.122755162E-2,4.123337101E-3,6.414080039E-3
8.885519398E2,2.092211880E-2,5.039634649E-3,-9.926552884E-3
8.890560743E2,-1.237001177E-2,1.527161920E-3,-1.985310577E-3
8.895602101E2,1.389717404E-2,-2.596175298E-3,-7.635809947E-3
8.900643469E2,-9.315688163E-3,7.788525894E-3,7.483093534E-3
8.905684842E2,-8.246674202E-3,1.481347065E-2,1.832594397E-3
8.910726220E2,-6.872228812E-3,-5.955931731E-3,2.443459118E-3
8.915767602E2,-6.108647794E-4,-1.985310577E-3,-3.970621154E-3
8.920808990E2,-1.374445739E-3,-1.038470119E-2,3.359756200E-3
8.925850381E2,-7.635809598E-4,1.832594397E-3,3.054323839E-3
8.930891777E2,6.872228812E-3,-1.191186346E-2,-5.497782957E-3
8.935933172E2,-1.954767294E-2,-1.588248461E-2,-3.817904973E-3
8.940974566E2,-1.511890348E-2,-7.788525894E-3,-7.941242307E-3
8.946015957E2,-1.649334840E-2,2.015853859E-2,-1.359174121E-2
8.951057345E2,6.566796452E-3,3.145953640E-2,-3.039052337E-2
8.956098730E2,1.130099874E-2,4.382954910E-2,-1.649334840E-2
8.961140111E2,1.099556591E-2,2.748891525E-2,3.787361458E-2
8.966181487E2,1.725693047E-2,-3.176496923E-2,4.795288667E-2
8.971222859E2,1.298087649E-2,-8.567378670E-2,2.580903657E-2
8.976264226E2,-3.420842811E-2,-7.070759684E-2,-7.483093534E-3
8.981305592E2,-3.711003438E-2,-2.138026757E-3,-3.344484791E-2
8.986346959E2,-7.086031139E-2,2.565632015E-2,-1.233946830E-1
8.991388328E2,-1.084285006E-1,1.359174121E-2,-1.652389169E-1
8.996429704E2,-1.052214578E-1,5.375609919E-2,-1.895207912E-1
9.001471088E2,-1.017089859E-1,9.804379940E-2,-2.180787325E-1
9.006512476E2,-1.128572673E-1,1.053741723E-1,-2.159406990E-1
9.011553868E2,-1.128572673E-1,9.743293375E-2,-2.267835438E-1
9.016595264E2,-1.240055487E-1,7.727439702E-2,-2.241873741E-1
9.021636665E2,-1.156061590E-1,8.139773458E-2,-2.309068888E-1
9.026678074E2,-1.059850380E-1,9.804379940E-2,-2.217439115E-1
9.031719488E2,-1.023198515E-1,1.007926911E-1,-2.066250145E-1
9.036760906E2,-6.398808211E-2,1.220202371E-1,-2.052505612E-1
9.041802328E2,-4.153880477E-2,7.941242307E-2,-1.282816082E-1
9.046843754E2,-5.222893879E-2,7.834340632E-2,-8.750637621E-2
9.051885183E2,-2.748891478E-3,4.993819445E-2,-4.795288667E-2
9.056926612E2,-1.038470119E-2,2.703076601E-2,-1.282816008E-2
9.061968040E2,-9.773836471E-3,-9.468403645E-3,-1.496618707E-2
9.067009471E2,-1.557705179E-2,9.926552884E-3,-1.267544460E-2
9.072050905E2,6.719512399E-3,-1.221729559E-3,-1.313359290E-2
9.077092341E2,-3.970621154E-3,-2.138026757E-3,-2.138026757E-3
9.082133781E2,-6.108647794E-4,7.635809598E-4,-8.093958721E-3
9.087175224E2,1.832594397E-3,-2.138026757E-3,-8.246674202E-3
9.092216672E2,-1.237001177E-2,3.512472380E-3,-8.399390616E-3
9.097258120E2,-1.023198478E-2,1.878409274E-2,-1.221729559E-3
9.102299567E2,6.108647794E-4,1.863137633E-2,-1.038470119E-2
9.107341011E2,9.010255337E-3,7.483093534E-3,-1.328630932E-2
9.112382450E2,-1.221729559E-3,-7.941242307E-3,-8.857538924E-3
9.117423884E2,-2.443459118E-3,-6.414080039E-3,3.665188793E-3
9.122465312E2,1.237001177E-2,1.603520103E-2,-5.955931731E-3
9.127506736E2,-1.985310577E-3,-1.985310577E-2,-1.557705179E-2
9.132548155E2,-2.504545636E-2,-4.428769462E-3,1.374445762E-2
9.137589571E2,2.367101051E-2,1.466075517E-2,-7.635809598E-4
9.142630983E2,7.024944760E-3,-8.552107029E-3,-1.557705179E-2
9.147672391E2,3.665188793E-3,1.481347065E-2,2.168569900E-2
9.152713798E2,2.504545636E-2,2.535088919E-2,2.275471389E-2
9.157755201E2,-4.886918236E-3,-1.114828233E-2,1.084284950E-2
9.162796603E2,-9.010255337E-3,1.237001177E-2,2.962694131E-2
9.167838002E2,7.635809947E-3,1.023198478E-2,2.794706449E-2
9.172879398E2,2.809977904E-2,8.399390616E-3,2.275471389E-2
9.177920791E2,2.443459071E-2,1.130099874E-2,3.176496923E-2
9.182962180E2,1.206457894E-2,-1.084284950E-2,2.916879393E-2
9.188003566E2,9.162971750E-3,-2.748891525E-2,2.367101051E-2
9.193044947E2,1.481347065E-2,-1.725693047E-2,2.932151034E-2
9.198086325E2,-1.863137633E-2,-7.116574794E-2,1.557705179E-2
9.203127701E2,-2.748891478E-3,-5.283980444E-2,6.414080039E-3
9.208169075E2,8.399390616E-3,-1.114828233E-2,1.267544460E-2
9.213210449E2,-7.254019380E-2,-2.748891478E-3,3.543015569E-2
9.218251820E2,5.039634556E-2,-2.015853859E-2,-4.978547990E-2
9.223293190E2,-2.672533318E-2,6.582067907E-2,1.817322709E-2
9.228334557E2,3.008509055E-2,1.374445762E-2,1.206457894E-2
9.233375921E2,5.803215317E-3,4.169152305E-2,2.412915789E-2
9.238417280E2,4.993819445E-2,4.169152305E-2,4.856374860E-2
9.243458639E2,8.093958721E-3,-1.252272818E-2,2.229656465E-2
9.248499999E2,7.788525894E-3,-4.459312931E-2,4.703658819E-2
9.253541359E2,3.405570984E-2,-2.015853859E-2,4.276053607E-2
9.258582721E2,5.345067009E-3,-2.825249545E-2,5.421425030E-2
9.263624086E2,1.023198478E-2,-4.001164436E-2,4.627300799E-2
9.268665451E2,2.596175298E-3,-2.947422490E-2,6.108647794E-4
9.273706817E2,1.374445762E-2,-4.581485991E-4,1.038470119E-2
9.278748180E2,-6.414080039E-3,1.527161949E-4,9.773836471E-3
9.283789535E2,9.010255337E-3,6.108647794E-4,1.175914705E-2
9.288830885E2,1.786779426E-2,1.221729559E-3,1.359174121E-2
9.293872231E2,1.359174121E-2,-1.832594397E-3,2.764163166E-2
9.298913580E2,1.572976820E-2,9.926552884E-3,4.001164436E-2
9.303954935E2,1.374445739E-3,3.512472380E-3,3.619373962E-2
9.308996298E2,2.703076601E-2,-3.359756200E-3,5.283980444E-2
9.314037670E2,1.756236330E-2,-3.176496923E-2,5.589412898E-2
9.319079054E2,9.315688163E-3,-6.948586553E-2,4.550942779E-2
9.324120452E2,-7.788525894E-3,-6.811141968E-2,2.626718581E-2
9.329161862E2,1.420260593E-2,-5.329795182E-2,1.252272818E-2
9.334203283E2,-3.298669681E-2,-4.871646687E-2,1.175914705E-2
9.339244713E2,2.901607659E-3,-3.527744114E-2,-7.483093534E-3
9.344286153E2,-1.710421406E-2,-5.192350596E-3,-1.618791744E-2
9.349327602E2,-1.527161949E-4,5.497782957E-3,-7.024944760E-3
9.354369058E2,6.566796452E-3,3.313941509E-2,2.153298259E-2
9.359410521E2,1.618791744E-2,-6.108647678E-3,8.552107029E-3
9.364451986E2,1.114828233E-2,2.290742937E-3,2.993237413E-2
9.369493453E2,1.038470119E-2,-1.114828233E-2,2.840521187E-2
9.374534918E2,1.435532235E-2,-6.414080039E-3,1.542433538E-2
9.379576381E2,2.794706449E-2,5.650499370E-3,2.138026804E-2
9.384617842E2,8.552107029E-3,1.527161949E-4,3.237583488E-2
9.389659303E2,5.039634649E-3,-4.428769462E-3,2.886336111E-2
9.394700762E2,1.832594350E-2,1.832594397E-3,2.794706449E-2
9.399742221E2,1.237001177E-2,-1.267544460E-2,2.535088919E-2
9.404783678E2,9.621120058E-3,-2.076940238E-2,2.351829410E-2
9.409825135E2,1.038470119E-2,-2.031125315E-2,2.443459071E-2
9.414866592E2,7.788525894E-3,-2.962694131E-2,3.237583488E-2
9.419908048E2,1.970038936E-2,7.177661173E-3,4.245510325E-2
9.424949505E2,1.298087649E-2,8.093958721E-3,2.840521187E-2
9.429990962E2,7.635809947E-3,-2.626718581E-2,9.315688163E-3
9.435032421E2,2.351829410E-2,1.282816008E-2,3.848448023E-2
9.440073881E2,1.511890348E-2,-1.007926930E-2,2.565632015E-2
9.445115343E2,-7.330377586E-3,-3.451386094E-2,2.244928107E-2
9.450156806E2,1.053741761E-2,-1.206457894E-2,3.207040206E-2
9.455198272E2,1.863137633E-2,-1.130099874E-2,2.229656465E-2
9.460239737E2,1.374445762E-2,-2.703076601E-2,1.328630932E-2
9.465281202E2,5.650499370E-3,-1.023198478E-2,2.000582218E-2
9.470322666E2,3.207040019E-3,-2.214384824E-2,1.069013402E-2
9.475364129E2,9.468403645E-3,-6.108647794E-4,1.893680729E-2
9.480405592E2,4.428769462E-3,-5.192350596E-3,8.704823442E-3
9.485447053E2,-1.679878123E-2,-1.481347065E-2,7.788525894E-3
9.490488514E2,1.664606482E-2,-9.621120058E-3,9.162971983E-4
9.495529972E2,5.192350596E-3,2.672533318E-2,2.015853859E-2
9.500571428E2,2.550360374E-2,6.872228812E-3,7.788525894E-3
9.505612882E2,-7.177661173E-3,-7.483093534E-3,8.857538924E-3
9.510654331E2,5.039634649E-3,-1.114828233E-2,-0.000000000E0
9.515695780E2,1.374445762E-2,1.130099874E-2,1.924224012E-2
9.520737225E2,3.970621154E-3,1.832594397E-3,1.221729536E-2
9.525778668E2,-8.704823442E-3,-1.206457894E-2,7.635809947E-3
9.530820108E2,1.298087649E-2,-1.832594397E-3,7.177661173E-3
9.535861548E2,7.330377586E-3,1.374445739E-3,4.276053514E-3
9.540902989E2,7.177661173E-3,-6.872228812E-3,8.399390616E-3
9.545944430E2,7.635809598E-4,-2.321286127E-2,5.955931731E-3
9.550985870E2,-1.007926930E-2,5.650499370E-3,1.343902480E-2
9.556027312E2,2.718348242E-2,2.596175298E-2,1.237001177E-2
9.561068754E2,-7.635809947E-3,-3.665188793E-3,2.748891478E-3
9.566110198E2,4.734201822E-3,1.114828233E-2,7.941242307E-3
9.571151643E2,1.588248461E-2,2.412915789E-2,6.108647794E-4
9.576193089E2,2.596175298E-3,1.420260593E-2,-3.359756200E-3
9.581234530E2,2.138026757E-3,1.130099874E-2,-1.527161949E-4
9.586275966E2,9.162971750E-3,1.023198478E-2,-6.261364091E-3
9.591317394E2,-1.832594350E-2,-6.566796452E-3,3.970621154E-3
9.596358815E2,8.093958721E-3,1.802051067E-2,-4.276053514E-3
9.601400234E2,9.315688163E-3,2.703076601E-2,9.162971983E-4
9.606441653E2,-8.857538924E-3,-4.276053514E-3,-2.046396956E-2
9.611483069E2,-2.076940238E-2,2.901607659E-3,-1.252272818E-2
9.616524482E2,9.162971750E-3,3.405570984E-2,-1.970038936E-2
9.621565894E2,-2.993237413E-2,5.345067009E-3,-2.626718581E-2
9.626607303E2,-1.114828233E-2,-1.114828233E-2,-4.016435891E-2
9.631648708E2,-4.428769462E-3,1.740964688E-2,-2.275471389E-2
9.636690109E2,-1.908952370E-2,-5.192350596E-3,-3.283398226E-2
9.641731509E2,-1.359174121E-2,1.374445739E-3,-3.481929377E-2
9.646772907E2,-4.581485991E-4,1.863137633E-2,-3.268126398E-2
9.651814302E2,-1.527161989E-2,2.458730713E-2,-2.519817278E-2
9.656855692E2,-2.412915789E-2,-7.788525894E-3,-3.955349326E-2
9.661897075E2,-2.214384824E-2,1.237001177E-2,-3.008509055E-2
9.666938452E2,-3.054323839E-3,2.382372692E-2,-2.412915789E-2
9.671979824E2,-9.162971983E-4,1.756236330E-2,-2.229656465E-2
9.677021191E2,5.039634649E-3,2.076940238E-2,3.054323897E-4
9.682062556E2,-8.399390616E-3,-1.985310577E-3,-2.336557768E-2
9.687103923E2,-1.252272818E-2,3.359756200E-3,-6.566796452E-3
9.692145295E2,-5.650499370E-3,1.084284950E-2,-5.803215317E-3
9.697186676E2,-1.313359290E-2,-7.941242307E-3,-6.719512399E-3
9.702228069E2,7.941242307E-3,-1.527161949E-4,-7.483093534E-3
9.707269476E2,9.162971983E-4,7.330377586E-3,-3.054323839E-3
9.712310893E2,3.970621154E-3,-4.581485875E-3,-1.481347065E-2
9.717352322E2,-1.069013402E-2,-8.857538924E-3,-1.191186346E-2
9.722393759E2,-6.719512399E-3,5.192350596E-3,-1.221729559E-3
9.727435205E2,-2.596175298E-3,1.374445739E-3,-1.603520103E-2
9.732476661E2,-1.588248461E-2,-1.496618707E-2,-1.908952370E-2
9.737518128E2,5.650499370E-3,-1.053741761E-2,-1.145371422E-2
9.742559604E2,-1.069013402E-2,9.773836471E-3,-1.939495653E-2
9.747601086E2,4.123337101E-3,2.504545636E-2,1.679878100E-3
9.752642575E2,9.315688163E-3,5.650499370E-3,-9.926552884E-3
9.757684066E2,-3.802633286E-2,2.596175298E-3,4.123337101E-3
9.762725564E2,2.794706449E-2,2.443459071E-2,-9.468403645E-3
9.767767065E2,-2.932151034E-2,6.719512399E-3,-4.581485875E-3
9.772808570E2,1.786779426E-2,-1.145371422E-2,-2.183841541E-2
9.777850077E2,-7.635809598E-4,1.038470119E-2,7.330377586E-3
9.782891583E2,-9.315688163E-3,-1.740964688E-2,-2.061668597E-2
9.787933087E2,-2.076940238E-2,-1.237001177E-2,-4.123337101E-3
9.792974585E2,3.100138716E-2,1.771507785E-2,-4.581485991E-4
9.798016079E2,-1.908952370E-2,-3.084867075E-2,-1.237001177E-2
9.803057568E2,2.076940238E-2,2.657261863E-2,1.634063199E-2
9.808099050E2,-2.596175298E-3,3.191768378E-2,1.252272818E-2
9.813140525E2,-2.336557768E-2,-1.740964688E-2,-1.084284950E-2
9.818181992E2,3.634645417E-2,-2.748891478E-3,2.138026757E-3
9.823223452E2,6.719512399E-3,1.893680729E-2,1.771507785E-2
9.828264909E2,1.206457894E-2,4.886918236E-3,1.282816008E-2
9.833306368E2,3.207040019E-3,0.000000000E0,-1.069013379E-3
9.838347830E2,5.650499370E-3,-7.635809947E-3,1.130099874E-2
9.843389426E2,-4.428769462E-3,-1.374445739E-3,1.175914705E-2
9.848430764E2,9.468403645E-3,4.581485991E-4,7.177661173E-3
9.853472231E2,-1.817322709E-2,3.054323897E-4,3.512472380E-3
9.858513696E2,2.260199748E-2,-2.901607659E-3,3.054323897E-4
9.863555158E2,-1.664606482E-2,-1.053741761E-2,3.970621154E-3
9.868596617E2,-2.443459118E-3,6.566796452E-3,6.108647678E-3
9.873638073E2,5.039634649E-3,9.162971983E-4,-5.192350596E-3
9.878679526E2,1.527161920E-3,-4.428769462E-3,-4.581485875E-3
9.883720975E2,-1.832594397E-3,-6.261364091E-3,-7.788525894E-3
9.888762419E2,2.901607659E-3,6.108647678E-3,7.177661173E-3
9.893803858E2,4.581485991E-4,-1.069013379E-3,-1.374445739E-3
9.898845292E2,-4.428769462E-3,4.734201822E-3,3.207040019E-3
9.903886722E2,-7.330377586E-3,-4.581485875E-3,4.276053514E-3
9.908928148E2,9.926552884E-3,-3.665188793E-3,2.138026757E-3
9.913969572E2,1.084284950E-2,-3.207040019E-3,-2.443459118E-3
9.919010993E2,-9.773836471E-3,2.138026757E-3,1.130099874E-2
9.924052409E2,1.634063199E-2,-2.138026757E-3,-1.527161949E-4
9.929093822E2,-1.527161989E-2,-3.359756200E-3,6.719512399E-3
9.934135231E2,-4.276053514E-3,1.832594397E-3,4.123337101E-3
9.939176636E2,1.496618707E-2,1.527161920E-3,-4.886918236E-3
9.944218039E2,-6.261364091E-3,-1.145371422E-2,-6.872228812E-3
9.949259438E2,-9.315688163E-3,2.596175298E-3,9.162971750E-3
9.954300834E2,-1.420260593E-2,-2.474002354E-2,-1.710421406E-2
9.959342229E2,-7.788525894E-3,-2.580903657E-2,-1.496618707E-2
9.964383620E2,-1.572976820E-2,4.153880477E-2,3.207040019E-3
9.969425009E2,-4.581485991E-4,-2.596175298E-2,-3.008509055E-2
9.974466394E2,-8.093958721E-3,2.748891478E-3,-2.886336111E-2
9.979507777E2,2.138026757E-3,3.283398226E-2,-6.108647678E-3
9.984549156E2,3.665188793E-3,2.122755162E-2,-1.145371422E-2
9.989590533E2,-9.773836471E-3,-2.901607659E-3,-6.108647678E-3
9.994631908E2,-3.054323839E-3,1.282816008E-2,1.404988952E-2
