"Time (s)","Linear Acceleration x (m/s^2)","Linear Acceleration y (m/s^2)","Linear Acceleration z (m/s^2)"
1.089232320E-1,-4.037833214E-2,7.347764969E-1,-2.826910019E-1
3.105717210E-1,7.865307331E-1,2.217729092E0,-1.903940201E0
8.105717210E-1,6.059453487E-1,3.895750642E-1,2.705821991E-1
1.310571721E0,8.221712112E-1,-3.645085394E-1,7.997589111E-1
1.810571721E0,5.233571529E-1,-1.505283952E0,-1.922540665E-1
2.310571721E0,-4.173908234E-1,-1.065846562E0,9.089145660E-1
2.810571721E0,2.298262119E-1,-3.222809732E-1,1.997184753E-2
3.310571721E0,2.481448650E-1,-8.789652586E-2,-8.673191071E-2
3.810571721E0,1.117534637E-1,-3.223502636E-2,4.088592529E-2
4.310571721E0,-1.322510242E-1,1.686138511E-1,4.809093475E-2
4.810571721E0,1.040682793E-1,6.723886728E-2,1.591587067E-2
5.310571721E0,3.684902191E-2,1.496170461E-1,-1.159267426E-1
5.810571721E0,-7.656574249E-3,1.373687536E-1,-5.013561249E-2
6.310571721E0,1.155200005E-1,3.733881712E-1,9.525394440E-2
6.810571721E0,4.689407349E-2,-2.113743126E-2,2.009057999E-1
7.310571721E0,5.157279968E-2,-3.084063530E-2,-7.808589935E-2
7.810571721E0,2.393436432E-1,-6.764143705E-2,1.257915497E-1
8.310571721E0,-4.899740219E-2,-2.094233036E-1,-8.364200592E-2
8.810571721E0,-3.996562958E-2,-6.261581182E-2,8.802509308E-2
9.310571721E0,-1.371755600E-1,6.866753101E-3,-8.362579346E-2
9.810571721E0,1.004600525E-1,-7.484287024E-2,8.994102478E-2
1.031057172E1,1.875085831E-1,-1.263860464E-1,1.896848679E-1
1.081057172E1,1.041078568E-2,1.688399911E-1,-2.607574463E-1
1.131057172E1,1.922106743E-1,-9.722375870E-2,3.958139420E-1
1.181057172E1,3.890242577E-1,-2.661573887E-2,-1.435747147E-1
1.231057172E1,-1.283292770E-1,2.978658676E-1,-6.163864136E-1
1.281057172E1,2.832922935E-1,-2.862341404E-1,6.853170395E-1
1.331057172E1,7.057714462E-2,-8.790484667E-1,3.518371582E-1
1.381057172E1,-3.856000900E-1,3.838069439E-1,-1.721408367E0
1.431057172E1,1.110887051E0,-1.345964670E0,1.898098946E0
1.481057172E1,-1.272762537E0,9.151008129E-1,-3.095100403E0
1.531057172E1,5.007576942E-1,-1.285509467E0,3.623460770E0
1.581057172E1,-7.059862614E-1,6.331233978E-1,-2.106138706E0
1.631057172E1,3.183007240E-1,-7.535719872E-1,8.442792892E-1
1.681057172E1,5.338716507E-2,8.834838867E-3,-4.249801636E-1
1.731057172E1,1.935195923E-2,-1.278097630E-1,1.657934189E-1
1.781057172E1,1.646566391E-2,8.571624756E-3,-1.293792725E-1
1.831057172E1,2.283339500E-1,-9.837698936E-2,1.214466095E-1
1.881057172E1,7.955265045E-2,4.568362236E-2,-2.370119095E-1
1.931057172E1,1.514177322E-1,-1.532354355E-1,1.915750504E-1
1.981057172E1,7.786941528E-2,3.861594200E-2,-1.287813187E-1
2.031057172E1,1.318244934E-1,-6.569147110E-2,-5.588817596E-2
2.081057172E1,-3.212809563E-1,3.085246086E-1,-1.166659832E0
2.131057172E1,6.260967255E-2,-3.997468948E-1,1.069873810E0
2.181057172E1,4.441227913E-1,-1.314866543E-1,-3.389930725E-2
2.231057172E1,-3.622968197E-1,-7.129116058E-1,3.867893219E-1
2.281057172E1,-3.732397556E-1,-5.681574345E-1,-2.239503860E-1
2.331057172E1,1.992344856E-1,-1.011530638E0,9.860553741E-1
2.381057172E1,-1.631472111E-1,-3.083777428E-1,-5.103225708E-1
2.431057172E1,-3.884544373E-1,-1.138771057E0,4.145669937E-1
2.481057172E1,-5.157735348E-1,-6.959171295E-1,-4.044036865E-1
2.531057172E1,-2.182178497E-1,-4.338927269E-1,-1.902017593E-1
2.581057172E1,-7.134318352E-2,-7.547760010E-2,-2.333507538E-1
2.631057172E1,4.349851608E-2,-3.408288956E-1,-3.262996674E-2
2.681057172E1,-1.173121929E-1,6.833403111E-1,-2.243452072E-1
2.731057172E1,1.460344791E-1,4.176399708E-1,-7.685756683E-2
2.781057172E1,-8.146405220E-2,1.077754498E-1,-1.551885605E-1
2.831057172E1,-7.098340988E-2,1.006703377E-1,1.802730560E-2
2.881057172E1,-1.935887337E-2,1.340196133E-1,7.449150085E-3
2.931057172E1,-1.256346703E-2,1.343080997E-1,1.377391815E-2
2.981057172E1,-1.049821377E-1,-7.703828812E-2,2.908611298E-2
3.031057172E1,-4.532885551E-2,8.157491684E-3,-5.507755280E-2
3.081057172E1,-2.955293655E-2,5.671024323E-3,-4.819011688E-2
3.131057172E1,-1.498746872E-2,1.227712631E0,8.443164825E-2
3.181057172E1,2.571375370E-1,4.863913059E-1,-2.506828308E-2
3.231057172E1,1.342630386E-1,2.686572075E-1,1.028203964E-1
3.281057172E1,-1.503825188E-2,2.398531437E-1,-6.141662598E-4
3.331057172E1,1.353335381E-2,-1.905775070E-2,1.355209351E-1
3.381057172E1,-5.044603348E-2,9.604811668E-2,-8.138179779E-2
3.431057172E1,-5.450487137E-3,-2.538418770E-2,5.463123322E-2
3.481057172E1,-2.347397804E-2,4.540181160E-2,-8.707046509E-4
3.531057172E1,3.361773491E-2,-1.428818703E-2,-1.192378998E-2
3.581057172E1,-2.185273170E-2,1.566815376E-2,2.565383911E-4
3.631057172E1,1.858425140E-2,5.492925644E-3,-3.013610840E-3
3.681057172E1,-6.783485413E-3,-5.531072617E-3,-1.198768616E-2
3.731057172E1,1.443839073E-2,2.018880844E-2,-1.282691956E-2
3.781057172E1,1.485276222E-2,-1.362562180E-2,2.193737030E-2
3.831057172E1,-3.905987740E-2,-3.868150711E-2,-1.016616821E-3
3.881057172E1,-2.893686295E-3,3.660798073E-2,-5.562114716E-2
3.931057172E1,-9.829044342E-3,1.281785965E-2,-2.022266388E-2
3.981057172E1,2.175331116E-3,-1.290202141E-2,2.238178253E-2
4.031057172E1,1.510834694E-2,-4.437685013E-3,2.679920197E-2
4.081057172E1,6.607770920E-3,9.829759598E-3,5.483627319E-4
4.131057172E1,-2.440261841E-2,1.417827606E-2,-1.327323914E-2
4.181057172E1,1.488685608E-3,1.329183578E-3,-1.596546173E-2
4.231057172E1,-1.447916031E-3,-3.023862839E-3,5.409240723E-3
4.281057172E1,5.295276642E-2,-4.956936836E-2,9.696292877E-2
4.331057172E1,-3.741502762E-2,6.004500389E-2,-7.843399048E-2
4.381057172E1,-2.673792839E-2,7.815837860E-3,7.824897766E-3
4.431057172E1,-4.140472412E-2,5.622696877E-2,-1.099481583E-1
4.481057172E1,6.919503212E-2,-5.816960335E-2,9.063053131E-2
4.531057172E1,-8.379912376E-2,8.842551708E-2,-5.884075165E-2
4.581057172E1,-8.188962936E-3,-8.359432220E-3,2.180576324E-2
4.631057172E1,7.006168365E-2,2.728203535E-1,1.557607651E-1
4.681057172E1,8.541774750E-2,2.601830959E-1,-1.335115433E-1
4.731057172E1,-1.254949570E-1,1.066362858E-2,-3.030586243E-2
4.781057172E1,-1.423664093E-1,-3.480482101E-2,1.572227478E-2
4.831057172E1,-4.491853714E-2,-3.249442577E-2,4.420471191E-2
4.881057172E1,-7.778644562E-3,1.176912785E-1,6.918525696E-2
4.931057172E1,-5.033016205E-3,2.788482904E-1,3.910064697E-5
4.981057172E1,1.218800545E-1,7.755196095E-2,-4.444599152E-2
5.031057172E1,5.768203735E-2,-2.668722868E-1,-7.536411285E-2
5.081057172E1,-5.944108963E-2,1.032550335E-1,-1.603002548E-1
5.131057172E1,5.203390121E-2,-1.027883291E-1,7.522583008E-2
5.181057172E1,6.615018845E-2,-2.601921558E-2,1.510553360E-1
5.231057172E1,-1.189684868E-1,2.163910866E-2,-2.248487473E-1
5.281057172E1,-8.761405945E-2,-4.191911221E-2,1.684236526E-1
5.331057172E1,1.032118797E-1,8.420228958E-3,8.714675903E-3
5.381057172E1,1.380982399E-1,-2.368505001E-1,1.112527847E-1
5.431057172E1,-2.199110985E-1,6.691217422E-4,-3.212704659E-1
5.481057172E1,-9.626865387E-3,-9.336423874E-2,1.157045364E-1
5.531057172E1,-3.037991524E-1,1.133502722E-1,-1.959218979E-1
5.581057172E1,4.304165840E-1,-7.109010220E-1,3.139324188E-1
5.631057172E1,2.118158340E-2,-5.582907200E-1,1.334505081E-1
5.681057172E1,1.100826263E-2,-2.286965847E-1,-9.811306000E-2
5.731057172E1,-1.522574425E-1,-8.756828308E-2,-1.346855164E-1
5.781057172E1,-1.412234306E-1,-1.369789124E0,3.738956451E-1
5.831057172E1,-3.976151943E-1,-6.217751503E-1,-1.339635849E-1
5.881057172E1,-2.232859135E-1,-7.240653038E-2,-1.180248260E-1
5.931057172E1,4.152631760E-2,-4.256439209E-2,4.929351807E-2
5.981057172E1,5.344367027E-2,1.086146832E-1,1.076221466E-2
6.031057172E1,5.710148811E-2,4.406714439E-2,-4.475879669E-2
6.081057172E1,3.834533691E-2,7.364201546E-2,-6.123828888E-2
6.131057172E1,1.229271889E-1,3.328561783E-3,-2.808094025E-2
6.181057172E1,1.621818542E-2,2.623701096E-2,6.863594055E-3
6.231057172E1,1.294016838E-1,2.325258255E-1,1.561594009E-1
6.281057172E1,4.059076309E-2,7.136843204E-1,2.398300171E-2
6.331057172E1,1.925678253E-1,3.326416016E-1,1.901245117E-1
6.381057172E1,1.720666885E-2,4.422279596E-1,-7.939624786E-2
6.431057172E1,2.110052109E-2,-1.076674461E-2,2.036104202E-1
6.481057172E1,-1.339077950E-1,2.359365225E-1,1.844310760E-2
6.531057172E1,-1.609241962E-1,6.948888302E-2,1.717405319E-1
6.581057172E1,-4.057271481E-1,-3.592002392E-2,1.012372971E-1
6.631057172E1,2.613782883E-3,-2.110649347E-1,1.355323792E-1
6.681057172E1,-4.971530437E-1,-1.040416956E-1,-2.717971802E-3
6.731057172E1,-1.986119747E-1,-2.684609890E-1,9.269428253E-2
6.781057172E1,-2.035806179E-1,-2.634891272E-1,-4.266643524E-2
6.831057172E1,-3.144121170E-2,-1.678421497E-1,-2.123146057E-1
6.881057172E1,1.100943089E-1,-1.172516346E-1,-3.475856781E-2
6.931057172E1,1.168843031E0,-9.618282318E-2,-2.080183029E-1
6.981057172E1,8.884038925E-1,9.012973309E-2,-6.169548035E-1
7.031057172E1,-3.584625721E-1,3.962923288E-1,-3.117465973E-2
7.081057172E1,4.931936264E-1,4.950451851E-2,-1.152877808E-1
7.131057172E1,1.641182899E-1,3.480505943E-2,9.586811066E-2
7.181057172E1,-1.740646362E-2,4.646778107E-2,-9.644603729E-2
7.231057172E1,-2.193069458E-2,2.475023270E-3,-1.937112808E-1
7.281057172E1,7.343578339E-2,2.742540836E-2,-6.834983826E-3
7.331057172E1,-2.598237991E-2,-2.316176891E-2,2.333545685E-2
7.381057172E1,1.844072342E-2,-1.417063475E-1,6.807231903E-2
7.431057172E1,4.080390930E-2,-2.281141281E-2,1.744070053E-1
7.481057172E1,1.145653725E-1,7.035160065E-2,-1.878261566E-1
7.531057172E1,-2.813434601E-2,-6.037211418E-2,5.651378632E-2
7.581057172E1,3.800821304E-2,-2.950978279E-2,3.016185760E-2
7.631057172E1,-6.571483612E-2,6.883347034E-2,-1.077470779E-1
7.681057172E1,-3.472185135E-2,1.932823658E-2,-2.092552185E-2
7.731057172E1,1.771926880E-2,-5.266523361E-2,1.481103897E-1
7.781057172E1,-5.146360397E-2,1.448869705E-2,-6.973361969E-2
7.831057172E1,-3.556222916E-1,-9.395027161E-2,-1.019738674E0
7.881057172E1,-5.184173584E-2,-1.020698547E0,4.559116364E-1
7.931057172E1,-1.114292145E-1,-2.255899906E-1,-7.383770943E-1
7.981057172E1,1.175084114E-1,-8.658626080E-1,6.457977295E-1
8.031057172E1,-8.433020115E-1,2.207660675E-1,-1.327929020E0
8.081057172E1,3.726234436E-1,-9.537580013E-1,1.295503616E0
8.131057172E1,-3.872394562E-2,-4.134814739E-1,-5.444231033E-1
8.181057172E1,-3.205285072E-1,-8.224446774E-1,9.411811829E-3
8.231057172E1,-3.961629868E-1,-8.754959106E-1,-1.571512222E-1
8.281057172E1,2.100372314E-2,-3.093397617E-1,-1.804809570E-1
8.331057172E1,1.482944489E-1,-2.727348804E-1,1.092195511E-1
8.381057172E1,1.080999374E-1,2.098059654E-2,-3.200650215E-1
8.431057172E1,3.774132729E-1,-6.101489067E-2,-2.133693695E-1
8.481057172E1,-1.077303886E-1,-6.954076290E-1,-2.097897530E-1
8.531057172E1,-2.544369698E-1,-8.226122856E-1,-4.275321960E-2
8.581057172E1,-1.996865273E-1,-2.932214737E-1,-6.946563721E-3
8.631057172E1,-4.951443672E-1,9.045648575E-2,-3.730497360E-1
8.681057172E1,6.790828705E-2,2.910606861E-1,6.605300903E-1
8.731057172E1,-1.279716253E0,1.025032997E0,1.066799164E-1
8.781057172E1,-9.435713291E-1,7.821722031E-1,9.716119766E-1
8.831057172E1,-1.822175980E-1,8.964669704E-1,1.502561569E-1
8.881057172E1,-5.097675323E-2,4.768192768E-1,4.520864487E-1
8.931057172E1,-5.529329777E-1,8.284144402E-1,-6.230258942E-2
8.981057172E1,-4.702234268E-2,3.562109470E-1,1.927003860E-1
9.031057172E1,4.947805405E-2,2.064757347E-1,-1.906080246E-1
9.081057172E1,9.078459740E-1,-2.817225456E-2,-1.328735352E-1
9.131057172E1,2.701778412E-1,8.535194397E-2,-5.317878723E-2
9.181057172E1,7.479190826E-3,1.698746681E-1,-1.070890427E-1
9.231057172E1,1.306195259E-1,3.540754318E-2,7.415199280E-2
9.281057172E1,-2.764892578E-2,1.059037447E-1,-8.691310883E-2
9.331057172E1,-2.882528305E-2,5.357086658E-2,1.946821213E-1
9.381057172E1,-2.937173843E-2,1.569063663E-1,-6.613731384E-2
9.431057172E1,4.244327545E-3,8.021736145E-2,1.109685898E-1
9.481057172E1,-1.232428551E-1,1.273262501E-2,-1.694183350E-1
9.531057172E1,-1.470627785E-1,4.155158997E-2,-1.512374878E-1
9.581057172E1,-1.383118629E-1,-1.216249466E-1,-1.002616882E-1
9.631057172E1,-4.336729050E-1,-8.134033680E-1,-4.781184196E-1
9.681057172E1,-2.396869659E-1,-9.879720211E-1,1.570291519E-1
9.731057172E1,-6.552886963E-2,-3.962323666E-1,1.944627762E-1
9.781057172E1,-1.505036354E-1,-1.483345032E-1,-1.690111160E-1
9.831057172E1,-4.423379898E-2,-2.595474720E-1,-2.148480415E-1
9.881057172E1,-2.870798111E-2,-5.992195606E-1,8.862972260E-2
9.931057172E1,-1.254363060E-1,-2.525169849E-1,-4.515743256E-2
9.981057172E1,5.258083344E-3,-1.781134605E-1,-1.484775543E-2
1.003105717E2,-7.517337799E-2,-2.793216705E-2,2.359781265E-1
1.008105717E2,9.260988235E-2,7.510614395E-2,-8.243465424E-2
1.013105717E2,5.878973007E-2,7.854223251E-3,8.246803284E-2
1.018105717E2,6.395912170E-2,1.298134327E-1,1.478767395E-2
1.023105717E2,-8.325099945E-2,1.832079887E-1,3.738307953E-2
1.028105717E2,1.961398125E-1,1.031851768E-2,1.421689987E-1
1.033105717E2,-1.107835770E-2,5.082130432E-3,-1.634235382E-1
1.038105717E2,-3.761434555E-2,-2.872388363E-1,9.377193451E-2
1.043105717E2,-8.401632309E-2,-5.637693405E-2,-1.258726120E-1
1.048105717E2,6.777615547E-1,6.809895039E-1,5.848808289E-1
1.053105717E2,4.954576492E-1,1.130963802E0,-1.489639282E-1
1.058105717E2,1.104893684E-1,5.101506710E-1,3.194007874E-1
1.063105717E2,1.440238953E-2,3.552153111E-1,-1.040973663E-1
1.068105717E2,1.017742157E-1,-5.519628525E-3,8.875274658E-2
1.073105717E2,-2.393245697E-2,6.930351257E-2,-3.322887421E-2
1.078105717E2,5.864191055E-2,-4.379439354E-2,6.451988220E-2
1.083105717E2,-1.370000839E-2,-5.314087868E-2,3.536510468E-2
1.088105717E2,1.652097702E-2,2.257943153E-2,-2.001380920E-2
1.093105717E2,7.209300995E-3,-4.652786255E-2,1.009082794E-2
1.098105717E2,2.656841278E-2,-1.585721970E-2,7.425308228E-3
1.103105717E2,1.668930054E-2,-1.185059547E-2,1.681804657E-2
1.108105717E2,-1.262283325E-2,1.679301262E-2,-1.495838165E-2
1.113105717E2,-1.023149490E-2,7.596492767E-3,-5.560874939E-3
1.118105717E2,1.382589340E-2,-2.125263214E-3,-3.664970398E-3
1.123105717E2,-1.450157166E-2,-3.232717514E-3,-1.837730408E-3
1.128105717E2,-7.260799408E-3,9.745836258E-3,-1.415920258E-2
1.133105717E2,2.966928482E-2,-3.485679626E-3,-1.970291138E-3
1.138105717E2,7.163524628E-3,-2.209186554E-3,-1.871967316E-2
1.143105717E2,-1.453828812E-2,-6.425380707E-4,8.662223816E-3
1.148105717E2,5.115032196E-3,1.710295677E-2,-3.309249878E-3
1.153105717E2,-1.606798172E-2,8.141756058E-3,2.173519135E-2
1.158105717E2,8.498668671E-3,-9.676456451E-3,-1.986598969E-2
1.163105717E2,1.561498642E-2,-5.855560303E-3,-5.798339844E-4
1.168105717E2,9.112358093E-3,6.578207016E-3,5.780220032E-3
1.173105717E2,1.461982727E-2,-1.223683357E-2,3.011798859E-2
1.178105717E2,-5.901622772E-2,-1.538133621E-2,-7.652282715E-3
1.183105717E2,-9.840488434E-3,1.572823524E-2,-8.975982666E-3
1.188105717E2,3.543233871E-2,-1.495671272E-2,4.990577698E-3
1.193105717E2,4.369688034E-2,-1.179933548E-3,1.910400391E-2
1.198105717E2,-2.785062790E-2,2.616463900E-1,1.090526581E-2
1.203105717E2,3.938627243E-2,-6.603240967E-2,-4.923152924E-2
1.208105717E2,6.207895279E-2,-1.667129993E-2,7.935047150E-2
1.213105717E2,-8.608484268E-2,3.159073591E-1,-7.348537445E-2
1.218105717E2,7.895421982E-2,1.139148474E-1,1.067352295E-1
1.223105717E2,-8.093833923E-3,-3.839826584E-2,4.879093170E-2
1.228105717E2,6.338500977E-2,1.797419786E-1,2.198886871E-2
1.233105717E2,-3.123903275E-2,1.090859175E-1,-1.199579239E-1
1.238105717E2,1.506237984E-1,-2.503156662E-2,-2.566814423E-2
1.243105717E2,-5.549860001E-2,8.498048782E-2,2.503681183E-2
1.248105717E2,-5.387639999E-2,-4.199957848E-2,1.760663986E-1
1.253105717E2,-3.852319717E-2,3.719663620E-2,-3.778362274E-2
1.258105717E2,1.734638214E-2,-1.570158005E-1,-5.847263336E-2
1.263105717E2,-3.404331207E-2,4.621636868E-2,-1.840066910E-1
1.268105717E2,1.753759384E-1,-1.478468180E-1,2.913637161E-1
1.273105717E2,-1.979117393E-1,7.916641235E-2,-1.922540665E-1
1.278105717E2,-8.213472366E-2,5.229794979E-2,-1.559314728E-1
1.283105717E2,3.124427795E-2,-6.531989574E-2,4.831218719E-2
1.288105717E2,6.777954102E-2,-1.076704264E-1,1.676654816E-2
1.293105717E2,-1.869792938E-1,-4.869019985E-2,-1.498966217E-1
1.298105717E2,1.455163956E-2,-2.781226635E-1,-1.609706879E-2
1.303105717E2,4.496622086E-2,-4.777984619E-1,1.179456711E-1
1.308105717E2,5.343627930E-2,-1.816024780E-1,3.287220001E-2
1.313105717E2,-1.392216682E-1,1.478171349E-2,-1.123456955E-1
1.318105717E2,1.684331894E-2,-3.762173653E-2,1.004304886E-1
1.323105717E2,-1.449680328E-2,-1.406466961E-1,1.814317703E-1
1.328105717E2,-3.099656105E-1,2.835760117E-1,-4.953584671E-1
1.333105717E2,-1.189455986E-1,-2.521917820E-1,3.520870209E-1
1.338105717E2,-4.222249985E-2,-3.900482655E-1,-3.767204285E-2
1.343105717E2,-2.858030796E-1,-2.419233322E-2,-3.420276642E-1
1.348105717E2,1.093564034E-1,-5.147597790E-1,3.838815689E-1
1.353105717E2,-1.964566708E-1,-1.088070869E-2,3.958797455E-2
1.358105717E2,-9.104466438E-2,3.921475410E-1,5.174064636E-1
1.363105717E2,-1.872863770E-1,9.929394722E-2,4.529275894E-1
1.368105717E2,-2.149443626E-1,6.774044037E-2,1.344575882E-1
1.373105717E2,1.176981926E-1,1.088786125E-1,1.806869507E-1
1.378105717E2,2.428646088E-1,2.158524990E-1,-3.642673492E-1
1.383105717E2,1.204784155E0,2.982649803E-1,-3.805007935E-1
1.388105717E2,3.996539116E-1,3.508737087E-1,-2.278041840E-1
1.393105717E2,1.204655170E0,-1.898169518E-1,2.852869034E-1
1.398105717E2,8.123636246E-1,2.766780853E-1,-8.558144569E-1
1.403105717E2,3.165082932E-1,3.003318310E-1,-2.597351074E-1
1.408105717E2,-2.554559708E-2,1.680624485E-1,1.698398590E-2
1.413105717E2,2.293596268E-1,-2.598929405E-2,-6.861686707E-3
1.418105717E2,-2.734460831E-1,1.707556248E-1,9.369468689E-2
1.423105717E2,-1.402907372E-1,-3.279018402E-2,-2.478694916E-2
1.428105717E2,-5.033493042E-2,-5.755877495E-2,3.278636932E-2
1.433105717E2,-3.941965103E-2,-1.648507118E-1,-2.591714859E-1
1.438105717E2,-1.217222214E-1,-3.250706196E-1,-1.096506119E-1
1.443105717E2,4.092178345E-1,-7.775354385E-2,-1.072025299E-2
1.448105717E2,3.461422920E-1,-1.514744759E-2,-1.416506767E-1
1.453105717E2,2.442798615E-1,-1.803929806E-1,4.214191437E-2
1.458105717E2,-2.167930603E-1,-9.588956833E-3,1.907205582E-2
1.463105717E2,-1.955294609E-1,-5.667400360E-2,9.228229523E-2
1.468105717E2,-8.992540836E-1,2.992076874E-1,3.774080276E-1
1.473105717E2,-3.342180252E-1,3.491978645E-1,9.771442413E-2
1.478105717E2,-1.778283119E-1,9.088635445E-2,4.550485611E-1
1.483105717E2,-9.628026485E-1,4.940927029E-1,-2.017593384E-2
1.488105717E2,-6.092584133E-1,3.775773048E-1,3.229551315E-1
1.493105717E2,1.498427391E-1,5.787277222E-2,1.131286621E-1
1.498105717E2,-8.721034527E-1,2.215607166E-1,2.032737732E-1
1.503105717E2,8.065843582E-2,-7.477498055E-2,2.460918427E-1
1.508105717E2,6.728124619E-2,2.608728409E-2,-1.548480988E-2
1.513105717E2,8.021593094E-3,8.912491798E-2,-1.759614944E-1
1.518105717E2,5.828547478E-2,-1.640982628E-1,1.535139084E-1
1.523105717E2,-1.975889206E-1,-1.606202126E-2,-8.598995209E-2
1.528105717E2,-3.661997318E-1,-2.536654472E-1,2.712850571E-1
1.533105717E2,-8.539774418E-1,1.852486134E-1,-2.913856506E-2
1.538105717E2,9.454631805E-2,-2.372593880E-1,3.007335663E-1
1.543105717E2,-4.413392544E-1,-1.101038456E-1,-1.488752365E-1
1.548105717E2,-4.390990734E-1,-2.990543842E-1,-1.818408966E-1
1.553105717E2,-1.483898163E-1,-6.395715475E-1,4.669151306E-1
1.558105717E2,7.544767857E-1,-7.290709019E-2,-3.932905197E-1
1.563105717E2,3.741869926E-1,-4.750692844E-2,-2.271242142E-1
1.568105717E2,3.273777962E-1,-6.741380692E-2,-6.147861481E-2
1.573105717E2,9.655952454E-4,-7.723689079E-2,1.724405289E-1
1.578105717E2,-2.463564873E-1,9.149992466E-2,-1.975345612E-1
1.583105717E2,2.108731270E-1,-1.430265903E-1,1.949405670E-2
1.588105717E2,4.106092453E-2,-8.817100525E-2,-3.270435333E-2
1.593105717E2,-6.550693512E-2,-5.519866943E-3,1.525878906E-4
1.598105717E2,1.017999649E-2,2.926135063E-2,-5.516147614E-2
1.603105717E2,8.235073090E-2,1.008272171E-3,5.047130585E-2
1.608105717E2,-1.143231392E-1,2.469658852E-2,-2.689361572E-2
1.613105717E2,-7.025241852E-3,1.153326035E-2,-2.161884308E-2
1.618105717E2,-5.099153519E-2,-3.257656097E-2,2.232456207E-2
1.623105717E2,-7.680368423E-2,-1.334428787E-2,7.697963715E-2
1.628105717E2,-6.102514267E-2,4.309010506E-2,-5.416774750E-2
1.633105717E2,5.400609970E-2,-1.036183834E-1,-2.100849152E-2
1.638105717E2,7.584476471E-2,-8.509159088E-2,-6.147670746E-2
1.643105717E2,7.215070724E-2,-4.612374306E-2,-1.785831451E-1
1.648105717E2,9.891700745E-2,-5.643153191E-2,-1.145634651E-1
1.653105717E2,1.549568176E-1,-9.707522392E-2,-1.510953903E-1
1.658105717E2,4.397201538E-2,-1.159958839E-1,4.633092880E-2
1.663105717E2,3.006458282E-3,-6.666111946E-2,5.004644394E-2
1.668105717E2,-1.818709373E-1,-8.294534683E-2,-7.142257690E-2
1.673105717E2,1.826429367E-2,-5.475020409E-2,-9.322929382E-2
1.678105717E2,-5.572032928E-2,-6.866812706E-2,2.345418930E-2
1.683105717E2,-6.677579880E-2,-7.322621346E-2,2.124929428E-2
1.688105717E2,-5.095338821E-2,9.587764740E-3,6.057977676E-2
1.693105717E2,-1.386532784E-1,7.724380493E-2,-4.102993011E-2
1.698105717E2,-9.787940979E-2,-9.682178497E-4,4.719161987E-2
1.703105717E2,1.319980621E-1,-5.513119698E-2,-3.718280792E-2
1.708105717E2,-8.128786087E-2,8.219480515E-3,-7.903051376E-2
1.713105717E2,-3.596496582E-2,-2.376055717E-2,6.750106812E-2
1.718105717E2,-5.457353592E-2,-9.665465355E-2,6.870698929E-2
1.723105717E2,-1.085424423E-2,-5.046629906E-2,-4.633760452E-2
1.728105717E2,2.586650848E-2,-8.763575554E-2,8.895254135E-2
1.733105717E2,-9.803533554E-2,-2.394485474E-2,1.262235641E-2
1.738105717E2,-1.039366722E-1,-5.136227608E-2,-1.683902740E-2
1.743105717E2,-8.320760727E-2,-1.479983330E-1,1.269817352E-3
1.748105717E2,-2.160596848E-2,-2.619879246E-1,-1.198182106E-1
1.753105717E2,-2.556838989E-1,-2.970581055E-1,4.621438980E-1
1.758105717E2,-2.054357529E-2,2.251507044E-1,1.282472610E-1
1.763105717E2,-1.097145081E-1,-1.439118385E-1,3.514423370E-1
1.768105717E2,-8.464236259E-1,2.392593622E-1,3.416919708E-2
1.773105717E2,-4.632587433E-1,1.014007330E-1,2.378606796E-1
1.778105717E2,-6.530952454E-2,-1.611588001E-1,1.688957214E-1
1.783105717E2,3.786096573E-1,-1.840896606E-1,-2.702283859E-1
1.788105717E2,-3.323421478E-1,-7.146072388E-2,3.779230118E-1
1.793105717E2,-2.934930325E-1,-3.368849754E-1,2.626562119E-1
1.798105717E2,-2.448117733E-1,-2.390646935E-2,5.735874176E-2
1.803105717E2,1.360094547E-1,-3.918051720E-2,5.418109894E-2
1.808105717E2,4.156589508E-2,-1.421158314E-1,-1.260757446E-2
1.813105717E2,-4.266905785E-2,-2.120962143E-1,5.954074860E-2
1.818105717E2,5.180239677E-2,3.465080261E-2,4.615116119E-2
1.823105717E2,-1.919507980E-2,8.752322197E-2,-9.881019592E-3
1.828105717E2,-5.455946922E-2,-4.675149918E-3,8.197307587E-2
1.833105717E2,6.525564194E-2,-2.085208893E-3,-1.187162399E-1
1.838105717E2,4.264140129E-2,-6.086945534E-2,-4.972743988E-2
1.843105717E2,-9.647727013E-2,-1.097278595E-1,5.967521667E-2
1.848105717E2,1.062896252E-1,1.672482491E-2,-1.460962296E-1
1.853105717E2,7.686328888E-2,1.770932317E0,1.446533203E-1
1.858105717E2,-4.967546463E-2,1.591645598E0,-1.436424255E-1
1.863105717E2,3.397850990E-1,4.963488579E-1,2.307062149E-1
1.868105717E2,1.251902580E-1,5.823099613E-1,-1.583814621E-1
1.873105717E2,7.082986832E-2,1.014070511E-1,1.162424088E-1
1.878105717E2,-3.355646133E-2,1.101981401E-1,-8.728408813E-2
1.883105717E2,1.671791077E-2,-3.865933418E-2,4.247474670E-2
1.888105717E2,-5.397796631E-4,3.706097603E-2,-6.761264801E-2
1.893105717E2,4.531431198E-2,-2.982687950E-2,2.784729004E-2
1.898105717E2,-7.501935959E-2,2.358710766E-2,-4.016590118E-2
1.903105717E2,-3.436994553E-2,-2.549767494E-3,1.444625854E-2
1.908105717E2,-2.255153656E-2,2.330613136E-2,-1.062583923E-2
1.913105717E2,4.581403732E-2,5.168437958E-3,-6.253337860E-2
1.918105717E2,-2.728033066E-2,-2.073740959E-2,5.103397369E-2
1.923105717E2,-9.333133698E-3,2.141690254E-2,-9.451866150E-3
1.928105717E2,2.088594437E-2,8.687496185E-3,-3.346443176E-3
1.933105717E2,-1.120328903E-2,-1.290678978E-2,-4.377365112E-4
1.938105717E2,2.181720734E-2,1.173424721E-2,3.436088562E-3
1.943105717E2,5.620336533E-2,-1.823234558E-2,2.991676331E-3
1.948105717E2,-9.107589722E-4,-4.606723785E-3,-5.082130432E-2
1.953105717E2,2.550554276E-2,-2.564859390E-2,-5.341529846E-3
1.958105717E2,2.083158493E-2,3.774166107E-4,-2.031993866E-2
1.963105717E2,1.080465317E-2,2.045798302E-2,-9.006500244E-3
1.968105717E2,-3.165721893E-3,9.831666946E-3,5.785942078E-3
1.973105717E2,-9.871959686E-3,4.869818687E-2,1.183509827E-3
1.978105717E2,-9.095191956E-3,-3.698706627E-2,-7.421493530E-3
1.983105717E2,3.347635269E-2,-2.455520630E-2,1.992321014E-2
1.988105717E2,-1.602983475E-2,-1.252150536E-2,6.999015808E-3
1.993105717E2,-3.879833221E-2,6.467580795E-3,-1.093387604E-2
1.998105717E2,-5.037784576E-3,1.199197769E-2,-5.309009552E-2
2.003105717E2,6.742954254E-3,3.438556194E-2,-4.577159882E-2
2.008105717E2,-2.854156494E-2,2.005541325E-2,-2.683639526E-3
2.013105717E2,2.435541153E-2,1.407815218E-1,1.020050049E-2
2.018105717E2,6.736993790E-2,2.812377214E-1,-2.927780151E-4
2.023105717E2,-3.744745255E-2,9.473097324E-2,5.751609802E-3
2.028105717E2,-8.496093750E-2,2.117962837E-1,-1.316156387E-1
2.033105717E2,4.037523270E-2,2.623676062E-1,2.232074738E-2
2.038105717E2,6.475973129E-2,2.948611975E-2,-3.029823303E-3
2.043105717E2,-3.882646561E-2,-7.626867294E-2,-8.847332001E-2
2.048105717E2,2.648353577E-2,9.925723076E-2,-1.243686676E-1
2.053105717E2,1.710214615E-1,-7.778060436E-2,6.021785736E-2
2.058105717E2,-7.904481888E-2,9.790349007E-2,-7.543087006E-2
2.063105717E2,-4.547643661E-2,-1.249469519E-1,-6.129932404E-2
2.068105717E2,1.120085716E-1,-6.765925884E-2,-1.602077484E-2
2.073105717E2,-1.931953430E-2,-5.261635780E-2,-9.813976288E-2
2.078105717E2,8.887290955E-2,-1.138014793E-1,4.211616516E-2
2.083105717E2,-7.754182816E-2,3.142988682E-2,-4.756164551E-2
2.088105717E2,-7.000446320E-2,7.507920265E-3,9.038352966E-2
2.093105717E2,-3.153753281E-2,-2.249896526E-2,1.930799484E-1
2.098105717E2,-4.224920273E-2,-1.812255383E-2,1.034135818E-1
2.103105717E2,-1.451427937E-1,2.146708965E-2,8.097171783E-2
2.108105717E2,-2.509124279E-1,-9.842848778E-2,-1.577568054E-2
2.113105717E2,-1.204655170E-1,-3.562986851E-2,-4.384899139E-2
2.118105717E2,-1.516809464E-1,-1.180108786E-1,9.892749786E-2
2.123105717E2,-2.139353752E-2,7.212293148E-2,-2.693367004E-2
2.128105717E2,6.984591484E-2,-5.011439323E-2,6.678104401E-2
2.133105717E2,6.503677368E-2,-2.991235256E-2,1.179189682E-1
2.138105717E2,-1.179516315E-1,6.068003178E-2,-6.092929840E-2
2.143105717E2,1.073408127E-2,-3.333210945E-2,3.011608124E-2
2.148105717E2,1.040134430E-1,-7.783186436E-2,9.939098358E-2
2.153105717E2,2.216944695E-1,-1.374228001E-1,1.425352097E-1
2.158105717E2,1.003789902E-1,-1.306486130E-1,1.056518555E-1
2.163105717E2,-7.053613663E-2,-1.839518547E-1,-1.577863693E-1
2.168105717E2,-1.420288086E-1,-6.184183359E-1,-9.645938873E-2
2.173105717E2,-3.023386002E-2,-2.008731365E-1,-1.656818390E-2
2.178105717E2,-7.217121124E-2,-6.075859070E-3,-1.440954208E-1
2.183105717E2,2.237415314E-2,-1.281268597E-1,2.931718826E-1
2.188105717E2,-1.048531532E-1,6.789803505E-2,-2.000951767E-1
2.193105717E2,1.619486809E-1,-6.233286858E-2,4.070758820E-2
2.198105717E2,2.009868622E-3,4.299020767E-2,-4.023742676E-2
2.203105717E2,1.315116882E-2,2.056193352E-2,-2.654075623E-3
2.208105717E2,3.406476974E-2,2.899408340E-3,-6.554317474E-2
2.213105717E2,-5.225181580E-3,-4.496216774E-2,6.889057159E-2
2.218105717E2,-8.063983917E-2,-1.622104645E-1,-4.588794708E-2
2.223105717E2,4.742527008E-2,-3.067045212E-1,2.443790436E-2
2.228105717E2,-6.880331039E-2,-1.567523479E-1,-9.845733643E-2
2.233105717E2,4.068708420E-2,-5.420494080E-2,2.352714539E-2
2.238105717E2,1.035890579E-1,-1.026377678E-1,-1.792168617E-1
2.243105717E2,1.666884422E-1,3.071727753E-1,6.731796265E-2
2.248105717E2,-5.193471909E-2,2.683207989E-1,1.009283066E-1
2.253105717E2,-1.479825974E-1,1.632404327E-1,1.713447571E-1
2.258105717E2,-4.959630966E-2,3.150868416E-2,7.937717438E-2
2.263105717E2,2.976322174E-2,1.349496841E-2,-4.233360291E-3
2.268105717E2,-1.413910389E-1,-4.991745949E-2,3.109998703E-1
2.273105717E2,-1.018791199E-1,5.263328552E-2,-1.403570175E-1
2.278105717E2,6.897211075E-3,4.187989235E-2,-8.484172821E-2
2.283105717E2,1.815295219E-1,-1.197497845E-1,2.709922791E-1
2.288105717E2,4.213104248E-1,3.528141975E-2,-2.738800049E-1
2.293105717E2,4.073262215E-1,-2.875137329E-2,-2.482233047E-1
2.298105717E2,-5.491256714E-3,4.322266579E-2,-2.056341171E-1
2.303105717E2,1.259479523E-1,3.049302101E-2,-1.440262794E-1
2.308105717E2,7.303762436E-2,-7.946968079E-2,-6.611776352E-2
2.313105717E2,9.792804718E-3,-1.324200630E-2,-1.643967628E-1
2.318105717E2,-4.474496841E-2,-4.806256294E-2,-1.248836517E-2
2.323105717E2,-1.538577080E-1,-8.816480637E-3,1.850996017E-1
2.328105717E2,1.162619591E-1,4.684281349E-2,-1.898136139E-1
2.333105717E2,-1.725578308E-2,-4.386639595E-2,-2.445650101E-2
2.338105717E2,-4.357528687E-2,-3.692531586E-2,5.181169510E-2
2.343105717E2,2.659749985E-2,-9.334564209E-3,4.149913788E-3
2.348105717E2,6.964778900E-2,-4.753327370E-2,-2.782392502E-2
2.353105717E2,-4.999017715E-2,-2.261471748E-2,1.951456070E-2
2.358105717E2,-7.696914673E-2,-2.509021759E-2,4.961538315E-2
2.363105717E2,-7.723665237E-2,3.422474861E-2,-1.046705246E-2
2.368105717E2,-1.093306541E-1,-6.756782532E-4,8.813190460E-2
2.373105717E2,-1.646513939E-1,-2.477359772E-2,2.784013748E-1
2.378105717E2,-1.130228043E-1,2.922201157E-2,7.396697998E-2
2.383105717E2,-1.159343719E-1,9.054768085E-2,-9.123802185E-2
2.388105717E2,-9.795856476E-2,6.443727016E-2,2.717685699E-2
2.393105717E2,4.365301132E-2,-7.673621178E-3,1.041936874E-1
2.398105717E2,4.607963562E-2,3.300940990E-2,-1.022062302E-1
2.403105717E2,2.881288528E-2,-4.688668251E-2,1.629981995E-1
2.408105717E2,3.134393692E-2,-1.886045933E-2,5.344772339E-2
2.413105717E2,-6.318330765E-2,2.019464970E-2,-4.774188995E-2
2.418105717E2,-6.512117386E-2,2.252924442E-2,7.457733154E-3
2.423105717E2,1.000823975E-1,-1.021051407E-2,-5.781841278E-2
2.428105717E2,1.183466911E-1,-4.621505737E-2,-1.963329315E-2
2.433105717E2,-2.759933472E-2,2.369010448E-2,6.839942932E-2
2.438105717E2,-4.884243011E-3,-8.267021179E-2,1.994857788E-1
2.443105717E2,6.641340256E-2,6.328904629E-2,-2.365818024E-1
2.448105717E2,6.255531311E-2,-1.139335632E-1,2.772598267E-1
2.453105717E2,-1.093292236E-1,5.738997459E-2,-1.023263931E-1
2.458105717E2,7.378149033E-2,-1.750500202E-1,1.861677170E-1
2.463105717E2,-1.706528664E-1,-1.287009716E-1,-6.609821320E-2
2.468105717E2,1.500573158E-1,-1.837580204E-1,1.738042831E-1
2.473105717E2,-1.855216026E-1,1.119260788E-1,-3.601274490E-1
2.478105717E2,5.232810974E-2,-4.770970345E-2,1.512727737E-1
2.483105717E2,-1.437292099E-1,1.250658035E-1,-2.219209671E-1
2.488105717E2,7.763195038E-2,-9.663057327E-2,2.387781143E-1
2.493105717E2,-4.877519608E-2,9.888052940E-2,-2.039098740E-1
2.498105717E2,-3.667831421E-3,-5.799365044E-2,1.400842667E-1
2.503105717E2,-1.113591194E-1,2.735733986E-2,-1.224231720E-2
2.508105717E2,-1.806359291E-1,3.765463829E-2,4.930782318E-2
2.513105717E2,-9.620738029E-2,2.114915848E-2,1.374139786E-1
2.518105717E2,-7.093977928E-2,1.223635674E-2,1.073169708E-2
2.523105717E2,-1.295292377E-1,1.990509033E-2,-6.812858582E-2
2.528105717E2,-6.859350204E-2,-1.456761360E-2,5.388259888E-4
2.533105717E2,4.321360588E-2,-2.881622314E-2,1.168584824E-1
2.538105717E2,5.502080917E-2,-4.198813438E-2,2.050876617E-2
2.543105717E2,-8.503508568E-2,-1.142644882E-2,2.183151245E-2
2.548105717E2,1.719655991E-1,-1.007859707E-1,-3.156661987E-4
2.553105717E2,-1.317763329E-2,-2.564191818E-3,-1.116266251E-1
2.558105717E2,4.156994820E-2,-9.839296341E-3,-8.845806122E-2
2.563105717E2,7.450819016E-3,-1.070373058E-1,-5.548667908E-2
2.568105717E2,-1.091599464E-1,-2.103440762E-1,-8.240699768E-3
2.573105717E2,-1.880860329E-2,-2.847158909E-1,1.557006836E-1
2.578105717E2,2.733826637E-2,-3.317618370E-2,-2.335233688E-1
2.583105717E2,4.673743248E-2,-2.625925541E-1,7.030105591E-2
2.588105717E2,1.072454453E-1,-3.435063362E-2,-2.043781281E-1
2.593105717E2,1.742703915E-1,-1.954770088E-2,3.599166870E-2
2.598105717E2,3.909850121E-2,3.976726532E-2,-1.416158676E-1
2.603105717E2,1.553235054E-1,-2.466654778E-2,3.383350372E-2
2.608105717E2,-2.271509171E-2,5.646731853E-1,-1.666688919E-1
2.613105717E2,-4.571437836E-3,1.386783123E-1,1.408548355E-1
2.618105717E2,-4.218316078E-2,-6.860780716E-2,-2.587318420E-3
2.623105717E2,4.030942917E-2,6.923651695E-2,-1.075735092E-1
2.628105717E2,-6.974220276E-2,-6.932306290E-2,1.010704041E-1
2.633105717E2,-3.471374512E-4,9.472346306E-2,3.249454498E-2
2.638105717E2,1.696538925E-2,-1.016132832E-1,1.813793182E-2
2.643105717E2,-7.754278183E-2,-1.387500763E-1,-3.935050964E-2
2.648105717E2,4.515409470E-2,-1.752781868E-2,7.742881775E-3
2.653105717E2,4.357094765E-1,7.613277435E-1,3.265705109E-1
2.658105717E2,1.978139877E-1,1.069151402E0,-1.791925430E-1
2.663105717E2,2.205228806E-1,2.675275803E-1,1.968965530E-1
2.668105717E2,-1.168360710E-1,3.275325298E-1,-1.763954163E-1
2.673105717E2,1.065549850E-1,-7.134222984E-2,1.476774216E-1
2.678105717E2,-2.038335800E-2,4.155659676E-2,-7.473468781E-2
2.683105717E2,1.752901077E-2,-3.450179100E-2,5.098628998E-2
2.688105717E2,-2.919101715E-2,3.598499298E-2,-3.718852997E-2
2.693105717E2,1.454830170E-3,2.625918388E-2,-4.921913147E-3
2.698105717E2,-1.285443306E-1,6.059026718E-2,-1.510906219E-2
2.703105717E2,-4.453659058E-3,-1.915359497E-2,7.496833801E-3
2.708105717E2,-2.869462967E-2,1.452302933E-2,-3.911018372E-3
2.713105717E2,2.142333984E-2,9.248018265E-3,-1.725864410E-2
2.718105717E2,-1.350927353E-2,-1.793313026E-2,1.036739349E-2
2.723105717E2,-3.583097458E-2,4.960298538E-3,2.015399933E-2
2.728105717E2,-2.294301987E-2,3.229832649E-2,-1.712322235E-2
2.733105717E2,2.212047577E-3,-1.120805740E-3,-2.699851990E-3
2.738105717E2,2.952623367E-2,-2.946019173E-2,-1.878547668E-2
2.743105717E2,6.238460541E-3,-4.364180565E-2,3.302860260E-2
2.748105717E2,1.049804688E-2,5.653619766E-3,-7.060050964E-3
2.753105717E2,2.654981613E-2,-2.007079124E-2,3.456974030E-2
2.758105717E2,-2.887630463E-2,-6.611585617E-3,2.599716187E-2
2.763105717E2,3.895759583E-4,1.502776146E-2,-1.892185211E-2
2.768105717E2,2.569723129E-2,1.927852631E-3,-2.261447906E-2
2.773105717E2,-4.075050354E-3,-3.413200378E-3,1.986789703E-2
2.778105717E2,2.582311630E-2,-9.227395058E-2,5.910396576E-2
2.783105717E2,-3.298473358E-2,4.023241997E-2,-7.176303864E-2
2.788105717E2,-1.047372818E-2,9.780168533E-3,1.017665863E-2
2.793105717E2,1.207351685E-2,1.511740685E-2,-3.161048889E-2
2.798105717E2,1.142091751E-1,1.687269211E-1,1.809778214E-1
2.803105717E2,-1.113414764E-2,2.482224703E-1,-8.006095886E-3
2.808105717E2,1.040506363E-2,-6.752669811E-2,5.316829681E-2
2.813105717E2,-3.360700607E-2,-3.376591206E-2,-3.343105316E-2
2.818105717E2,8.727359772E-2,-5.598855019E-2,-3.060054779E-2
2.823105717E2,-4.208898544E-2,-9.349989891E-2,8.295154572E-2
2.828105717E2,-9.438180923E-2,-2.364325523E-2,-5.077266693E-2
2.833105717E2,1.293807030E-1,5.903255939E-2,8.732700348E-2
2.838105717E2,9.761190414E-2,3.589679003E-1,-7.233905792E-2
2.843105717E2,1.311163902E-1,1.131135225E-1,4.753398895E-2
2.848105717E2,-2.619504929E-2,1.312233210E-1,-5.635452271E-2
2.853105717E2,9.218215942E-2,7.924532890E-2,1.195335388E-1
2.858105717E2,-7.123517990E-2,1.168727875E-1,-1.092233658E-1
2.863105717E2,-5.479240417E-2,2.282059193E-2,3.821372986E-3
2.868105717E2,-5.016660690E-2,-1.967155933E-2,1.293325424E-1
2.873105717E2,1.638269424E-2,1.060975790E-1,-5.933094025E-2
2.878105717E2,8.041810989E-2,-9.057497978E-2,1.364326477E-1
2.883105717E2,-1.481246948E-1,1.957588792E-1,-9.362506866E-2
2.888105717E2,1.302042007E-1,-3.704845905E-2,2.768039703E-2
2.893105717E2,1.387262344E-1,-1.338711977E-1,-1.057357788E-1
2.898105717E2,-2.889013290E-2,-2.668309212E-2,-7.214641571E-2
2.903105717E2,-1.176161766E-1,1.261901855E-2,7.771396637E-2
2.908105717E2,-3.081893921E-2,-7.335913181E-2,1.363201141E-1
2.913105717E2,-1.252264977E-1,3.711938858E-3,-2.030839920E-1
2.918105717E2,5.652189255E-2,-1.052042246E-1,1.438083649E-1
2.923105717E2,6.912088394E-2,3.027069569E-2,-1.996936798E-1
2.928105717E2,1.076955795E-1,-3.499174118E-2,-1.137113571E-1
2.933105717E2,-5.860710144E-2,-1.916164160E-1,-4.985237122E-2
2.938105717E2,-1.416420937E-1,-1.850351095E-1,-2.010812759E-1
2.943105717E2,-9.237527847E-2,-3.160588741E-1,1.773538589E-1
2.948105717E2,-3.289194107E-1,-1.026010513E-2,-1.322460175E-2
2.953105717E2,-6.664109230E-2,-7.258296013E-2,2.088623047E-1
2.958105717E2,-2.185947895E-1,9.330511093E-3,2.049064636E-2
2.963105717E2,-7.456398010E-2,-6.599068642E-2,1.359710693E-1
2.968105717E2,-1.138219833E-1,4.659819603E-2,-1.050691605E-1
2.973105717E2,2.283930779E-2,-2.052831650E-2,-8.715057373E-2
2.978105717E2,6.126856804E-2,-5.571508408E-2,4.535293579E-2
2.983105717E2,2.890839577E-1,-4.071784019E-2,-1.154289246E-1
2.988105717E2,2.284717560E-2,-4.116725922E-2,8.155822754E-3
2.993105717E2,7.761812210E-2,-2.888011932E-2,-3.063678741E-2
2.998105717E2,1.780700684E-1,-1.194393635E-1,2.882299423E-1
3.003105717E2,-2.119064331E-3,-1.527738571E-2,-4.820346832E-2
3.008105717E2,-1.074519157E-1,7.772302628E-2,-1.201610565E-1
3.013105717E2,8.834314346E-2,-8.158373833E-2,1.766958237E-1
3.018105717E2,1.652479172E-2,6.564259529E-2,-1.528053284E-1
3.023105717E2,8.491706848E-2,-1.152586937E-1,1.407365799E-1
3.028105717E2,8.834362030E-3,1.494240761E-2,-7.966995239E-2
3.033105717E2,7.394409180E-2,-8.228421211E-2,8.901786804E-2
3.038105717E2,-1.162772179E-1,-9.852170944E-3,-1.087951660E-2
3.043105717E2,6.226778030E-2,-1.353371143E-1,-7.804870605E-2
3.048105717E2,-1.291999817E-1,-3.118777275E-2,-6.563091278E-2
3.053105717E2,-2.323484421E-2,5.053281784E-2,2.166748047E-2
3.058105717E2,-5.329990387E-2,6.919980049E-2,-2.587709427E-1
3.063105717E2,-7.855272293E-2,6.568527222E-2,-1.676349640E-1
3.068105717E2,1.538348198E-1,-1.024715900E-1,1.532487869E-1
3.073105717E2,6.872558594E-2,-1.001188755E-1,6.194782257E-2
3.078105717E2,3.067827225E-2,2.012441158E-1,4.614639282E-2
3.083105717E2,1.574797630E-1,1.082093716E-1,1.147985458E-1
3.088105717E2,4.275131226E-2,1.045339108E-1,2.896595001E-2
3.093105717E2,5.014944077E-2,-4.067897797E-3,5.260848999E-2
3.098105717E2,9.926795959E-3,4.402828217E-2,-3.513813019E-2
3.103105717E2,-9.801816940E-2,-1.257061958E-2,-3.457546234E-2
3.108105717E2,-4.578733444E-2,-1.982741356E-1,1.972675323E-2
3.113105717E2,-1.437993050E-1,1.643037796E-2,-1.512260437E-1
3.118105717E2,2.753257751E-3,-1.021814346E-1,5.791950226E-2
3.123105717E2,-4.828500748E-2,4.498293400E-1,9.243106842E-2
3.128105717E2,-1.401281357E-2,3.413827419E-1,-1.702451706E-1
3.133105717E2,1.068320274E-1,4.463658333E-1,6.347274780E-2
3.138105717E2,4.043722153E-2,3.595200777E-1,-1.330518723E-1
3.143105717E2,2.861928940E-2,1.635704041E-1,4.503726959E-2
3.148105717E2,3.233623505E-2,2.235935926E-1,-1.010093689E-1
3.153105717E2,8.682918549E-2,1.992046833E-2,-3.334999084E-3
3.158105717E2,-3.654956818E-3,1.022994518E-1,-8.736705780E-2
3.163105717E2,-4.544496536E-2,-2.181088924E-1,1.389064789E-1
3.168105717E2,-2.323288918E-1,-1.343238354E-2,1.923561096E-3
3.173105717E2,-2.843284607E-2,7.555854321E-2,-1.983795166E-1
3.178105717E2,-1.588363647E-1,1.823405027E-1,-2.444047928E-1
3.183105717E2,2.657365799E-2,-1.058297157E-1,3.647108078E-1
3.188105717E2,-2.959251404E-2,5.774915218E-2,-1.932363510E-1
3.193105717E2,6.146764755E-2,-1.154351234E-1,-1.676082611E-1
3.198105717E2,1.042625427E0,-7.606874704E-1,-5.115489960E-1
3.203105717E2,2.654213905E-1,-3.995234966E-1,1.793937683E-1
3.208105717E2,-7.452747822E-1,-7.223062515E-1,1.960887909E-1
3.213105717E2,9.835958481E-1,-1.242094785E-1,-5.304698944E-1
3.218105717E2,1.273429155E0,-1.150848031E0,-2.171773911E-1
3.223105717E2,-1.074267626E0,-5.802669525E-1,5.839719772E-1
3.228105717E2,-1.390176773E0,6.234565973E-1,-3.482151031E-2
3.233105717E2,-2.149555683E-1,-5.081210136E-1,8.784894943E-1
3.238105717E2,-4.333837032E-1,-7.528263330E-1,-4.176712036E-2
3.243105717E2,-1.009244919E-1,-6.213207245E-1,6.276035309E-2
3.248105717E2,-1.185586452E-1,-2.062137127E-1,-7.443237305E-2
3.253105717E2,1.306486130E-2,1.688301563E-1,8.223533630E-3
3.258105717E2,7.530450821E-2,1.650238037E-1,2.328109741E-2
3.263105717E2,1.069316864E-1,6.987142563E-2,1.242895126E-1
3.268105717E2,1.495823860E-1,-9.198904037E-3,-2.131175995E-2
3.273105717E2,1.353077888E-1,-8.290052414E-3,5.618476868E-2
3.278105717E2,6.727170944E-2,1.710778475E-1,-9.741020203E-2
3.283105717E2,1.445355415E-1,-5.358719826E-2,2.005681992E-1
3.288105717E2,1.555218697E-1,-2.815413475E-2,-1.259632111E-1
3.293105717E2,-1.167521477E-1,2.008175850E-2,-1.771674156E-1
3.298105717E2,6.819343567E-2,-1.248843670E-1,3.131103516E-2
3.303105717E2,7.127666473E-2,-1.171519756E-1,-1.958146095E-1
3.308105717E2,5.632829666E-2,-9.397721291E-2,-1.295452118E-1
3.313105717E2,-1.869630814E-2,-1.006653309E-1,-1.912593842E-1
3.318105717E2,1.406974792E-1,-2.556834221E-1,-5.165100098E-3
3.323105717E2,7.430553436E-2,-1.869134903E-1,1.077928543E-1
3.328105717E2,-1.203608513E-1,-2.738642693E-2,-2.064599991E-1
3.333105717E2,-2.968263626E-2,-1.673209667E-1,2.728624344E-1
3.338105717E2,-2.577166557E-1,1.799132824E-1,-2.404093742E-1
3.343105717E2,-4.253807068E-1,-1.896619797E-3,3.400964737E-1
3.348105717E2,-3.706612587E-1,4.182651043E-1,2.374715805E-1
3.353105717E2,-1.187949181E-1,1.081453562E-1,1.391677856E-1
3.358105717E2,2.566990852E-1,3.029558659E-1,-2.775716782E-1
3.363105717E2,5.780048370E-1,-2.752734423E-1,2.617549896E-1
3.368105717E2,-7.202816010E-2,2.131041288E-1,-4.655017853E-1
3.373105717E2,4.409313202E-3,-4.305732250E-2,-9.107589722E-4
3.378105717E2,2.353525162E-2,4.355132580E-2,-4.678726196E-3
3.383105717E2,-1.236524582E-1,3.757929802E-2,-1.801280975E-1
3.388105717E2,-2.827868462E-1,-3.457748890E-2,3.160190582E-2
3.393105717E2,1.193842888E-1,-1.419296265E-1,2.559108734E-1
3.398105717E2,1.011610031E-2,1.617205143E-2,-2.171010971E-1
3.403105717E2,-4.042053223E-2,2.120745182E-2,-6.151485443E-2
3.408105717E2,-2.068753242E-1,-4.681694508E-2,2.773971558E-1
3.413105717E2,1.375150681E-1,-2.360486984E-2,-4.880809784E-2
3.418105717E2,-5.995845795E-2,-2.345407009E-2,-2.325344086E-2
3.423105717E2,-2.878141403E-2,-1.239533424E-1,-3.890228271E-2
3.428105717E2,-3.977727890E-2,-1.445887089E-1,1.450824738E-2
3.433105717E2,9.781742096E-2,-1.848816872E-2,-3.581047058E-2
3.438105717E2,-2.953195572E-2,-6.562161446E-2,6.726264954E-3
3.443105717E2,-6.723070145E-2,-4.403519630E-2,-5.104064941E-3
3.448105717E2,-8.441829681E-2,4.280829430E-2,-8.776187897E-2
3.453105717E2,1.007142067E-1,-1.624109745E-1,-5.133914948E-2
3.458105717E2,-1.098823547E-2,-3.537294865E-1,2.025985718E-2
3.463105717E2,-7.823944092E-3,-1.101365089E-1,-2.263689041E-1
3.468105717E2,-2.665519714E-4,-3.353791237E-1,-1.092214584E-1
3.473105717E2,5.967330933E-2,-2.051079273E-1,5.454063416E-3
3.478105717E2,-1.310279369E-1,4.343461990E-2,-1.236629486E-2
3.483105717E2,-1.643776894E-2,2.550363541E-2,-8.193016052E-3
3.488105717E2,5.655598640E-2,-1.758952141E-1,6.794166565E-2
3.493105717E2,-3.410005569E-2,-5.775833130E-2,-3.623104095E-2
3.498105717E2,8.449864388E-2,3.028011322E-2,1.313562393E-1
3.503105717E2,5.309629440E-2,1.521985531E-1,-1.038379669E-1
3.508105717E2,7.697343826E-2,-1.155352592E-2,2.821016312E-1
3.513105717E2,-7.469677925E-2,2.293398380E-1,-1.263656616E-1
3.518105717E2,1.498370171E-1,-2.909088135E-2,1.514396667E-1
3.523105717E2,-5.900430679E-2,-6.842112541E-2,-7.794380188E-2
3.528105717E2,-3.710269928E-3,8.471388817E-1,2.030839920E-1
3.533105717E2,1.315164566E-2,8.026316166E-1,-1.586065292E-1
3.538105717E2,1.431789398E-1,1.277419686E0,2.674760818E-1
3.543105717E2,1.499738693E-1,1.599215031E0,-1.979370117E-1
3.548105717E2,1.043801308E-1,5.117002130E-1,4.967880249E-2
3.553105717E2,-2.049231529E-1,3.307040334E-1,-8.094787598E-2
3.558105717E2,-3.734302521E-2,1.353467703E-1,1.892700195E-1
3.563105717E2,-4.979515076E-2,-1.136081815E-1,1.036672592E-1
3.568105717E2,-2.197453976E-1,-2.662324905E-2,-8.246994019E-2
3.573105717E2,-4.299783707E-1,-6.107784510E-1,3.979377747E-1
3.578105717E2,-1.018146276E0,-4.045820236E-1,6.804943085E-2
3.583105717E2,-4.169294834E-1,-4.169833660E-1,2.741308212E-1
3.588105717E2,-3.159971237E-1,-1.891418695E-1,-1.497278214E-1
3.593105717E2,-6.558871269E-2,-2.940793037E-1,1.542568207E-2
3.598105717E2,-1.316020489E-1,-1.712098122E-1,-1.957826614E-1
3.603105717E2,-1.000835896E-1,-1.366436481E-2,-2.369651794E-1
3.608105717E2,-4.471778870E-3,1.979172230E-2,3.869342804E-2
3.613105717E2,8.373961449E-1,-6.365144253E-2,-4.668712616E-1
3.618105717E2,-6.969952583E-2,-8.172214031E-2,-8.758163452E-2
3.623105717E2,1.026726007E0,4.129505157E-2,-4.528446198E-1
3.628105717E2,1.040520430E0,-8.114337921E-3,-4.516410828E-1
3.633105717E2,2.826800346E-1,-1.886427402E-2,-3.925228119E-2
3.638105717E2,-4.840278625E-2,6.736981869E-2,-7.824897766E-3
3.643105717E2,1.890954971E-1,8.445978165E-3,1.512527466E-3
3.648105717E2,2.304887772E-2,4.500257969E-2,-2.064704895E-3
3.653105717E2,-1.290454865E-1,4.923975468E-2,-3.760433197E-2
3.658105717E2,-1.097359657E-1,-1.027420759E-1,-1.070690155E-1
3.663105717E2,7.646083832E-2,-7.232427597E-4,-2.923870087E-2
3.668105717E2,-2.706766129E-2,8.075594902E-3,-5.577850342E-2
3.673105717E2,6.526279449E-2,-3.657364845E-2,-1.413249969E-2
3.678105717E2,-1.508889198E-1,2.010047436E-1,-1.805992126E-1
3.683105717E2,-2.299747467E-1,-5.479216576E-2,3.532371521E-1
3.688105717E2,-1.444392204E-1,7.603216171E-2,2.176189423E-2
3.693105717E2,-2.015595436E-1,9.879398346E-2,-6.726646423E-2
3.698105717E2,7.693767548E-3,2.300310135E-2,-2.126064301E-1
3.703105717E2,1.731948853E-1,3.445196152E-2,-2.379102707E-1
3.708105717E2,-1.190714836E-1,3.002822399E-2,1.680574417E-1
3.713105717E2,-1.092057228E-1,1.109430790E-1,-2.175092697E-1
3.718105717E2,-2.435696125E-1,1.123404503E-2,7.116985321E-2
3.723105717E2,1.546683311E-1,-1.373398304E-2,1.840829849E-1
3.728105717E2,-1.409387589E-2,-9.592354298E-2,7.108306885E-2
3.733105717E2,3.876013756E-1,-6.661581993E-1,5.129680634E-1
3.738105717E2,1.276102066E-1,-5.283015966E-1,-3.189649582E-1
3.743105717E2,-5.786323547E-2,-5.049769878E-1,1.178607941E-1
3.748105717E2,5.303812027E-2,-1.048264503E-1,-2.645111084E-2
3.753105717E2,1.229429245E-2,-6.539583206E-2,-7.664775848E-2
3.758105717E2,3.826618195E-3,-4.164814949E-2,-1.749897003E-2
3.763105717E2,-4.819250107E-2,-2.726674080E-2,4.879665375E-2
3.768105717E2,4.036855698E-2,-4.710578918E-2,2.547931671E-2
3.773105717E2,-1.348161697E-2,-4.551529884E-2,2.003097534E-2
3.778105717E2,1.254081726E-2,1.700782776E-2,-3.189182281E-2
3.783105717E2,9.621095657E-2,-1.005940437E-1,9.717273712E-2
3.788105717E2,-3.609132767E-2,7.941341400E-2,-1.209573746E-1
3.793105717E2,1.242570877E-1,-9.741091728E-2,2.382612228E-1
3.798105717E2,2.872753143E-2,-1.673054695E-2,-1.092948914E-1
3.803105717E2,-5.820703506E-2,-2.414059639E-1,2.699565887E-2
3.808105717E2,-8.639335632E-2,-1.155686378E-1,-1.972351074E-1
3.813105717E2,7.309865952E-2,1.417491436E-1,6.869792938E-2
3.818105717E2,-1.171455383E-1,-8.209037781E-2,-1.510381699E-1
3.823105717E2,-1.214218140E-2,-2.920389175E-2,1.384830475E-2
3.828105717E2,-1.204504967E-1,-9.972214699E-2,-3.151416779E-2
3.833105717E2,-1.218433380E-1,-2.727134228E-1,-2.046122551E-1
3.838105717E2,-1.008188725E-1,-2.330427170E-1,5.864810944E-2
3.843105717E2,-9.657859802E-3,2.816200256E-3,-7.800579071E-2
3.848105717E2,7.313871384E-2,-3.677082062E-2,1.035451889E-1
3.853105717E2,7.215762138E-2,-2.491488457E-1,-1.145577431E-1
3.858105717E2,8.520030975E-2,9.622573853E-3,1.427555084E-2
3.863105717E2,1.166510582E-1,1.912629604E-1,1.372117996E-1
3.868105717E2,4.449033737E-2,3.294095993E-1,1.776599884E-2
3.873105717E2,7.576990128E-2,1.385951042E-1,9.749507904E-2
3.878105717E2,3.019285202E-2,1.556549072E-1,9.146690369E-3
3.883105717E2,-2.257776260E-2,1.144576073E-2,-2.202510834E-2
3.888105717E2,1.590299606E-2,2.204656601E-3,-6.585502625E-2
3.893105717E2,1.137318611E-1,-4.401493073E-2,-2.256488800E-2
3.898105717E2,-9.391927719E-2,6.645679474E-3,-2.926540375E-2
3.903105717E2,7.957029343E-2,2.595927715E-1,1.383562088E-1
3.908105717E2,5.799818039E-2,2.144329548E-1,-5.492496490E-2
3.913105717E2,1.334080696E-1,7.053744793E-1,2.366914749E-1
3.918105717E2,4.908323288E-2,1.241718054E0,-1.345682144E-1
3.923105717E2,2.805919647E-1,6.166541576E-1,1.685628891E-1
3.928105717E2,-9.175491333E-2,3.166690469E-1,-2.253513336E-1
3.933105717E2,2.449369431E-2,2.317693830E-1,1.879310608E-1
3.938105717E2,-5.477428436E-2,2.948173285E-1,-4.020881653E-2
3.943105717E2,2.963128090E-1,-1.885817051E-1,2.076025009E-1
3.948105717E2,1.497235298E-1,-2.473325729E-1,-2.165336609E-1
3.953105717E2,1.509666443E-3,-1.456000805E-1,-8.767795563E-2
3.958105717E2,4.731655121E-2,-6.003105640E-2,1.357326508E-1
3.963105717E2,-2.360415459E-1,-1.567140818E-1,-1.023864746E-2
3.968105717E2,-1.562681198E-1,9.497368336E-2,-1.361875534E-1
3.973105717E2,-1.998357773E-1,-1.521201134E-1,3.186216354E-1
3.978105717E2,4.170179367E-2,6.470072269E-2,-1.751041412E-2
3.983105717E2,-1.321263313E-1,4.610335827E-2,-1.784038544E-2
3.988105717E2,-4.126739502E-2,5.122864246E-2,-2.674579620E-2
3.993105717E2,-1.531934738E-2,-1.389513016E-1,-9.495735168E-3
3.998105717E2,-2.146911621E-2,-1.107873917E-1,5.351924896E-2
4.003105717E2,3.462033272E-1,-1.606812477E-1,-1.027011871E-2
4.008105717E2,-1.473355293E-1,-1.071858406E-2,-6.756496429E-2
4.013105717E2,-2.505064011E-2,-2.594256401E-2,-5.646705627E-3
4.018105717E2,6.185102463E-2,-8.960783482E-2,2.003850937E-1
4.023105717E2,-1.984834671E-2,3.051531315E-2,-1.211004257E-1
4.028105717E2,2.139148712E-1,-6.955480576E-2,6.147480011E-2
4.033105717E2,-1.530742645E-2,4.639911652E-2,-1.516647339E-1
4.038105717E2,1.366138458E-3,1.326787472E-1,1.810932159E-2
4.043105717E2,-5.818128586E-2,-5.675804615E-2,-8.844184875E-2
4.048105717E2,-1.544799805E-1,7.634162903E-3,-2.005672455E-2
4.053105717E2,-2.417182922E-2,-1.395797729E-2,9.267520905E-2
4.058105717E2,4.283666611E-2,-5.167198181E-2,3.519344330E-2
4.063105717E2,-8.887434006E-2,7.928419113E-2,-1.495733261E-1
4.068105717E2,-1.320886612E-2,5.955338478E-3,3.409767151E-2
4.073105717E2,5.816841125E-2,-7.725119591E-3,-2.065372467E-2
4.078105717E2,3.396511078E-3,7.279777527E-2,-1.462287903E-1
4.083105717E2,-6.480264664E-2,-4.871439934E-2,1.376380920E-1
4.088105717E2,4.055738449E-2,-4.589438438E-3,-1.041355133E-1
4.093105717E2,1.118984222E-1,-1.093851328E-1,2.980957031E-1
4.098105717E2,-2.364072800E-1,1.380523443E-1,-2.884817123E-1
4.103105717E2,2.590441704E-1,-2.837214470E-1,6.208896637E-1
4.108105717E2,-6.753873825E-2,2.458229065E-1,-5.022411346E-1
4.113105717E2,9.273672104E-2,-9.558987617E-2,2.148103714E-1
4.118105717E2,8.487844467E-2,4.204380512E-2,-2.242202759E-1
4.123105717E2,-2.606630325E-2,-6.125092506E-3,1.375350952E-1
4.128105717E2,2.054738998E-2,-9.121775627E-2,4.011631012E-2
4.133105717E2,-1.200642586E-1,1.358046532E-1,-2.981996536E-1
4.138105717E2,-4.081249237E-2,-5.093157291E-2,1.480436325E-1
4.143105717E2,-1.111779213E-1,7.149422169E-2,-2.029075623E-1
4.148105717E2,1.561565399E-1,-1.374666691E-1,2.888984680E-1
4.153105717E2,3.242015839E-3,4.913294315E-2,-9.943962097E-2
4.158105717E2,8.001899719E-2,-1.029748917E-1,1.617755890E-1
4.163105717E2,-3.260946274E-2,6.675779819E-2,-1.358404160E-1
4.168105717E2,6.650543213E-2,-4.597353935E-2,7.080173492E-2
4.173105717E2,-8.486175537E-2,7.599854469E-2,-2.054290771E-1
4.178105717E2,1.593542099E-2,-8.002614975E-2,1.726436615E-1
4.183105717E2,-2.626075745E-1,2.216471434E-1,-4.664864540E-1
4.188105717E2,1.714024544E-1,-1.481769085E-1,2.366952896E-1
4.193105717E2,-6.935167313E-2,6.707429886E-2,-2.017736435E-1
4.198105717E2,-1.041150093E-1,4.724764824E-2,-8.318805695E-2
4.203105717E2,7.032346725E-2,-8.450865746E-2,1.424894333E-1
4.208105717E2,-1.162981987E-1,1.201888323E-1,-2.427778244E-1
4.213105717E2,-2.217769623E-3,-7.220482826E-2,2.289667130E-1
4.218105717E2,5.314111710E-2,-1.729702950E-2,-5.578136444E-2
4.223105717E2,3.490924835E-3,6.252217293E-2,-8.229541779E-2
4.228105717E2,-7.532167435E-2,7.197356224E-2,-1.063394547E-1
4.233105717E2,-9.542608261E-2,-3.068423271E-2,1.068019867E-2
4.238105717E2,1.412382126E-1,-4.299521446E-2,8.196163177E-2
4.243105717E2,-1.363005638E-1,1.395175457E-1,-1.989555359E-1
4.248105717E2,1.252498627E-1,-1.981594563E-1,4.024391174E-1
4.253105717E2,-2.908549309E-1,2.368644476E-1,-5.125322342E-1
4.258105717E2,-7.302761078E-3,3.339862823E-2,-3.814792633E-2
4.263105717E2,2.925014496E-2,-3.035783768E-3,-2.749443054E-2
4.268105717E2,2.745294571E-2,-7.895541191E-2,1.417188644E-1
4.273105717E2,-3.339529037E-2,2.816486359E-2,-1.347045898E-1
4.278105717E2,1.419353485E-1,-1.239764690E-1,2.687625885E-1
4.283105717E2,-2.261900902E-1,1.882714033E-1,-3.368444443E-1
4.288105717E2,1.632490158E-1,-2.531604767E-1,6.615142822E-1
4.293105717E2,-2.778291702E-2,1.790875196E-1,-2.943687439E-1
4.298105717E2,1.942734718E-1,-1.302065849E-1,2.766370773E-1
4.303105717E2,4.973554611E-2,-3.403401375E-2,-4.624366760E-3
4.308105717E2,-6.380081177E-4,4.750514030E-2,-1.137876511E-1
4.313105717E2,-4.166650772E-2,2.417445183E-2,-5.936336517E-2
4.318105717E2,6.256628036E-2,3.688025475E-2,-3.773021698E-2
4.323105717E2,-1.159129143E-1,3.748035431E-2,-1.096630096E-1
4.328105717E2,4.584074020E-2,8.608102798E-3,-3.811836243E-3
4.333105717E2,-2.134962082E-1,9.274411201E-2,-3.078069687E-1
4.338105717E2,2.787613869E-1,-3.192477226E-1,5.652647018E-1
4.343105717E2,-8.618452549E-1,2.082290649E-1,-1.266250610E-1
4.348105717E2,-4.599084854E-1,9.050714970E-2,-1.020526886E-2
4.353105717E2,1.821832657E-1,-4.278945923E-2,1.535720825E-1
4.358105717E2,-8.975219727E-2,7.982754707E-2,-1.200113297E-1
4.363105717E2,3.285312653E-2,-1.895308495E-2,4.859542847E-2
4.368105717E2,2.082777023E-1,-7.656836510E-2,1.749114990E-1
4.373105717E2,-5.276679993E-2,4.000949860E-2,-1.762657166E-1
4.378105717E2,5.479288101E-2,-9.515023232E-2,1.791486740E-1
4.383105717E2,-5.223226547E-2,2.192139626E-2,2.228736877E-3
4.388105717E2,-1.119985580E-1,5.579316616E-2,-1.296081543E-1
4.393105717E2,1.980938911E-1,-6.108283997E-3,1.167192459E-1
4.398105717E2,1.047446728E0,-4.196428061E-1,6.995248795E-1
4.403105717E2,1.812076569E-2,7.414555550E-2,-2.906370163E-1
4.408105717E2,-8.192803860E-1,-2.647066116E-2,-2.689418793E-1
4.413105717E2,1.193141937E-2,-1.902557611E-1,-2.458000183E-2
4.418105717E2,6.639385223E-2,-1.588048935E-1,1.718759537E-1
4.423105717E2,-2.629213333E-1,1.558823586E-1,-6.683120728E-1
4.428105717E2,4.440240860E-1,-4.467287064E-1,7.489175797E-1
4.433105717E2,-2.826824188E-1,3.232089281E-1,-7.704463005E-1
4.438105717E2,1.006674767E-1,-3.401341438E-1,4.217853546E-1
4.443105717E2,-6.750726700E-2,1.335923672E-1,-4.991765022E-1
4.448105717E2,1.666350365E-1,-3.330616951E-1,4.230461121E-1
4.453105717E2,-1.009273529E-2,-3.605318069E-2,-3.914632797E-1
4.458105717E2,-2.301216125E-2,-3.784918785E-2,-8.549308777E-2
4.463105717E2,-4.573106766E-2,2.101874352E-2,-2.377862930E-1
4.468105717E2,9.946775436E-2,-1.744580269E-2,8.412170410E-2
4.473105717E2,4.167652130E-2,7.617449760E-2,-8.928394318E-2
4.478105717E2,4.485750198E-2,5.261182785E-3,-3.699302673E-3
4.483105717E2,1.794390678E-1,-9.294199944E-2,2.625713348E-1
4.488105717E2,-1.825094223E-2,1.022276878E-1,-3.111009598E-1
4.493105717E2,6.640958786E-2,-2.382185459E-1,5.005397797E-1
4.498105717E2,-1.830577850E-3,-2.369236946E-2,-2.639007568E-2
4.503105717E2,-9.041023254E-2,3.789544106E-2,-1.527128220E-1
4.508105717E2,1.863117218E-1,-1.868302822E-1,4.014635086E-1
4.513105717E2,-3.058781624E-1,2.969417572E-1,-7.793078423E-1
4.518105717E2,2.286529541E-1,-1.482040882E-1,4.563150406E-1
4.523105717E2,-4.695558548E-2,4.489970207E-2,-1.042776108E-1
4.528105717E2,-5.142879486E-2,2.342436314E-1,-4.188852310E-1
4.533105717E2,-2.592134476E-2,-1.039011478E-1,3.470716476E-1
4.538105717E2,-2.086167336E-1,2.170441151E-1,-4.312272072E-1
4.543105717E2,-7.376861572E-2,-4.670476913E-2,5.892562866E-2
4.548105717E2,-1.869463921E-1,2.141144276E-1,-3.829717636E-1
4.553105717E2,-5.338287354E-2,6.302738190E-2,-7.516193390E-2
4.558105717E2,1.670842171E-1,-5.022311211E-2,1.148414612E-2
4.563105717E2,6.842613220E-3,4.453063011E-2,-1.028060913E-2
4.568105717E2,6.386613846E-2,-6.632351875E-2,1.482639313E-1
4.573105717E2,-1.649303436E-1,1.596453190E-1,-4.712071419E-1
4.578105717E2,1.322836876E-1,-1.373054981E-1,4.111423492E-1
4.583105717E2,1.262040138E-1,-2.175319195E-1,3.641366959E-1
4.588105717E2,-3.552937508E-1,3.448390961E-1,-1.006275654E0
4.593105717E2,-2.503385544E-1,2.292404175E-1,-2.927350998E-1
4.598105717E2,3.878235817E-1,-1.839296818E-1,4.739818573E-1
4.603105717E2,-5.007882118E-1,5.082784891E-1,-1.261126995E0
4.608105717E2,2.496724129E-1,-3.564648628E-1,9.226436615E-1
4.613105717E2,-1.251282692E-1,2.873635292E-2,-3.266220093E-1
4.618105717E2,-9.142160416E-2,3.294920921E-2,-8.502483368E-2
4.623105717E2,4.142880440E-1,-2.247965336E-1,7.177276611E-1
4.628105717E2,-9.280490875E-2,1.901659966E-1,-3.371410370E-1
4.633105717E2,3.874063492E-2,-1.125524044E-1,2.900857925E-1
4.638105717E2,-1.600074768E-2,7.736682892E-4,8.152866364E-2
4.643105717E2,-1.919925213E-1,6.025123596E-2,-1.602888107E-1
4.648105717E2,7.299804688E-2,-1.261823177E-1,2.323598862E-1
4.653105717E2,-7.470273972E-2,1.015565395E-1,-2.614526749E-1
4.658105717E2,4.726409912E-2,-6.759381294E-2,2.632713318E-2
4.663105717E2,-9.405565262E-2,2.407639027E-1,-7.494983673E-1
4.668105717E2,2.609791756E-1,-9.490227699E-2,1.679191589E-1
4.673105717E2,2.015161514E-2,2.629888058E-1,-4.481549263E-1
4.678105717E2,2.536196709E-1,-2.711606026E-1,2.976026535E-1
4.683105717E2,-1.373553276E-1,2.100973129E-1,-6.175675392E-1
4.688105717E2,-5.074884892E-1,4.188132286E-1,-1.036457062E0
4.693105717E2,1.799569130E-1,-2.530770302E-1,5.216112137E-1
4.698105717E2,-1.183762550E-1,1.731197834E-1,-3.739752769E-1
4.703105717E2,1.011843681E-1,-9.677553177E-2,2.246284485E-1
4.708105717E2,-8.321762085E-2,1.032171249E-1,-2.002210617E-1
4.713105717E2,1.220207214E-1,-3.204522133E-1,7.009525299E-1
4.718105717E2,8.478593826E-2,2.674031258E-2,-1.603584290E-1
4.723105717E2,3.399696350E-1,-2.802932262E-1,6.287202835E-1
4.728105717E2,-7.485294342E-2,2.512931824E-4,-3.400039673E-2
4.733105717E2,-5.880975723E-2,-3.212666512E-2,3.660488129E-2
4.738105717E2,-1.903047562E-1,2.161943913E-1,-4.029684067E-1
4.743105717E2,-9.192085266E-2,9.995436668E-2,-1.443004608E-1
4.748105717E2,6.328153610E-2,-7.302618027E-2,1.414384842E-1
4.753105717E2,-2.315831184E-1,2.525165081E-1,-4.267883301E-1
4.758105717E2,-1.538457870E-1,1.090195179E-1,-2.833909988E-1
4.763105717E2,-2.060937881E-1,2.539196014E-1,-4.210615158E-1
4.768105717E2,-1.941919327E-2,-5.853033066E-2,4.461574554E-2
4.773105717E2,-3.323259354E-1,3.673248291E-1,-7.717175484E-1
4.778105717E2,1.322226524E-1,-2.004804611E-1,5.737648010E-1
4.783105717E2,-5.819320679E-2,6.772065163E-2,-1.275587082E-1
4.788105717E2,-1.718091965E-1,1.679322720E-1,-3.828406334E-1
4.793105717E2,8.938312531E-2,-1.102228165E-1,3.143920898E-1
4.798105717E2,9.003448486E-2,1.562600136E-1,-4.068779945E-1
4.803105717E2,-9.382677078E-2,-1.040940285E-1,9.293937683E-2
4.808105717E2,1.304578781E-2,3.561854362E-2,-1.168031693E-1
4.813105717E2,-5.991029739E-2,7.390260696E-3,-4.406070709E-2
4.818105717E2,1.024842262E-1,-9.619951248E-3,-1.093826294E-1
4.823105717E2,3.029203415E-2,1.556611061E-2,-6.563758850E-2
4.828105717E2,-1.383395195E-1,9.669995308E-2,-8.053588867E-2
4.833105717E2,-3.097438812E-2,2.861499786E-2,-9.851741791E-2
4.838105717E2,5.610799789E-2,-1.210014820E-1,3.763818741E-1
4.843105717E2,1.527571678E-1,-2.849721909E-1,8.647441864E-2
4.848105717E2,-2.535824776E-1,-1.261432171E-1,-2.981891632E-1
4.853105717E2,1.516170502E-1,-3.425889015E-1,3.214168549E-1
4.858105717E2,7.483911514E-2,-1.337997913E-1,2.060985565E-2
4.863105717E2,-3.314182758E-1,3.143954277E-2,5.875301361E-2
4.868105717E2,-2.258598804E-1,-4.277849197E-2,1.095790863E-1
4.873105717E2,-3.038811684E-2,-1.231462955E-1,2.823429108E-1
4.878105717E2,-9.072358608E-1,6.503839493E-1,-1.140475273E0
4.883105717E2,4.652016163E-1,-8.087778091E-1,1.731953621E0
4.888105717E2,-1.220926285E0,9.658905268E-1,-1.840562344E0
4.893105717E2,2.088789940E-1,-5.444095135E-1,1.374579430E0
4.898105717E2,-4.825685024E-1,6.541717052E-1,-1.275522232E0
4.903105717E2,-2.418580055E-1,3.322696686E-2,4.331884384E-1
4.908105717E2,3.415839672E-1,3.371489048E-1,-7.071733475E-1
4.913105717E2,1.233493090E0,-4.448308945E-1,5.826129913E-1
4.918105717E2,4.454183578E-1,7.184028625E-2,-5.556459427E-1
4.923105717E2,9.579157829E-1,-4.498262405E-1,2.955541611E-1
4.928105717E2,3.669648170E-1,-4.352951050E-2,-2.629165649E-1
4.933105717E2,3.522105217E-1,-1.096360683E-1,-3.327770233E-1
4.938105717E2,2.293977737E-1,-5.319571495E-2,-1.834201813E-2
4.943105717E2,1.391873360E-1,3.245592117E-3,-1.141452789E-1
4.948105717E2,-1.811075211E-2,4.873514175E-3,-7.649707794E-2
4.953105717E2,-2.116537094E-2,1.251339912E-2,-1.590600014E-1
4.958105717E2,-1.633605957E-1,7.946181297E-2,-8.413887024E-2
4.963105717E2,5.003213882E-2,-5.194115639E-2,8.011341095E-2
4.968105717E2,-2.355051041E-1,2.252657413E-1,-4.302072525E-1
4.973105717E2,2.455449104E-1,-1.823506355E-1,3.352251053E-1
4.978105717E2,-1.805710793E-1,2.715368271E-1,-4.397654533E-1
4.983105717E2,1.895761490E-2,-8.315563202E-3,1.810798645E-1
4.988105717E2,1.274676323E-1,-7.295370102E-3,-1.641273499E-2
4.993105717E2,-1.056194305E-1,1.195995808E-1,-2.192087173E-1
4.998105717E2,2.159643173E-2,-1.378083229E-2,1.274204254E-2
5.003105717E2,-3.403520584E-2,3.250384331E-2,-3.980922699E-2
5.008105717E2,-1.239633560E-2,1.014568806E-1,-2.145481110E-1
5.013105717E2,7.089471817E-2,-2.050089836E-2,5.760478973E-2
5.018105717E2,-5.810308456E-2,-4.837298393E-2,3.474807739E-2
5.023105717E2,5.789709091E-2,-1.140248775E-1,3.035516739E-1
5.028105717E2,-4.997491837E-2,9.933495522E-2,-2.411260605E-1
5.033105717E2,-1.175928116E-2,-5.081009865E-2,1.027774811E-1
5.038105717E2,1.269316673E-1,-2.317404747E-2,3.341293335E-2
5.043105717E2,-1.429524422E-1,1.456818581E-1,-2.600574493E-1
5.048105717E2,1.300349236E-1,-1.243104935E-1,2.603664398E-1
5.053105717E2,-2.313508987E-1,2.905287743E-1,-5.847172737E-1
5.058105717E2,1.459560394E-1,-2.329590321E-1,5.116605759E-1
5.063105717E2,-1.153097153E-1,1.761159897E-1,-4.065284729E-1
5.068105717E2,1.126909256E-2,-5.134820938E-3,2.710437775E-2
5.073105717E2,5.688047409E-2,2.172613144E-2,-5.522346497E-2
5.078105717E2,1.965780258E-1,-4.797577858E-2,1.755809784E-2
5.083105717E2,-7.466173172E-2,1.509666443E-1,-4.013719559E-1
5.088105717E2,1.798372269E-1,-1.985340118E-1,2.930021286E-1
5.093105717E2,-3.833198547E-1,-3.502047062E-1,-4.828696251E-1
5.098105717E2,5.437135696E-2,-9.710881710E-1,3.179969788E-1
5.103105717E2,-1.815381050E-1,-3.367891312E-1,-3.812470436E-1
5.108105717E2,-1.157813072E-1,-2.885529995E-1,-1.765155792E-2
5.113105717E2,-1.069979668E-1,-4.307866096E-2,-3.337955475E-2
5.118105717E2,3.935146332E-2,-7.181429863E-2,1.051740646E-1
5.123105717E2,-3.013086319E-2,4.518866539E-2,2.554988861E-2
5.128105717E2,2.040920258E-1,2.238948345E-1,3.135786057E-1
5.133105717E2,-7.778024673E-2,3.019559383E-1,-2.132816315E-1
5.138105717E2,-4.398894310E-1,1.984412670E-1,3.709917068E-1
5.143105717E2,-1.396992207E-1,-5.405974388E-2,5.394678116E-1
5.148105717E2,-1.323094368E-1,-1.304628849E-1,-1.255216599E-1
5.153105717E2,-4.543185234E-2,-4.335355759E-2,-3.017969131E-1
5.158105717E2,1.013158083E0,2.237129211E-2,-3.944778442E-2
5.163105717E2,1.061474323E0,6.854748726E-2,-1.058340073E-1
5.168105717E2,1.240008831E0,2.681460381E-1,-4.611830711E-1
5.173105717E2,4.307823181E-1,4.678249359E-3,4.329872131E-2
5.178105717E2,9.758520126E-2,-3.215241432E-2,1.637978554E-1
5.183105717E2,9.478902817E-2,-4.230237007E-2,5.084800720E-2
5.188105717E2,-4.119467735E-1,1.528201103E-1,7.739925385E-2
5.193105717E2,-4.845614433E-1,-7.527589798E-2,4.226989746E-1
5.198105717E2,-3.322072029E-1,-2.350854874E-2,-3.644909859E-1
5.203105717E2,1.678581238E-1,-3.037548065E-1,5.225429535E-1
5.208105717E2,-3.365330696E-1,-7.035379410E-1,-1.747074127E-1
5.213105717E2,-6.067037582E-2,-3.533368111E-1,1.331033707E-1
5.218105717E2,2.784013748E-2,-1.108026505E-1,1.185312271E-1
5.223105717E2,7.812500000E-3,-4.548597336E-2,-1.637997627E-1
5.228105717E2,-4.775631428E-1,-7.012987137E-2,-4.511399269E-1
5.233105717E2,3.849983215E-2,-3.062343597E-2,1.416187286E-1
5.238105717E2,4.875898361E-3,1.160230637E-1,6.257629395E-2
5.243105717E2,4.637098312E-2,1.471908092E-1,-1.823329926E-2
5.248105717E2,3.160715103E-2,1.341314316E-1,-3.430271149E-2
5.253105717E2,4.780054092E-2,5.325412750E-2,1.148700714E-1
5.258105717E2,-6.843090057E-3,-1.199793816E-2,-4.505348206E-2
5.263105717E2,5.969667435E-2,-2.326512337E-2,3.126430511E-2
5.268105717E2,-1.827383041E-2,-3.516221046E-2,-5.605411530E-2
5.273105717E2,-4.020643234E-2,-8.722043037E-2,-7.924079895E-3
5.278105717E2,-1.419925690E-1,1.218234777E0,5.331707001E-2
5.283105717E2,2.395439148E-1,5.446100235E-1,-3.450393677E-2
5.288105717E2,5.881977081E-2,1.768102646E-1,5.307865143E-2
5.293105717E2,2.916383743E-2,1.123509407E-1,2.861976624E-3
5.298105717E2,3.875589371E-2,-1.859688759E-2,7.457542419E-2
5.303105717E2,-1.954412460E-2,4.778552055E-2,-4.926872253E-2
5.308105717E2,-8.861541748E-3,-4.837274551E-3,2.364349365E-2
5.313105717E2,1.019186974E-1,2.857041359E-2,2.962112427E-3
5.318105717E2,8.265972137E-3,-8.700275421E-2,4.209232330E-2
5.323105717E2,-2.278947830E-2,1.966166496E-2,5.326652527E-2
5.328105717E2,5.868434906E-3,-3.585815430E-3,1.273059845E-2
5.333105717E2,5.198240280E-2,-9.732675552E-2,1.249513626E-1
5.338105717E2,-1.388354301E-1,1.102983952E-1,-1.783008575E-1
5.343105717E2,7.114410400E-2,-1.173028946E-1,1.036005020E-1
5.348105717E2,-3.033161163E-3,3.741192818E-2,-6.773662567E-2
5.353105717E2,1.435089111E-2,-2.304959297E-2,5.249691010E-2
5.358105717E2,-1.033926010E-2,2.055191994E-2,-1.235580444E-2
5.363105717E2,1.607275009E-2,-2.013468742E-2,6.916999817E-3
5.368105717E2,-1.708269119E-2,-3.090143204E-3,1.317310333E-2
5.373105717E2,-1.449489594E-2,3.537893295E-3,7.906913757E-3
5.378105717E2,2.860212326E-2,-2.181529999E-4,1.958847046E-3
5.383105717E2,-3.992557526E-3,3.341436386E-3,1.270866394E-2
5.388105717E2,-7.765293121E-3,1.224756241E-2,1.012516022E-2
5.393105717E2,-1.163244247E-2,-1.504826546E-2,-1.116847992E-2
5.398105717E2,1.228570938E-2,1.052210331E-1,5.118846893E-2
5.403105717E2,2.975559235E-2,-4.979658127E-2,4.973697662E-2
5.408105717E2,1.899154186E-1,5.004489422E-1,1.520547867E-1
5.413105717E2,3.351349831E-1,8.016488552E-1,-1.382496357E0
5.418105717E2,-6.482005119E-2,-1.001266479E0,-4.452667236E-1
5.423105717E2,1.983091831E-1,4.595575333E-1,-5.535221100E-2
5.428105717E2,4.594421387E-2,2.253458500E-1,-3.023719788E-2
5.433105717E2,3.733444214E-2,3.228902817E-3,-9.230041504E-2
5.438105717E2,1.141049862E-1,-9.868264198E-2,-5.023002625E-3
5.443105717E2,-3.378868103E-2,-4.371285439E-2,-8.708667755E-2
5.448105717E2,-3.247597218E-1,-8.816931248E-1,-3.936891556E-1
5.453105717E2,-5.074441433E-1,-1.435791969E0,1.416301727E-1
5.458105717E2,-8.408076763E-1,-1.612658501E-1,-4.747123718E-1
5.463105717E2,-1.596434116E-1,7.713079453E-3,-2.122201920E-1
5.468105717E2,-8.823871613E-3,2.139256001E-1,1.167516708E-1
5.473105717E2,-5.733013153E-3,1.633853912E-1,3.648948669E-2
5.478105717E2,1.969122887E-2,-1.814126968E-2,-1.101016998E-2
5.483105717E2,1.435565948E-2,3.834962845E-2,-5.346202850E-2
5.488105717E2,-6.683349609E-3,-6.959581375E-2,6.528949738E-2
5.493105717E2,-5.688691139E-2,9.511065483E-2,-7.823562622E-2
5.498105717E2,-1.851129532E-2,-5.844616890E-2,9.034156799E-3
5.503105717E2,1.424765587E-2,2.448511124E-2,-5.920696259E-2
5.508105717E2,6.837129593E-3,-2.183198929E-2,2.651119232E-2
5.513105717E2,1.188755035E-3,-2.286911011E-3,7.615089417E-3
5.518105717E2,-1.885890961E-2,-3.297328949E-4,-7.796287537E-3
5.523105717E2,-7.737874985E-3,9.968280792E-4,4.120826721E-3
5.528105717E2,6.036043167E-3,-7.215976715E-3,-1.077651978E-4
5.533105717E2,7.827997208E-3,5.702733994E-3,-4.751205444E-3
5.538105717E2,-1.030611992E-2,7.852554321E-3,1.207351685E-3
5.543105717E2,4.327917099E-2,1.248598099E-3,1.818656921E-2
5.548105717E2,6.688833237E-3,1.717352867E-2,-3.621387482E-2
5.553105717E2,8.629083633E-3,1.469802856E-2,-8.412361145E-3
5.558105717E2,3.082513809E-2,2.762317657E-3,-1.703548431E-2
5.563105717E2,2.248454094E-2,3.416061401E-3,-7.045745850E-3
5.568105717E2,6.963968277E-3,4.911422729E-4,6.059646606E-3
5.573105717E2,-5.523443222E-3,-1.916766167E-2,6.265640259E-4
5.578105717E2,-1.169252396E-2,-1.058220863E-2,-9.242057800E-3
5.583105717E2,4.270792007E-3,5.290746689E-3,1.961708069E-3
5.588105717E2,8.588552475E-3,2.760648727E-3,5.352973938E-3
5.593105717E2,3.911256790E-3,-1.830577850E-3,6.676673889E-3
5.598105717E2,-8.154153824E-3,5.805015564E-3,1.576423645E-3
5.603105717E2,-1.463627815E-2,1.488566399E-2,1.788139343E-2
5.608105717E2,4.347157478E-2,-4.218339920E-3,2.717399597E-2
5.613105717E2,-2.987098694E-2,3.532743454E-2,-1.091623306E-1
5.618105717E2,-3.423213959E-3,-1.297760010E-2,-6.869316101E-3
5.623105717E2,-2.320909500E-2,3.337550163E-2,-9.499549866E-3
5.628105717E2,-2.373456955E-2,7.974267006E-2,-3.484344482E-2
5.633105717E2,2.450633049E-2,-1.056983471E-1,1.040830612E-1
5.638105717E2,-2.004694939E-2,5.266165733E-2,4.569244385E-2
5.643105717E2,3.553056717E-2,-3.383660316E-2,1.128292084E-2
5.648105717E2,9.169530869E-2,2.077615261E-1,1.032266617E-1
5.653105717E2,1.848459244E-3,2.456212044E-1,-2.573013306E-3
5.658105717E2,8.853316307E-2,7.820630074E-2,6.972885132E-2
5.663105717E2,3.846526146E-2,1.086401939E-1,-9.754180908E-3
5.668105717E2,5.205678940E-2,2.126204967E-1,3.604316711E-2
5.673105717E2,2.392721176E-2,9.425818920E-2,1.496410370E-2
5.678105717E2,2.687215805E-2,-8.805954456E-2,9.983158112E-2
5.683105717E2,3.897953033E-2,-4.252886772E-2,-1.465511322E-2
5.688105717E2,1.171469688E-1,1.122320890E-1,3.797054291E-2
5.693105717E2,-2.647066116E-2,7.377147675E-2,1.438140869E-2
5.698105717E2,1.347956657E-1,9.825229645E-4,1.884202957E-1
5.703105717E2,-7.381868362E-2,1.066211462E-1,-6.952571869E-2
5.708105717E2,-9.090471268E-2,-7.394123077E-2,-1.255989075E-1
5.713105717E2,-6.647491455E-2,3.261470795E-2,2.850894928E-1
5.718105717E2,-2.420425415E-3,-1.954860687E-1,1.119995117E-1
5.723105717E2,2.038955688E-3,-7.708787918E-3,-1.430330276E-1
5.728105717E2,3.172874451E-3,4.481577873E-2,-5.990695953E-2
5.733105717E2,2.058792114E-2,-1.252810955E-1,1.970338821E-1
5.738105717E2,5.901002884E-2,7.171773911E-2,-7.632350922E-2
5.743105717E2,-1.751866341E-1,-4.933874607E-1,8.336467743E-1
5.748105717E2,-4.423210621E-1,-2.247569561E-1,1.964139938E-1
5.753105717E2,-5.089073181E-1,-2.174091339E-2,-5.551242828E-2
5.758105717E2,-3.945941925E-1,-6.389331818E-2,-1.671810150E-1
5.763105717E2,-3.157031536E-1,-4.242041111E-1,5.324239731E-1
5.768105717E2,-1.430008411E-1,8.451867104E-2,-4.023427963E-1
5.773105717E2,6.844887733E-1,-2.486288548E-1,2.581987381E-1
5.778105717E2,1.036079884E0,-5.712776184E-1,-6.316184998E-2
5.783105717E2,4.666943550E-1,-8.756542206E-2,-1.126578331E0
5.788105717E2,-1.664838791E-1,2.935495377E-1,-1.113993168E0
5.793105717E2,8.859515190E-1,-6.825525761E-1,8.454494476E-1
5.798105717E2,7.728052139E-1,-2.459526062E-1,-2.611646652E-1
5.803105717E2,3.461904526E-1,5.944848061E-2,-4.457283020E-1
5.808105717E2,1.835374832E-1,-3.961477280E-1,2.920637131E-1
5.813105717E2,3.742527962E-1,-1.364026070E-1,-3.768892288E-1
5.818105717E2,7.625150681E-2,-7.090163231E-2,-1.714234352E-1
5.823105717E2,-1.538400650E-1,1.959347725E-2,-1.021184921E-1
5.828105717E2,-4.004383087E-1,-1.956675053E-1,6.068782806E-1
5.833105717E2,-2.852151394E-1,1.317894459E-1,2.093133926E-1
5.838105717E2,-1.962330341E-1,3.053140640E-2,1.535959244E-1
5.843105717E2,-4.386618137E-1,1.239776611E-1,1.339950562E-1
5.848105717E2,-4.429936409E-2,-7.073593140E-2,2.480516434E-1
5.853105717E2,-1.735904217E-1,1.370773315E-1,-1.988477707E-1
5.858105717E2,1.920247078E-2,-4.549622536E-2,9.453010559E-2
5.863105717E2,-9.633779526E-2,1.017692089E-1,-1.776838303E-1
5.868105717E2,-1.341841221E-1,2.319033146E-1,-2.880315781E-1
5.873105717E2,1.616375446E-1,-3.241045475E-1,7.191305161E-1
5.878105717E2,-1.789920330E-1,1.559343338E-1,-3.650569916E-1
5.883105717E2,-7.421731949E-3,-2.223267555E-1,1.454677582E-1
5.888105717E2,-5.065536499E-2,3.849697113E-2,-7.735919952E-2
5.893105717E2,2.245759964E-2,-8.214592934E-2,1.428079605E-1
5.898105717E2,1.334450245E-1,-2.201893330E-1,3.261070251E-1
5.903105717E2,-1.391270161E-1,2.041535378E-1,-3.763570786E-1
5.908105717E2,1.728053093E-1,-2.720460892E-1,4.996938705E-1
5.913105717E2,4.089999199E-2,7.846689224E-2,-1.767282486E-1
5.918105717E2,5.382943153E-2,-2.354836464E-2,3.431320190E-3
5.923105717E2,8.936953545E-2,-2.611470222E-2,1.224613190E-2
5.928105717E2,-8.930444717E-3,6.136012077E-2,-1.637220383E-1
5.933105717E2,3.828620911E-2,3.501820564E-2,-9.927845001E-2
5.938105717E2,7.745981216E-2,-1.420934200E-1,2.113752365E-1
5.943105717E2,-4.283905029E-3,1.122074127E-1,-2.409791946E-1
5.948105717E2,-1.580171585E-1,1.179997921E-1,-1.658926010E-1
5.953105717E2,1.018142700E-2,2.522706985E-3,2.697944641E-2
5.958105717E2,1.501460075E-1,-2.392377853E-1,4.170770645E-1
5.963105717E2,-2.111730576E-1,3.259737492E-1,-5.880417824E-1
5.968105717E2,3.373956680E-2,-2.617619038E-1,4.022893906E-1
5.973105717E2,4.377222061E-2,-4.849839211E-2,4.194259644E-3
5.978105717E2,-7.773709297E-2,1.441876888E-1,-2.978096008E-1
5.983105717E2,1.234178543E-1,-1.635296345E-1,3.130731583E-1
5.988105717E2,7.901668549E-3,6.187224388E-2,-1.495466232E-1
5.993105717E2,4.918432236E-2,-9.043288231E-2,1.837644577E-1
5.998105717E2,-7.320737839E-2,1.411390305E-1,-2.565994263E-1
6.003105717E2,1.665520668E-1,-3.035206795E-1,5.620222092E-1
6.008105717E2,-5.214643478E-2,1.163160801E-1,-2.419061661E-1
6.013105717E2,2.034907341E-1,-4.485828876E-1,6.905679703E-1
6.018105717E2,-1.992609501E-1,3.790063858E-1,-7.767882347E-1
6.023105717E2,7.154531479E-1,-7.607629299E-1,1.247790337E0
6.028105717E2,2.187824249E-2,2.059822083E-1,-7.101550102E-1
6.033105717E2,3.415641785E-1,-3.333957195E-1,5.284900665E-1
6.038105717E2,-1.521019936E-1,2.702398300E-1,-5.256257057E-1
6.043105717E2,3.130030632E-1,-2.895524502E-1,3.269443512E-1
6.048105717E2,-3.005981445E-3,5.012011528E-2,-1.956262589E-1
6.053105717E2,-1.088633537E-1,6.938910484E-2,-6.981945038E-2
6.058105717E2,1.193332672E-2,2.193856239E-2,1.591396332E-2
6.063105717E2,5.114126205E-2,-8.326554298E-2,2.208404541E-1
6.068105717E2,-3.255462646E-2,9.525561333E-2,-1.396608353E-1
6.073105717E2,1.135587692E-2,-2.642869949E-3,-7.804870605E-3
6.078105717E2,1.984596252E-3,-1.987695694E-3,-5.414962769E-2
6.083105717E2,1.011748314E-1,-2.271955013E-1,2.538442612E-1
6.088105717E2,-2.620017529E-1,4.981458187E-1,-1.119133472E0
6.093105717E2,-3.498432636E-1,6.574614048E-1,-1.103268147E0
6.098105717E2,9.442162514E-1,-7.449049950E-1,1.120547295E0
6.103105717E2,1.328372955E-1,3.324143887E-1,-9.012527466E-1
6.108105717E2,3.701486588E-1,-1.389148235E-1,-4.519939423E-2
6.113105717E2,3.810052872E-1,1.596627235E-1,-7.451701164E-1
6.118105717E2,3.133711815E-1,-1.046156883E-2,-2.439703941E-1
6.123105717E2,2.820239067E-1,-4.532217979E-2,-3.390102386E-1
6.128105717E2,4.185581207E-2,5.168437958E-2,-3.376994133E-1
6.133105717E2,1.251440048E-1,-8.065724373E-2,4.102468491E-2
6.138105717E2,-6.042480469E-2,3.253984451E-2,-2.553691864E-1
6.143105717E2,-1.645851135E-2,-4.018807411E-2,-1.046972275E-1
6.148105717E2,1.558194160E-1,-1.983332634E-1,2.253379822E-1
6.153105717E2,-1.588401794E-1,1.079230309E-1,-2.738919258E-1
6.158105717E2,-1.099896431E-1,1.739621162E-2,7.284641266E-3
6.163105717E2,-2.780008316E-2,-5.923295021E-2,9.918546677E-2
6.168105717E2,-2.240796089E-1,1.351068020E-1,-2.677874565E-1
6.173105717E2,1.299014091E-1,-1.967999935E-1,3.840413094E-1
6.178105717E2,-4.121594429E-1,2.246315479E-1,-4.354295731E-1
6.183105717E2,-2.121944427E-1,-6.064486504E-2,2.976841927E-1
6.188105717E2,-4.556365013E-1,2.317855358E-1,-3.055620193E-1
6.193105717E2,-4.395318031E-1,-1.339483261E-2,4.987950325E-1
6.198105717E2,-4.621825218E-1,1.000320911E-1,9.667491913E-2
6.203105717E2,-2.730803490E-1,-1.252579689E-1,3.565006256E-1
6.208105717E2,-1.355123520E-1,6.302499771E-2,-2.569007874E-2
6.213105717E2,-1.415922642E-1,2.449095249E-1,-3.669905663E-1
6.218105717E2,2.014069557E-1,-3.168563843E-1,6.495399475E-1
6.223105717E2,6.217241287E-2,-4.357504845E-2,4.994010925E-2
6.228105717E2,-8.235740662E-2,-5.397367477E-2,-1.132841110E-1
6.233105717E2,-2.668786049E-2,4.387831688E-2,-1.884899139E-1
6.238105717E2,1.382255554E-1,-1.920542717E-1,3.545608521E-1
6.243105717E2,-6.363558769E-2,1.520276070E-2,-1.978836060E-1
6.248105717E2,-4.191493988E-2,-2.565836906E-2,2.720928192E-2
6.253105717E2,-3.018260002E-2,1.256203651E-2,-9.655380249E-2
6.258105717E2,-3.745269775E-2,2.870273590E-2,-1.735343933E-1
6.263105717E2,-6.051111221E-2,9.621548653E-2,-4.162788391E-3
6.268105717E2,4.113149643E-2,-1.042089462E-1,2.655334473E-1
6.273105717E2,1.809883118E-2,4.984140396E-3,-2.065181732E-2
6.278105717E2,-8.838653564E-3,-2.270269394E-2,7.066345215E-2
6.283105717E2,1.403651237E-1,-1.815299988E-1,2.937479019E-1
6.288105717E2,-1.510102749E-1,1.589856148E-1,-3.397474289E-1
6.293105717E2,9.680986404E-3,9.115839005E-2,5.545902252E-2
6.298105717E2,-8.027076721E-3,1.465845108E-2,1.452970505E-1
6.303105717E2,3.943448067E-1,-5.800075531E-1,1.203098297E0
6.308105717E2,-5.208592415E-1,5.837423801E-1,-1.086613655E0
6.313105717E2,3.144741058E-1,-4.538612366E-1,7.500400543E-1
6.318105717E2,-2.631566525E-1,4.767682552E-1,-9.912438393E-1
6.323105717E2,-8.236789703E-2,1.986763477E-1,-2.441692352E-2
6.328105717E2,-1.515326500E-1,3.667428493E-1,-4.067678452E-1
6.333105717E2,5.588183403E-1,-4.099767208E-1,1.285849571E0
6.338105717E2,-1.288623810E-1,4.098310471E-1,-2.618484497E-1
6.343105717E2,5.012686253E-1,-6.507437229E-1,1.320070267E0
6.348105717E2,-2.164814472E-1,2.807903290E-2,-3.420944214E-1
6.353105717E2,1.045846939E-2,-7.917356491E-2,-7.424354553E-3
6.358105717E2,9.638166428E-2,-2.189183235E-1,3.598985672E-1
6.363105717E2,-6.920528412E-2,2.570295334E-2,-2.163419724E-1
6.368105717E2,7.453489304E-2,-1.004447937E-1,2.326545715E-1
6.373105717E2,-1.018238068E-2,3.835463524E-2,-1.802225113E-1
6.378105717E2,1.030969620E-2,3.217005730E-2,-1.316614151E-1
6.383105717E2,-8.104777336E-2,1.125478745E-1,-2.165341377E-1
6.388105717E2,2.618980408E-1,-2.370638847E-1,4.136056900E-1
6.393105717E2,2.055215836E-2,1.052558422E-1,-2.662429810E-1
6.398105717E2,2.673149109E-3,-7.622838020E-2,1.825551987E-1
6.403105717E2,-6.703424454E-2,-5.305552483E-2,1.963987350E-1
6.408105717E2,-6.904125214E-2,1.554329395E-1,-2.360877991E-1
6.413105717E2,-1.450073719E-1,1.104953289E-1,-3.988647461E-2
6.418105717E2,-1.855986118E-1,2.642514706E-1,-4.390125275E-1
6.423105717E2,-1.347141266E-1,1.381874084E-3,3.010263443E-1
6.428105717E2,-8.815901279E-1,7.346060276E-1,-9.671058655E-1
6.433105717E2,-4.703929424E-1,-2.236208916E-1,1.000669479E0
6.438105717E2,-7.158689499E-1,6.186685562E-1,-8.560209274E-1
6.443105717E2,-7.543244362E-1,2.141559124E-1,2.305536270E-1
6.448105717E2,-6.727974415E-1,3.242034912E-1,-7.006835938E-2
6.453105717E2,-3.674442768E-1,9.865188599E-2,3.206548691E-1
6.458105717E2,-7.031369209E-1,2.580597401E-1,-2.693176270E-1
6.463105717E2,-5.056486130E-1,-1.342566013E-1,5.835494995E-1
6.468105717E2,-9.406208992E-2,8.185148239E-3,-1.029739380E-1
6.473105717E2,-1.254959106E-1,-8.385920525E-2,1.099081039E-1
6.478105717E2,-1.319217682E-1,1.299948692E-1,-3.485755920E-1
6.483105717E2,2.972838879E-1,-5.750601292E-1,8.217649460E-1
6.488105717E2,8.971405029E-2,1.714046001E-1,-6.879348755E-1
6.493105717E2,8.154392242E-1,-4.099121094E-1,1.293153763E-1
6.498105717E2,6.792144775E-1,-2.915222645E-1,-1.703729630E-1
6.503105717E2,7.469296455E-2,-3.752684593E-2,-1.458053589E-1
6.508105717E2,4.805898666E-2,-1.126730442E-1,1.521062851E-1
6.513105717E2,-2.986979485E-2,1.648414135E-1,-2.627468109E-1
6.518105717E2,3.264021873E-2,-1.037688255E-1,3.265666962E-2
6.523105717E2,7.287502289E-2,-1.859426498E-2,-5.299186707E-2
6.528105717E2,8.568263054E-2,7.379984856E-2,-2.151021957E-1
6.533105717E2,8.921074867E-2,-1.875593662E-1,2.933320999E-1
6.538105717E2,-1.444396973E-1,9.359741211E-2,-5.313968658E-1
6.543105717E2,-3.996515274E-2,-2.992329597E-1,-8.423900604E-2
6.548105717E2,-2.481007576E-2,-1.077094078E-1,-1.406593323E-1
6.553105717E2,-1.045882702E-1,9.582233429E-2,-2.846584320E-1
6.558105717E2,6.274843216E-2,-1.350681782E-1,2.347269058E-1
6.563105717E2,-1.993250847E-2,4.694676399E-2,-1.521568298E-1
6.568105717E2,5.434942245E-2,-1.853513718E-1,3.596801758E-1
6.573105717E2,1.307916641E-2,-8.166360855E-2,1.143207550E-1
6.578105717E2,-1.052041054E-1,2.507734299E-2,-1.725773811E-1
6.583105717E2,4.168343544E-1,-1.263341904E-1,-2.095794678E-2
6.588105717E2,3.006186485E-1,-4.464602470E-2,-2.252688408E-1
6.593105717E2,1.497302055E-1,-2.403182983E-1,3.340744972E-1
6.598105717E2,-4.993238449E-1,2.223052979E-1,-2.120471001E-1
6.603105717E2,-6.281878948E-1,1.904211044E-1,2.606201172E-1
6.608105717E2,-9.098246098E-1,2.659332752E-1,4.106273651E-1
6.613105717E2,-9.905257225E-1,5.201640129E-1,1.070804596E-1
6.618105717E2,-5.898318291E-1,2.796564102E-1,5.106725693E-1
6.623105717E2,-5.826969147E-1,5.077805519E-1,2.218055725E-2
6.628105717E2,-3.772428036E-1,3.309495449E-1,3.509483337E-1
6.633105717E2,-7.920694351E-2,1.600940228E-1,3.520317078E-1
6.638105717E2,-2.096009254E-2,1.164014339E-1,5.378627777E-2
6.643105717E2,-3.608934879E-1,3.534734249E-1,-4.661264420E-1
6.648105717E2,5.015707016E-2,-5.485701561E-1,1.516222000E0
6.653105717E2,-4.469876289E-1,2.847256660E-1,-2.977809906E-1
6.658105717E2,-1.041054726E-1,6.765055656E-2,1.930036545E-1
6.663105717E2,4.248814583E-1,-3.388087749E-1,5.920791626E-1
6.668105717E2,2.765007019E-1,2.710487843E-1,-6.676850319E-1
6.673105717E2,8.705151081E-1,-3.050642014E-1,1.193695068E-1
6.678105717E2,8.812384605E-1,-1.275212765E-1,-5.817060471E-1
6.683105717E2,5.034031868E-1,-1.688807011E-1,-1.296596527E-1
6.688105717E2,-3.428893089E-1,-4.229807854E-2,2.989110947E-1
6.693105717E2,-4.996361732E-1,2.147765160E-1,-3.181934357E-2
6.698105717E2,-4.511334896E-1,1.529638767E-1,3.156070709E-1
6.703105717E2,-3.959634304E-1,-1.365728378E-1,7.185220718E-1
6.708105717E2,-2.565157413E-1,-7.140636444E-3,5.222120285E-1
6.713105717E2,-4.096696377E-1,1.769907475E-1,-3.546047211E-2
6.718105717E2,5.527496338E-3,-3.157320023E-1,8.549079895E-1
6.723105717E2,-4.420731068E-1,4.735503197E-1,-6.436543465E-1
6.728105717E2,-1.131310463E-1,-1.076045036E-1,5.505800247E-1
6.733105717E2,-3.300762177E-1,3.759932518E-1,-5.448050499E-1
6.738105717E2,-1.373291016E-2,-1.857519150E-1,5.316448212E-1
6.743105717E2,-1.554477215E-1,1.086559296E-1,-1.784229279E-2
6.748105717E2,1.362752914E-2,-8.901762962E-2,2.642688751E-1
6.753105717E2,-9.328627586E-2,1.088178158E-1,-1.801919937E-1
6.758105717E2,1.649899483E-1,-3.260354996E-1,6.056241989E-1
6.763105717E2,1.548552513E-2,6.834912300E-2,-6.811428070E-2
6.768105717E2,1.319777966E-1,-1.450235844E-1,2.586355209E-1
6.773105717E2,-4.142475128E-2,5.983567238E-2,-2.048921585E-1
6.778105717E2,9.230875969E-2,-1.346061230E-1,2.566184998E-1
6.783105717E2,-5.094933510E-2,1.056454182E-1,-1.491947174E-1
6.788105717E2,9.496021271E-2,-4.961848259E-2,1.608562469E-2
6.793105717E2,-1.943922043E-2,1.254472733E-1,-2.476882935E-1
6.798105717E2,1.306247711E-1,-9.148526192E-2,2.617750168E-1
6.803105717E2,-8.874440193E-2,2.663397789E-2,-6.444644928E-2
6.808105717E2,-2.264499664E-3,-6.164669991E-2,4.854583740E-2
6.813105717E2,-3.460478783E-2,-1.197402477E-1,1.915826797E-1
6.818105717E2,-1.239874363E-1,6.618666649E-2,-2.819299698E-1
6.823105717E2,9.271955490E-2,-1.308600903E-1,2.038850784E-1
6.828105717E2,-3.357505798E-2,1.595361233E-1,-3.522286415E-1
6.833105717E2,6.159186363E-2,-2.710652351E-2,5.360317230E-2
6.838105717E2,-1.077342033E-2,4.566240311E-2,-7.857418060E-2
6.843105717E2,1.870503426E-1,-3.072977066E-1,5.452518463E-1
6.848105717E2,-1.287326813E-1,1.350910664E-1,-2.638158798E-1
6.853105717E2,9.759688377E-2,-1.840479374E-1,3.961849213E-1
6.858105717E2,-1.390812397E-1,1.402163506E-1,-2.561407089E-1
6.863105717E2,3.065085411E-2,-7.834434509E-2,1.980581284E-1
6.868105717E2,5.478572845E-2,1.016378403E-3,7.097339630E-2
6.873105717E2,-2.645659447E-2,2.439212799E-2,-6.944942474E-2
6.878105717E2,1.105165482E-1,-1.400606632E-1,3.254709244E-1
6.883105717E2,-4.172062874E-2,6.477117538E-2,-9.517192841E-2
6.888105717E2,2.108812332E-2,-5.635166168E-2,1.531839371E-1
6.893105717E2,6.557607651E-2,-4.732203484E-2,7.634162903E-2
6.898105717E2,1.199681759E-1,-1.358489990E-1,2.444944382E-1
6.903105717E2,-1.787569523E-1,1.467015743E-1,-2.623367310E-1
6.908105717E2,1.419122219E-1,-2.304282188E-1,4.301538467E-1
6.913105717E2,1.054453850E-2,-1.235961914E-2,-2.996473312E-1
6.918105717E2,3.802347183E-2,-1.589584351E-2,-1.263523102E-2
6.923105717E2,6.978607178E-2,-7.849359512E-2,8.369255066E-2
6.928105717E2,-1.310396194E-2,1.884889603E-2,-7.026100159E-2
6.933105717E2,-8.679223061E-2,1.045994759E-1,-1.348533630E-1
6.938105717E2,1.153984070E-1,-1.161046028E-1,2.428245544E-1
6.943105717E2,-9.909629822E-3,-1.919913292E-2,-3.826236725E-2
6.948105717E2,-1.285767555E-1,1.483116150E-1,-2.590284348E-1
6.953105717E2,-5.050635338E-2,8.310317993E-2,-1.469860077E-1
6.958105717E2,-2.029643059E-1,3.837313652E-1,-6.909642220E-1
6.963105717E2,-1.039836407E-1,-6.381273270E-2,-3.094768524E-1
6.968105717E2,-6.867790222E-2,-7.082700729E-2,-7.368087769E-2
6.973105717E2,2.180504799E-2,-7.470607758E-2,1.968412399E-1
6.978105717E2,-3.746271133E-3,3.127670288E-2,-1.246976852E-1
6.983105717E2,1.630048752E-1,-2.597377300E-1,4.728841782E-1
6.988105717E2,-1.212627888E-1,1.307425499E-1,-2.559938431E-1
6.993105717E2,6.644129753E-2,-1.492891312E-1,2.755088806E-1
6.998105717E2,-1.071777344E-1,4.219627380E-2,-2.424507141E-1
7.003105717E2,1.441359520E-2,-1.212852001E-1,1.259517670E-1
7.008105717E2,-1.389145851E-1,1.470944881E-1,-3.521327972E-1
7.013105717E2,2.550139427E-1,-4.048972130E-1,7.045869827E-1
7.018105717E2,-1.173720360E-1,1.001403332E-1,-3.139314651E-1
7.023105717E2,5.152916908E-2,-8.171939850E-2,1.306371689E-1
7.028105717E2,4.498815536E-2,-9.997773170E-2,1.440782547E-1
7.033105717E2,-8.703184128E-2,1.225383282E-1,-2.831850052E-1
7.038105717E2,-1.294920444E-1,2.750952244E-1,-5.704374313E-1
7.043105717E2,-1.592047215E-1,1.127214432E-1,-1.685771942E-1
7.048105717E2,5.014848709E-2,1.325676441E-1,-7.530403137E-2
7.053105717E2,-3.580665588E-2,8.748793602E-2,-1.110239029E-1
7.058105717E2,-5.924749374E-2,4.635477066E-2,-2.665233612E-2
7.063105717E2,-1.142263412E-2,3.112864494E-2,-5.894470215E-2
7.068105717E2,2.542996407E-2,-6.301259995E-2,1.111621857E-1
7.073105717E2,-4.967713356E-2,9.539127350E-4,-4.841327667E-2
7.078105717E2,1.945281029E-2,2.885293961E-2,2.802658081E-2
7.083105717E2,-3.397798538E-2,8.978772163E-2,-2.175436020E-1
7.088105717E2,1.162631512E-1,-8.630633354E-2,1.503896713E-1
7.093105717E2,5.959177017E-2,-3.592085838E-2,8.875083923E-2
7.098105717E2,-1.067655087E-1,1.931262016E-1,-4.642863274E-1
7.103105717E2,5.802702904E-2,2.471613884E-2,-1.316404343E-1
7.108105717E2,-1.562929153E-2,-1.367282867E-2,-2.997350693E-1
7.113105717E2,-4.439282417E-2,-1.117036343E-1,-7.686614990E-3
7.118105717E2,-6.892776489E-2,7.597661018E-2,-1.001777649E-1
7.123105717E2,8.629417419E-2,-1.817452908E-1,2.921867371E-1
7.128105717E2,-3.297154903E-1,-4.077932835E-1,-9.597015381E-2
7.133105717E2,-4.817659855E-1,-6.330013275E-4,-6.959710121E-1
7.138105717E2,-4.233274460E-1,-3.513283730E-1,1.887321472E-3
7.143105717E2,-6.008534431E-1,3.567638397E-1,-1.650273800E0
7.148105717E2,-5.622630119E-1,5.338177681E-1,-1.323465824E0
7.153105717E2,3.034157753E-1,2.164785862E-1,-7.358121872E-2
7.158105717E2,-8.178687096E-1,1.366052151E0,-1.783062935E0
7.163105717E2,2.574861050E-1,-5.266346931E-1,1.080409050E0
7.168105717E2,-7.656593323E-1,4.133429527E-1,-1.410619736E0
7.173105717E2,3.048641682E-1,-1.163790703E0,1.428624153E0
7.178105717E2,-6.166322231E-1,-5.411148071E-2,-9.118862152E-1
7.183105717E2,-2.294256687E-1,-5.846662521E-1,3.777027130E-1
7.188105717E2,-3.566386700E-1,-5.334420204E-1,-9.356975555E-2
7.193105717E2,-3.117964268E-1,-1.009149551E-1,-5.416107178E-2
7.198105717E2,-4.377548695E-1,-7.614431381E-1,4.347076416E-1
7.203105717E2,-3.757150173E-1,5.593852997E-1,1.298694611E-1
7.208105717E2,-2.482719421E-1,6.321098804E-1,2.845993042E-1
7.213105717E2,9.796452522E-2,1.864111423E-1,1.426382065E-1
7.218105717E2,3.981399536E-2,1.732335091E-1,2.907085419E-2
7.223105717E2,1.723673344E-1,8.586120605E-2,-1.182947159E-1
7.228105717E2,5.340311527E-1,-1.455264091E-1,3.768444061E-2
7.233105717E2,5.186715126E-1,-6.890773773E-3,-4.099407196E-1
7.238105717E2,5.240511894E-2,1.731081009E-1,-3.491296768E-1
7.243105717E2,3.152296543E-1,-9.251666069E-2,4.832267761E-3
7.248105717E2,1.469550133E-1,-8.620953560E-2,-9.297466278E-2
7.253105717E2,4.296731949E-2,6.170344353E-2,-1.815629005E-1
7.258105717E2,9.585857391E-3,-7.208585739E-2,2.523813248E-1
7.263105717E2,-1.951527596E-2,3.017520905E-2,-1.010751724E-1
7.268105717E2,1.751451492E-1,-1.329071522E-1,2.155895233E-1
7.273105717E2,-3.201346397E-1,-1.427214146E-1,-9.779262543E-2
7.278105717E2,-3.677053452E-1,-3.619921207E-1,3.228921890E-1
7.283105717E2,-6.947560310E-1,-1.263717651E0,2.466373444E-1
7.288105717E2,-6.370465755E-1,-8.977594376E-1,-2.564525604E-1
7.293105717E2,1.638293266E-2,-2.846150398E-1,9.150123596E-2
7.298105717E2,-2.989268303E-2,2.375173569E-2,-1.117954254E-1
7.303105717E2,-2.758932114E-2,-2.258739471E-1,7.340717316E-2
7.308105717E2,1.668357849E-1,6.444787979E-2,-4.319477081E-2
7.313105717E2,-3.096032143E-2,-1.200623512E-1,-4.208278656E-2
7.318105717E2,-4.992389679E-2,1.482896805E0,1.982088089E-1
7.323105717E2,4.618790150E-1,6.993021965E-1,1.945228577E-1
7.328105717E2,3.735284805E-1,6.385884285E-1,3.208026886E-1
7.333105717E2,1.493144035E-1,6.944687366E-1,-2.023220062E-2
7.338105717E2,6.687569618E-2,8.641648293E-2,1.656913757E-1
7.343105717E2,8.170604706E-4,1.402418613E-1,-9.585762024E-2
7.348105717E2,3.806400299E-2,-2.205419540E-2,4.265689850E-2
7.353105717E2,-1.715612411E-2,1.008267403E-1,-1.401987076E-1
7.358105717E2,2.427339554E-3,-1.014864445E-1,3.994274139E-2
7.363105717E2,-3.527474403E-2,9.193444252E-2,-8.538818359E-2
7.368105717E2,1.461553574E-2,-7.715225220E-3,3.914260864E-2
7.373105717E2,4.525661469E-3,1.673340797E-2,-3.904247284E-2
7.378105717E2,-9.955644608E-3,-4.708433151E-2,4.545211792E-3
7.383105717E2,-2.929091454E-2,3.920245171E-2,-5.323600769E-2
7.388105717E2,1.764774323E-2,5.373954773E-4,3.318786621E-3
7.393105717E2,1.115100384E-1,1.570427418E-1,1.287488937E-1
7.398105717E2,1.345911026E-1,1.213330150E0,6.574821472E-2
7.403105717E2,1.387853622E-1,6.406739950E-1,3.023433685E-1
7.408105717E2,-3.763628006E-2,7.770502567E-2,1.113224030E-2
7.413105717E2,1.543521881E-2,-4.161179066E-2,-4.864501953E-2
7.418105717E2,-3.706932068E-2,1.226348877E-1,-8.963584900E-3
7.423105717E2,-1.874327660E-2,1.871061325E-2,-6.063461304E-2
7.428105717E2,4.750585556E-2,-4.952907562E-3,-1.340475082E-1
7.433105717E2,1.663737297E-1,1.217631102E-1,4.896831512E-2
7.438105717E2,1.861634254E-1,-1.592957973E-1,1.459550858E-1
7.443105717E2,-7.736682892E-3,-2.461409569E-2,-1.587781906E-1
7.448105717E2,9.995603561E-2,-1.122043133E-1,5.918502808E-3
7.453105717E2,2.240800858E-2,3.432583809E-2,1.458168030E-2
7.458105717E2,6.182527542E-2,1.869590282E-1,3.732233047E-1
7.463105717E2,-1.981563568E-1,-3.330874443E-2,4.018907547E-1
7.468105717E2,-5.520448685E-1,1.888470650E-1,1.406688690E-1
7.473105717E2,-4.214978218E-2,5.170273781E-2,-4.053974152E-2
7.478105717E2,4.069805145E-2,1.521849632E-2,1.368579865E-1
7.483105717E2,-1.506021023E-1,-9.565424919E-2,9.290409088E-2
7.488105717E2,-9.409403801E-2,1.621222496E-2,-1.081218719E-1
7.493105717E2,-2.802517414E-1,8.427906036E-2,-1.829967499E-1
7.498105717E2,-9.606790543E-2,8.977282047E-2,2.928161621E-2
7.503105717E2,1.797339916E-1,1.310300827E-2,2.311315536E-1
7.508105717E2,5.016565323E-2,7.156252861E-2,-3.417758942E-1
7.513105717E2,4.166896343E-1,-2.742495537E-1,-1.735210419E-1
7.518105717E2,4.381718636E-1,-1.109569073E-1,-1.569261551E-1
7.523105717E2,9.897804260E-2,-5.236363411E-2,-8.150386810E-2
7.528105717E2,4.733133316E-2,2.164340019E-2,-5.911731720E-2
7.533105717E2,1.088228226E-1,-7.008528709E-2,1.240329742E-1
7.538105717E2,-1.206884384E-1,1.890063286E-2,7.491779327E-2
7.543105717E2,2.434015274E-2,-1.249783039E-1,3.016567230E-2
7.548105717E2,2.280092239E-2,-1.191022396E-1,-9.420967102E-2
7.553105717E2,-3.949832916E-2,-4.433631897E-2,-8.827209473E-3
7.558105717E2,2.601861954E-2,-8.907079697E-3,-5.081748962E-2
7.563105717E2,8.332300186E-2,-7.400679588E-2,1.088781357E-1
7.568105717E2,-1.629042625E-1,1.413958073E-1,-2.284803391E-1
7.573105717E2,4.856061935E-2,-5.295062065E-2,1.971683502E-1
7.578105717E2,9.124755859E-3,-1.568555832E-2,3.328418732E-2
7.583105717E2,1.592159271E-3,6.121277809E-2,-9.515666962E-2
7.588105717E2,-4.859924316E-3,-7.697820663E-3,-1.214885712E-2
7.593105717E2,-1.250839233E-2,5.621981621E-2,-8.902072906E-2
7.598105717E2,3.461360931E-2,-2.760100365E-2,8.947658539E-2
7.603105717E2,5.293369293E-3,-2.490735054E-2,-4.533100128E-2
7.608105717E2,-3.820466995E-2,3.358006477E-2,-2.111434937E-2
7.613105717E2,-2.035331726E-2,3.830480576E-2,-7.611560822E-2
7.618105717E2,5.153512955E-2,-9.491443634E-4,5.811023712E-2
7.623105717E2,-3.372240067E-2,2.015924454E-2,-4.238796234E-2
7.628105717E2,7.872581482E-4,-9.231328964E-3,-7.271766663E-3
7.633105717E2,-5.781602859E-2,-2.234625816E-2,7.573604584E-2
7.638105717E2,-1.192140579E-2,3.630137444E-2,-4.187870026E-2
7.643105717E2,2.068662643E-2,-3.524065018E-2,7.069492340E-2
7.648105717E2,-7.786941528E-2,-5.892348289E-2,-5.552005768E-2
7.653105717E2,1.651906967E-2,2.715086937E-2,2.245903015E-3
7.658105717E2,-5.496025085E-3,-4.780387878E-2,3.882789612E-2
7.663105717E2,8.171319962E-3,-1.031711102E-1,8.780384064E-2
7.668105717E2,-6.075644493E-2,1.599860191E-2,-5.242443085E-2
7.673105717E2,-3.945016861E-2,3.015923500E-2,-5.151367188E-2
7.678105717E2,-1.749229431E-2,3.944706917E-2,-8.704471588E-2
7.683105717E2,8.681488037E-2,-6.269931793E-2,1.392135620E-1
7.688105717E2,-1.452586651E-1,1.962795258E-1,-3.901710510E-1
7.693105717E2,8.586955070E-2,-1.386730671E-1,1.942720413E-1
7.698105717E2,-3.339695930E-2,3.166222572E-2,-9.513950348E-2
7.703105717E2,7.829236984E-2,-1.039962769E-1,2.736835480E-1
7.708105717E2,-7.198476791E-2,1.091961861E-1,-2.548074722E-1
7.713105717E2,6.590032578E-2,-1.011052132E-1,2.001829147E-1
7.718105717E2,-6.764531136E-2,-4.645562172E-2,-6.303882599E-2
7.723105717E2,-7.920503616E-3,-4.295134544E-2,5.707454681E-2
7.728105717E2,-5.431580544E-2,1.421546936E-2,-7.085323334E-2
7.733105717E2,9.688901901E-2,-9.048581123E-2,1.589097977E-1
7.738105717E2,5.063295364E-3,2.740216255E-2,-5.799198151E-2
7.743105717E2,1.277995110E-2,-2.805304527E-2,4.533290863E-2
7.748105717E2,2.761101723E-2,-3.746771812E-2,6.690979004E-3
7.753105717E2,5.786895752E-3,2.778768539E-3,2.612972260E-2
7.758105717E2,-2.520394325E-2,-2.669596672E-2,7.346153259E-3
7.763105717E2,3.379154205E-2,-8.956766129E-2,1.911306381E-1
7.768105717E2,-5.565500259E-2,7.279133797E-2,-2.022714615E-1
7.773105717E2,1.119136810E-3,-3.127646446E-2,9.447383881E-2
7.778105717E2,2.814841270E-2,4.442453384E-3,-3.904628754E-2
7.783105717E2,-5.900740623E-2,-7.961988449E-3,2.249336243E-2
7.788105717E2,-1.654887199E-2,2.533721924E-2,-3.893375397E-2
7.793105717E2,-1.215219498E-2,-2.055335045E-2,-5.354785919E-2
7.798105717E2,2.406311035E-2,-2.285718918E-2,1.122474670E-2
7.803105717E2,-8.069920540E-2,8.185505867E-2,-1.501083374E-1
7.808105717E2,-1.846051216E-2,-3.376507759E-2,1.152391434E-1
7.813105717E2,-5.632948875E-2,1.048138142E-1,-1.768083572E-1
7.818105717E2,7.184100151E-2,-9.509038925E-2,1.654253006E-1
7.823105717E2,-7.397675514E-2,3.389453888E-2,-8.798980713E-2
7.828105717E2,7.611155510E-2,-3.512454033E-2,9.010028839E-2
7.833105717E2,-4.799008369E-2,4.858279228E-2,-7.106494904E-2
7.838105717E2,6.367015839E-2,-5.739426613E-2,5.987167358E-2
7.843105717E2,3.136038780E-2,5.293941498E-2,-8.782672882E-2
7.848105717E2,-1.780653000E-2,-8.967328072E-2,2.352886200E-1
7.853105717E2,-5.233979225E-2,8.478403091E-2,-1.422967911E-1
7.858105717E2,3.362107277E-2,-1.145796776E-1,2.417068481E-1
7.863105717E2,-9.513378143E-3,-1.162178516E-1,1.578531265E-1
7.868105717E2,-5.831027031E-2,2.555441856E-2,-6.891155243E-2
7.873105717E2,-4.264831543E-2,1.134955883E-1,-2.796726227E-1
7.878105717E2,-1.808881760E-3,-9.486746788E-2,1.604881287E-1
7.883105717E2,-2.312421799E-1,3.482966423E-1,-6.481494904E-1
7.888105717E2,9.984517097E-2,5.307865143E-2,7.078456879E-2
7.893105717E2,-1.899459362E-1,3.940713406E-1,-5.177459717E-1
7.898105717E2,2.812929153E-1,-9.390521049E-2,6.261377335E-1
7.903105717E2,-5.719351768E-2,6.570348740E-1,-7.924723625E-1
7.908105717E2,2.493250370E-1,-7.258319855E-2,6.186494827E-1
7.913105717E2,7.585215569E-2,3.773021698E-1,-2.632703781E-1
7.918105717E2,2.381663322E-1,-1.236593723E-1,4.951572418E-1
7.923105717E2,3.147935867E-2,2.817637920E-1,-3.816642761E-1
7.928105717E2,7.759761810E-2,-2.749252319E-2,1.205062866E-1
7.933105717E2,-2.788186073E-2,5.436730385E-2,-9.997272491E-2
7.938105717E2,4.309654236E-2,-2.543997765E-2,4.829692841E-2
7.943105717E2,-3.454804420E-2,2.948355675E-2,-1.197662354E-1
7.948105717E2,5.723834038E-2,-1.173698902E-1,1.435422897E-1
7.953105717E2,2.837657928E-3,-9.719133377E-3,-7.990932465E-2
7.958105717E2,9.034395218E-3,-3.876614571E-2,8.797073364E-2
7.963105717E2,1.691627502E-2,-2.798962593E-2,3.280925751E-2
7.968105717E2,-6.339240074E-2,-7.831311226E-2,3.954696655E-2
7.973105717E2,7.526397705E-3,4.657578468E-2,-3.604412079E-2
7.978105717E2,1.059081554E-1,-1.805419922E-1,3.409214020E-1
7.983105717E2,-1.362717152E-1,1.453695297E-1,-4.334545135E-1
7.988105717E2,1.451764107E-1,-2.389779091E-1,4.226980209E-1
7.993105717E2,-4.427838326E-2,6.858468056E-2,-1.106443405E-1
7.998105717E2,4.462409019E-2,-7.446026802E-2,1.858243942E-1
8.003105717E2,1.744389534E-2,-3.464460373E-3,2.430438995E-2
8.008105717E2,-1.213669777E-2,5.339550972E-2,-1.091127396E-1
8.013105717E2,2.207946777E-2,-4.010748863E-2,7.860851288E-2
8.018105717E2,-5.279850960E-2,3.346467018E-2,-1.385679245E-1
8.023105717E2,7.902455330E-2,-9.536457062E-2,1.979055405E-1
8.028105717E2,-3.285908699E-2,4.898452759E-2,-1.025047302E-1
8.033105717E2,2.779936790E-2,-5.106019974E-2,1.163415909E-1
8.038105717E2,-2.284264565E-2,-1.170825958E-2,4.564952850E-2
8.043105717E2,7.284498215E-2,-1.068921089E-1,1.802968979E-1
8.048105717E2,-9.964489937E-2,1.527602673E-1,-2.518262863E-1
8.053105717E2,1.626443863E-2,-8.858919144E-2,1.896123886E-1
8.058105717E2,-2.888846397E-2,3.065705299E-2,-1.114444733E-1
8.063105717E2,2.747344971E-2,1.419544220E-3,-6.357192993E-3
8.068105717E2,-5.277633667E-3,2.618718147E-2,-7.603359222E-2
8.073105717E2,4.183483124E-2,-7.520699501E-2,1.124219894E-1
8.078105717E2,-2.935838699E-2,6.166434288E-2,-8.297634125E-2
8.083105717E2,5.481338501E-2,-1.576735973E-1,2.970304489E-1
8.088105717E2,1.887893677E-2,1.643769741E-1,-2.339715958E-1
8.093105717E2,1.762225628E-1,-2.948431969E-1,5.844755173E-1
8.098105717E2,4.627704620E-3,-8.306622505E-2,2.365779877E-2
8.103105717E2,7.817506790E-3,-1.301162243E-1,1.206350327E-1
8.108105717E2,-4.660820961E-2,2.440738678E-2,-1.074686050E-1
8.113105717E2,5.006003380E-2,-5.487275124E-2,9.052944183E-2
8.118105717E2,-5.159354210E-2,1.317374706E-1,-2.574968338E-1
8.123105717E2,7.781791687E-2,-1.642916203E-1,3.464212418E-1
8.128105717E2,-1.664948463E-2,9.205007553E-2,-1.815414429E-1
8.133105717E2,5.854773521E-2,-1.411032677E-2,3.702831268E-2
8.138105717E2,-2.142498493E-1,2.168061733E-1,-3.052911758E-1
8.143105717E2,-7.255434990E-2,-1.982910633E-1,4.005517960E-1
8.148105717E2,-1.879312992E-1,2.797229290E-1,-5.280866623E-1
8.153105717E2,3.036348820E-1,-4.262759686E-1,8.130302429E-1
8.158105717E2,-5.120444298E-2,3.181493282E-1,-5.305294991E-1
8.163105717E2,1.760592461E-1,-3.151004314E-1,7.133636475E-1
8.168105717E2,1.859307289E-2,1.797621250E-1,-2.646522522E-1
8.173105717E2,8.197164536E-2,-7.439970970E-2,1.687364578E-1
8.178105717E2,1.167702675E-2,-1.293087006E-2,6.775379181E-2
8.183105717E2,3.403496742E-2,-8.963751793E-2,1.455364227E-1
8.188105717E2,-3.674030304E-4,6.234121323E-2,-1.503953934E-1
8.193105717E2,-2.794432640E-2,6.718420982E-2,-1.032133102E-1
8.198105717E2,4.264903069E-2,-3.190135956E-2,6.361770630E-2
8.203105717E2,-4.145097733E-2,6.637620926E-2,-1.249065399E-1
8.208105717E2,-5.706620216E-2,9.334087372E-3,-5.222606659E-2
8.213105717E2,-3.615856171E-3,-1.985316277E-1,-6.238842010E-2
8.218105717E2,-1.885111332E-1,-3.299372196E-1,-2.377138138E-1
8.223105717E2,-7.638645172E-2,-3.503718376E-1,3.543758392E-2
8.228105717E2,1.107048988E-2,-2.067632675E-1,6.765365601E-3
8.233105717E2,6.906366348E-2,3.384425640E-1,8.701324463E-3
8.238105717E2,-8.870291710E-2,-1.650857925E-1,2.560882568E-1
8.243105717E2,-2.015745640E-1,-1.070499420E-3,1.144027710E-1
8.248105717E2,-1.891348362E-1,1.041905880E-1,5.722045898E-2
8.253105717E2,9.932255745E-2,9.499526024E-2,1.713581085E-1
8.258105717E2,1.940815449E-1,-5.256557465E-2,9.272861481E-2
8.263105717E2,6.093223095E-1,-1.524138451E-2,-7.128047943E-2
8.268105717E2,1.137096167E0,-4.058451653E-1,3.345279694E-1
8.273105717E2,9.157402515E-1,3.709816933E-2,-5.975427628E-1
8.278105717E2,4.089214802E-1,-8.445787430E-2,-2.427196503E-2
8.283105717E2,5.866391659E-1,-2.041094303E-1,-3.272733688E-1
8.288105717E2,1.830115318E-1,-2.483997345E-1,6.833267212E-2
8.293105717E2,-3.904650211E-1,3.237535954E-1,-6.389508247E-1
8.298105717E2,-4.483051300E-1,3.966951370E-2,3.799142838E-1
8.303105717E2,-8.626077175E-1,2.394530773E-1,-5.228519440E-2
8.308105717E2,-1.757123470E-1,1.021745205E-1,-4.413700104E-2
8.313105717E2,-1.175420284E-1,6.640076637E-2,8.924961090E-2
8.318105717E2,-1.669685841E-1,-6.713485718E-2,-4.868125916E-2
8.323105717E2,1.506090164E-3,4.099130630E-3,-8.344554901E-2
8.328105717E2,-6.467318535E-2,-2.489895821E-1,-3.770828247E-3
8.333105717E2,8.996009827E-2,-8.042573929E-2,1.344785690E-1
8.338105717E2,5.417656898E-2,-2.992825508E-1,1.004457474E-1
8.343105717E2,-2.652990818E-1,3.157281876E-2,-1.850233078E-1
8.348105717E2,4.434881210E-1,2.509450912E-1,-8.779239655E-2
8.353105717E2,2.773523331E-3,7.088327408E-2,2.822589874E-2
8.358105717E2,4.655194283E-2,-4.543685913E-2,4.362964630E-2
8.363105717E2,7.625889778E-2,2.428297997E-1,4.944896698E-2
8.368105717E2,2.202632427E-1,1.209913731E0,-4.870414734E-3
8.373105717E2,2.149751186E-1,4.688591957E-1,2.823104858E-1
8.378105717E2,4.830241203E-2,2.790510654E-1,-5.701351166E-2
8.383105717E2,5.639886856E-2,1.106309891E-2,9.564685822E-2
8.388105717E2,-2.005815506E-2,7.583665848E-2,-4.346752167E-2
8.393105717E2,4.971241951E-2,-1.905703545E-2,3.494453430E-2
8.398105717E2,-1.697015762E-2,2.592444420E-2,-3.961849213E-2
8.403105717E2,5.135774612E-3,-5.755877495E-2,5.893325806E-2
8.408105717E2,-1.581883430E-2,3.245568275E-2,-4.479408264E-3
8.413105717E2,3.061556816E-2,-1.609802246E-2,1.426410675E-2
8.418105717E2,4.931211472E-3,-1.874446869E-3,-1.134586334E-2
8.423105717E2,-1.856565475E-3,-2.161264420E-3,4.860877991E-3
8.428105717E2,-2.720308304E-2,1.316189766E-2,-7.988929749E-3
8.433105717E2,5.436658859E-3,2.768754959E-3,6.661415100E-3
8.438105717E2,7.339406013E-2,6.549620628E-2,6.384468079E-2
8.443105717E2,-7.716655731E-3,3.502244949E-1,6.016445160E-2
8.448105717E2,1.623916626E-2,1.117587090E-1,7.916927338E-2
8.453105717E2,3.678512573E-2,-7.159352303E-2,9.410190582E-2
8.458105717E2,-8.377861977E-2,-8.124995232E-2,1.694583893E-2
8.463105717E2,6.591224670E-2,-6.529164314E-2,3.286647797E-2
8.468105717E2,-4.507994652E-2,-5.933952332E-2,-3.887462616E-2
8.473105717E2,7.010483742E-2,5.391287804E-2,9.936618805E-2
8.478105717E2,5.634236336E-2,4.258092642E-1,-3.606796265E-2
8.483105717E2,7.151436806E-2,1.580634117E-1,3.995704651E-2
8.488105717E2,-1.356506348E-2,8.918499947E-2,-9.320259094E-3
8.493105717E2,-5.990338326E-2,6.262290478E-2,9.676074982E-2
8.498105717E2,2.507233620E-2,1.522719860E-2,-1.459264755E-1
8.503105717E2,1.969504356E-1,-1.593739986E-1,-3.808689117E-2
8.508105717E2,4.106044769E-2,-1.121659279E-1,-3.821582794E-1
8.513105717E2,-1.530361176E-1,-2.198123932E-2,2.178764343E-2
8.518105717E2,-6.482219696E-2,4.025173187E-2,5.496501923E-2
8.523105717E2,1.577258110E-2,8.175706863E-2,7.625675201E-2
8.528105717E2,-1.828908920E-3,-6.076192856E-2,-2.629566193E-2
8.533105717E2,-1.757485867E-1,1.465241909E-1,-2.241544724E-1
8.538105717E2,-1.186184883E-1,2.062535286E-2,7.341480255E-2
8.543105717E2,-2.372374535E-1,5.973792076E-2,6.300258636E-2
8.548105717E2,-9.333491325E-2,3.107452393E-2,8.219718933E-2
8.553105717E2,-1.344316006E-1,1.199281216E-1,-1.252174377E-1
8.558105717E2,-1.939752102E-1,2.289175987E-1,-2.645063400E-1
8.563105717E2,2.999315262E-1,-2.116107941E-1,1.591625214E-1
8.568105717E2,4.579997063E-2,-4.548764229E-2,-3.513498306E-1
8.573105717E2,3.482222557E-2,-1.990964413E-1,2.888221741E-1
8.578105717E2,-3.364872932E-2,-1.100254059E-2,-5.765037537E-1
8.583105717E2,-6.880080700E-1,2.583597898E-1,-4.728183746E-1
8.588105717E2,2.407772541E-1,-2.383501530E-1,1.445093155E-1
8.593105717E2,4.444694519E-2,1.137733459E-2,-4.119787216E-1
8.598105717E2,-2.468006611E-1,1.297249794E-1,-3.980941772E-1
8.603105717E2,1.623690128E-1,8.381605148E-2,1.719560623E-1
8.608105717E2,-2.071309090E-2,-7.904839516E-2,-1.312551498E-1
8.613105717E2,-1.127874851E-1,1.387238503E-2,-9.743404388E-2
8.618105717E2,3.096938133E-2,1.180338860E-2,-5.263423920E-2
8.623105717E2,-8.031034470E-2,8.464264870E-2,-1.417112350E-1
8.628105717E2,5.748271942E-4,-6.912064552E-2,1.284627914E-1
8.633105717E2,-1.696038246E-2,1.268315315E-2,1.225471497E-2
8.638105717E2,-1.785886288E-1,2.259778976E-2,2.475452423E-2
8.643105717E2,-1.629996300E-2,3.457331657E-2,-3.449726105E-2
8.648105717E2,2.017283440E-1,-7.840657234E-2,3.525590897E-1
8.653105717E2,-1.457743645E-1,-2.449774742E-2,1.616477966E-3
8.658105717E2,1.552343369E-3,9.140729904E-3,-7.851982117E-2
8.663105717E2,1.750946045E-3,-7.897877693E-2,1.411113739E-1
8.668105717E2,-1.015243530E-1,-1.848769188E-2,6.309413910E-2
8.673105717E2,2.273797989E-3,6.196522713E-2,-1.099996567E-1
8.678105717E2,1.976394653E-2,-4.798865318E-2,1.025381088E-1
8.683105717E2,-1.180989742E-1,1.624348164E-1,-3.521242142E-1
8.688105717E2,-6.221055984E-3,2.639150620E-2,-8.368778229E-2
8.693105717E2,-7.345557213E-2,5.988097191E-2,-1.486539841E-1
8.698105717E2,-4.946851730E-2,-4.938125610E-2,9.400272369E-2
8.703105717E2,-1.055383682E-2,2.841138840E-2,7.651329041E-3
8.708105717E2,-7.149791718E-2,1.365106106E-1,-2.719717026E-1
8.713105717E2,2.099359035E-1,-6.873083115E-2,3.907966614E-2
8.718105717E2,-9.499073029E-3,1.309013367E-1,-2.735910416E-1
8.723105717E2,2.873277664E-2,-3.568630219E-1,4.899005890E-1
8.728105717E2,-2.534573078E-1,8.719038963E-2,-5.440368652E-1
8.733105717E2,-3.434231281E-1,-8.518273830E-1,-1.658191681E-1
8.738105717E2,-2.969498634E-1,-2.119295597E-1,-5.293111801E-1
8.743105717E2,-1.990370750E-1,-6.160516739E-1,1.264638901E-1
8.748105717E2,-1.720690727E-1,-2.291648388E-1,-1.057329178E-1
8.753105717E2,5.981492996E-2,-2.363867760E-1,1.711959839E-1
8.758105717E2,-1.875233650E-2,9.560894966E-2,3.813076019E-2
8.763105717E2,2.310276031E-3,5.758047104E-3,3.183889389E-1
8.768105717E2,-1.563763618E-2,3.275561333E-2,1.531658173E-1
8.773105717E2,-1.535935402E-1,1.447119713E-1,-3.025054932E-2
8.778105717E2,6.151127815E-2,3.612375259E-2,8.743572235E-2
8.783105717E2,2.481160164E-1,-6.877160072E-2,1.648235321E-1
8.788105717E2,2.415568829E-1,-2.807831764E-1,-6.680488586E-3
8.793105717E2,3.763175011E-2,-1.182076931E-1,-1.089448929E-1
8.798105717E2,2.544903755E-2,4.214239120E-2,-1.121730804E-1
8.803105717E2,3.878521919E-2,-8.278012276E-2,1.340484619E-2
8.808105717E2,3.830552101E-2,2.507255077E-1,-2.377557755E-1
8.813105717E2,4.094347954E-1,-1.565206051E-1,6.604051590E-1
8.818105717E2,-2.410264015E-1,3.386590481E-1,-1.625785828E-1
8.823105717E2,1.597132683E-1,-1.357645988E-1,5.491123199E-1
8.828105717E2,1.793754101E-1,1.685411930E-1,-2.149772644E-2
8.833105717E2,3.999567032E-1,-9.700083733E-2,1.629667282E-1
8.838105717E2,-9.033560753E-2,8.508801460E-2,1.473217010E-1
8.843105717E2,2.123427391E-1,-1.047573090E-1,3.955116272E-1
8.848105717E2,-8.612847328E-2,3.912162781E-1,-4.483785629E-1
8.853105717E2,1.472668648E-1,-5.737493038E-1,1.268756866E0
8.858105717E2,-1.919236183E-1,4.990284443E-1,-3.006191254E-1
8.863105717E2,-1.686906815E-1,-1.751737595E-1,4.550991058E-1
8.868105717E2,-5.616211891E-2,5.415644646E-1,-8.967947960E-1
8.873105717E2,1.073312759E-2,8.865594864E-3,2.341499329E-1
8.878105717E2,-1.811537743E-1,6.420886517E-1,-7.992014885E-1
8.883105717E2,2.850642204E-1,3.698487282E-1,2.988338470E-1
8.888105717E2,1.414406300E-1,4.923024178E-1,-2.588453293E-1
8.893105717E2,1.323435307E-1,3.250553608E-1,2.031145096E-1
8.898105717E2,-9.194135666E-3,2.492465973E-1,-1.928462982E-1
8.903105717E2,7.639479637E-2,6.988930702E-2,2.016162872E-2
8.908105717E2,-3.167080879E-2,-3.922486305E-2,-1.494245529E-1
8.913105717E2,-5.221581459E-2,-2.362022400E-1,4.446315765E-2
8.918105717E2,-1.167786121E-1,-5.746364594E-3,-1.707458496E-1
8.923105717E2,2.165746689E-2,-1.197578907E-1,1.053075790E-1
8.928105717E2,-1.502418518E-2,-1.287984848E-2,3.574371338E-3
8.933105717E2,-7.377552986E-2,7.380580902E-2,-1.435823441E-1
8.938105717E2,7.987594604E-2,-6.901502609E-3,1.516819000E-2
8.943105717E2,2.066547871E-1,-2.776892185E-1,2.661075592E-1
8.948105717E2,-7.190418243E-2,-2.438967228E-1,-5.001211166E-1
8.953105717E2,2.059698105E-2,-1.421217918E-1,-1.912384033E-1
8.958105717E2,-4.129195213E-2,2.018871307E-1,1.328563690E-1
8.963105717E2,-7.177431583E-1,6.008887291E-1,2.568750381E-1
8.968105717E2,-5.251574516E-1,2.466962337E-1,5.590286255E-1
8.973105717E2,-5.644845963E-2,4.019572735E-1,-4.240159988E-1
8.978105717E2,2.053899765E-1,2.419831753E-1,-2.527523041E-1
8.983105717E2,1.158842564E0,-3.798818588E-2,-2.920551300E-1
8.988105717E2,1.510321140E0,-1.001734734E-1,-8.081431389E-1
8.993105717E2,8.374199867E-1,-9.234428406E-2,-8.081736565E-1
8.998105717E2,7.133278847E-1,-4.863183498E-1,-1.045074463E-1
9.003105717E2,1.160645485E-1,-2.570390701E-1,-2.693958282E-1
9.008105717E2,9.651184082E-3,-2.685656548E-1,-8.885145187E-2
9.013105717E2,-3.065109253E-2,-2.896833420E-1,-2.914285660E-2
9.018105717E2,-1.332592964E-1,-2.334065437E-1,-1.561403275E-2
9.023105717E2,-6.618022919E-2,-1.974759102E-1,1.358561516E-1
9.028105717E2,-6.263780594E-2,-1.075367928E-1,-1.099333763E-1
9.033105717E2,-1.498737335E-1,-2.015464306E-1,1.551675797E-2
9.038105717E2,-1.988654137E-1,-1.773848534E-1,1.243963242E-1
9.043105717E2,-9.562315941E-1,5.091047287E-2,5.441107750E-1
9.048105717E2,-9.664969444E-1,3.844225407E-1,1.120901108E-1
9.053105717E2,-1.418790102E0,4.169242382E-1,6.373019218E-1
9.058105717E2,-9.230656624E-1,4.557764530E-1,5.788898468E-2
9.063105717E2,-3.742544651E-1,1.034643650E-1,2.189912796E-1
9.068105717E2,-3.782176971E-2,1.860182285E-1,7.080936432E-2
9.073105717E2,-2.250742912E-2,-1.762135029E-1,1.934909821E-1
9.078105717E2,-1.659381390E-1,4.216408730E-2,-1.108961105E-1
9.083105717E2,1.368885040E-1,-6.022453308E-2,4.922962189E-2
9.088105717E2,1.118230820E-2,-1.114344597E-2,-6.286334991E-2
9.093105717E2,2.709126472E-2,6.584835052E-2,-1.380834579E-1
9.098105717E2,-3.057241440E-3,3.373813629E-2,-5.442714691E-2
9.103105717E2,2.353239059E-2,3.366851807E-2,-9.223079681E-2
9.108105717E2,-3.641090393E-1,1.589288712E-1,-2.788038254E-1
9.113105717E2,-1.057178974E-1,-3.602743149E-3,1.213674545E-1
9.118105717E2,-7.620310783E-2,1.092460155E-1,-2.952528000E-1
9.123105717E2,1.841945648E-1,-8.119940758E-2,8.273410797E-2
9.128105717E2,-4.067492485E-2,2.265572548E-2,-3.354167938E-2
9.133105717E2,-1.471221447E-1,1.449985504E-1,-2.282590866E-1
9.138105717E2,2.313807011E-1,-3.983716965E-1,7.653589249E-1
9.143105717E2,9.128355980E-2,-1.657879353E-1,9.720802307E-2
9.148105717E2,-3.233251572E-1,-1.269631386E-1,3.872251511E-1
9.153105717E2,6.948399544E-2,-2.545404434E-1,4.064474106E-1
9.158105717E2,-2.690207958E-1,8.568835258E-2,-2.580165863E-1
9.163105717E2,-2.321040630E-1,1.169085503E-2,-2.604837418E-1
9.168105717E2,-7.953333855E-2,-9.510993958E-3,2.428054810E-2
9.173105717E2,-1.764607430E-2,-2.443449497E-1,2.573671341E-1
9.178105717E2,-1.989691257E-1,-2.525768280E-1,3.746318817E-2
9.183105717E2,-1.857619286E-1,-8.993673325E-2,-2.534561157E-1
9.188105717E2,-2.660021782E-1,-3.039591312E-1,1.266126633E-1
9.193105717E2,-7.741713524E-2,-1.785395145E-1,-1.113891602E-3
9.198105717E2,-1.540205479E-1,-2.293634415E-2,-1.144142151E-1
9.203105717E2,1.738967896E-1,-1.456849575E-1,-1.613559723E-1
9.208105717E2,2.618842125E-1,-1.682581902E-1,-1.335916519E-1
9.213105717E2,-2.813127041E-1,2.551140785E-1,-1.401609421E0
9.218105717E2,2.494959831E-1,-7.568814754E-1,7.144823074E-1
9.223105717E2,-6.258630753E-1,-2.384822369E-1,-9.731020927E-1
9.228105717E2,-5.606291294E-1,-6.019313335E-1,2.609395981E-1
9.233105717E2,-5.087363720E-1,6.440091133E-2,-1.141798496E0
9.238105717E2,9.261846542E-3,-1.271462440E-2,5.142364502E-1
9.243105717E2,-8.564877510E-2,3.758428097E-1,1.621246338E-5
9.248105717E2,-7.058800459E-1,4.285681248E-1,1.536073685E-1
9.253105717E2,1.014294624E-1,2.990465164E-1,2.130022049E-1
9.258105717E2,-1.826913357E-1,1.774299145E-1,6.438446045E-2
9.263105717E2,1.509878635E-1,7.978391647E-2,6.547927856E-2
9.268105717E2,2.477931976E-1,7.312822342E-2,-2.408752441E-1
9.273105717E2,7.336235046E-2,-1.616215706E-2,6.518650055E-2
9.278105717E2,2.426147461E-3,1.257102489E-1,-1.908636093E-1
9.283105717E2,-1.084349155E-1,8.465409279E-2,-8.718013763E-2
9.288105717E2,-2.730917931E-2,-2.634859085E-2,3.037643433E-2
9.293105717E2,-1.671733856E-1,7.146477699E-2,1.488876343E-2
9.298105717E2,-8.898425102E-2,-2.268862724E-2,5.552291870E-2
9.303105717E2,-7.294416428E-2,9.947371483E-2,-6.351375580E-2
9.308105717E2,-2.209999561E-1,-7.281923294E-2,2.054023743E-1
9.313105717E2,-1.116242409E-1,1.832127571E-2,-8.025646210E-2
9.318105717E2,-1.745774746E-1,5.553555489E-2,-1.632595062E-2
9.323105717E2,1.833462715E-2,3.070950508E-2,-7.843303680E-2
9.328105717E2,4.565637112E-1,-3.837387562E-1,3.587360382E-1
9.333105717E2,1.300227642E-1,1.509785652E-2,-2.279710770E-1
9.338105717E2,5.991170406E-1,-4.019560814E-1,3.902997971E-1
9.343105717E2,5.188417435E-1,4.876375198E-2,-5.122632980E-1
9.348105717E2,5.112304688E-1,-3.805782795E-1,3.389396667E-1
9.353105717E2,-1.870632172E-3,-2.785468102E-2,-7.108211517E-2
9.358105717E2,5.858564377E-2,-2.565288544E-2,7.226657867E-2
9.363105717E2,-8.693552017E-2,-7.833838463E-2,7.084369659E-2
9.368105717E2,5.677747726E-2,3.963518143E-2,-4.057693481E-2
9.373105717E2,3.092765808E-2,-1.254646778E-1,1.462287903E-1
9.378105717E2,9.011054039E-2,-1.065757275E-1,7.018756866E-2
9.383105717E2,2.013516426E-2,-1.094126701E-2,-7.899951935E-2
9.388105717E2,-4.994416237E-2,-1.754021645E-2,5.863285065E-2
9.393105717E2,-8.814358711E-2,5.297493935E-2,-8.312606812E-2
9.398105717E2,-4.497742653E-2,-1.353859901E-2,-2.035140991E-3
9.403105717E2,-5.677580833E-2,3.753948212E-2,-3.913021088E-2
9.408105717E2,-7.333278656E-3,-2.876353264E-2,3.352451324E-2
9.413105717E2,-3.503561020E-2,-2.087616920E-2,6.171321869E-2
9.418105717E2,9.160423279E-2,-6.541991234E-2,7.949161530E-2
9.423105717E2,4.214239120E-2,1.059944630E-1,-2.003402710E-1
9.428105717E2,2.549722195E-1,-1.509652138E-1,1.739225388E-1
9.433105717E2,-1.431145668E-1,1.010665894E-1,-1.814117432E-1
9.438105717E2,1.423647404E-1,-1.843364239E-1,3.261232376E-1
9.443105717E2,-1.960353851E-1,2.993679047E-1,-5.015134811E-1
9.448105717E2,9.334421158E-2,-1.472654343E-1,4.361867905E-1
9.453105717E2,-3.167438507E-2,9.477353096E-2,-1.547088623E-1
9.458105717E2,7.198691368E-2,-1.534278393E-1,2.318925858E-1
9.463105717E2,-9.895801544E-3,8.032011986E-2,-1.988811493E-1
9.468105717E2,1.843404770E-2,-7.130503654E-2,7.407855988E-2
9.473105717E2,7.667303085E-3,-9.087800980E-3,3.065586090E-2
9.478105717E2,7.422780991E-2,-2.900409698E-2,-2.221965790E-2
9.483105717E2,-3.634929657E-3,-1.093983650E-2,6.775856018E-2
9.488105717E2,-1.467139721E-1,1.593520641E-1,-2.657089233E-1
9.493105717E2,1.533412933E-1,-2.864327431E-1,3.976669312E-1
9.498105717E2,-2.159674168E-1,3.082931042E-1,-5.770812035E-1
9.503105717E2,1.113128662E-1,-2.400953770E-1,3.813238144E-1
9.508105717E2,-1.953542233E-1,3.137421608E-1,-5.463275909E-1
9.513105717E2,-2.816247940E-2,-1.963877678E-1,4.540052414E-1
9.518105717E2,5.758666992E-2,1.919531822E-2,-1.014842987E-1
9.523105717E2,-3.099942207E-2,-3.499579430E-2,7.288551331E-2
9.528105717E2,-3.916001320E-2,2.435493469E-2,-4.607868195E-2
9.533105717E2,4.629158974E-2,-7.848572731E-2,6.925106049E-2
9.538105717E2,-8.252215385E-2,9.443902969E-2,-1.302633286E-1
9.543105717E2,8.061408997E-3,-8.190441132E-2,1.509046555E-1
9.548105717E2,-3.878426552E-2,1.372623444E-2,-7.432746887E-2
9.553105717E2,-6.838345528E-2,1.327822208E-1,-2.744512558E-1
9.558105717E2,3.504323959E-2,-4.225850105E-2,-1.476287842E-3
9.563105717E2,6.485557556E-2,5.109047890E-2,-2.476882935E-2
9.568105717E2,9.870862961E-2,-2.198076248E-2,-7.899856567E-2
9.573105717E2,1.067979336E-1,-1.967620850E-2,5.515098572E-3
9.578105717E2,-8.186459541E-2,1.048057079E-1,-1.426696777E-1
9.583105717E2,6.492400169E-2,-5.162310600E-2,7.548427582E-2
9.588105717E2,-2.157449722E-2,8.665394783E-2,-1.601285934E-1
9.593105717E2,3.887367249E-2,4.123663902E-2,-5.323505402E-2
9.598105717E2,-2.474474907E-2,-5.194544792E-2,1.051492691E-1
9.603105717E2,1.440501213E-1,6.706070900E-2,-2.044687271E-1
9.608105717E2,1.357548237E-1,-6.393909454E-2,7.839107513E-2
9.613105717E2,-3.313875198E-2,1.253271103E-1,-2.828760147E-1
9.618105717E2,4.083728790E-1,-2.358360291E-1,2.146854401E-1
9.623105717E2,9.578132629E-2,1.676349640E-1,-4.879307747E-1
9.628105717E2,7.431268692E-2,-1.494472027E-1,2.988433838E-2
9.633105717E2,1.085867882E-1,-9.537577629E-2,3.388118744E-2
9.638105717E2,6.824970245E-3,4.834961891E-2,-8.215904236E-2
9.643105717E2,1.085867882E-1,-6.478714943E-2,9.253978729E-2
9.648105717E2,3.936815262E-2,7.860660553E-4,-5.274772644E-2
9.653105717E2,-1.069998741E-1,9.620738029E-2,-2.800722122E-1
9.658105717E2,2.978849411E-2,-7.895112038E-2,1.272954941E-1
9.663105717E2,-5.369901657E-2,4.829478264E-2,-7.040023804E-2
9.668105717E2,2.689123154E-2,-7.425808907E-2,1.423768997E-1
9.673105717E2,-2.422046661E-2,-1.536176205E-1,3.881702423E-1
9.678105717E2,-5.406694412E-1,1.071970463E-1,5.525398254E-2
9.683105717E2,-8.464932442E-2,3.943395615E-2,1.211614609E-1
9.688105717E2,-1.863462925E-1,2.086162567E-2,-2.045631409E-3
9.693105717E2,7.530736923E-2,-6.179275513E-1,5.391054153E-1
9.698105717E2,-3.397123814E-1,-3.490447998E-3,-2.768239975E-1
9.703105717E2,-4.931426048E-2,-1.202495098E-1,3.317260742E-2
9.708105717E2,-3.333473206E-2,4.529953003E-2,-1.456060410E-1
9.713105717E2,-1.295495033E-2,4.904747009E-3,-1.393222809E-2
9.718105717E2,-5.340409279E-2,9.043908119E-2,-1.258096695E-1
9.723105717E2,-6.800293922E-2,3.384971619E-2,-9.748744965E-2
9.728105717E2,8.827042580E-2,-3.763699532E-2,-1.676654816E-2
9.733105717E2,-1.066963673E-1,8.279204369E-2,-2.478857040E-1
9.738105717E2,-1.082167625E-1,-5.852627754E-2,-9.781646729E-2
9.743105717E2,-2.592945099E-1,7.846474648E-2,-8.195877075E-3
9.748105717E2,-1.037602425E-1,1.929044724E-2,-4.998207092E-3
9.753105717E2,-3.063964844E-2,-2.721993923E-1,3.845767975E-1
9.758105717E2,-4.857063293E-3,7.953186035E-1,-1.079615116E0
9.763105717E2,-5.953574181E-1,3.157210350E-1,-6.364722252E-1
9.768105717E2,-1.756503582E-1,6.222925186E-1,-8.054013252E-1
9.773105717E2,3.402199745E-1,-7.253935337E-1,1.438138962E0
9.778105717E2,7.738351822E-3,3.172829151E-1,3.497524261E-1
9.783105717E2,6.329751015E-2,1.779446602E-1,2.645559311E-1
9.788105717E2,-7.253837585E-2,3.443887234E-1,1.273050308E-1
9.793105717E2,-3.270864487E-3,1.620392799E-1,1.114912033E-1
9.798105717E2,-2.958049774E-1,3.456764221E-1,-3.421907425E-1
9.803105717E2,-1.632308960E-1,3.538200855E-1,-2.528371811E-1
9.808105717E2,-1.222629547E-1,4.041686058E-1,-5.296545029E-1
9.813105717E2,-2.819561958E-2,2.942681313E-1,-1.567916870E-1
9.818105717E2,-3.662872314E-2,-2.604975700E-1,7.824430466E-1
9.823105717E2,-8.544635773E-2,8.120632172E-2,-5.596733093E-2
9.828105717E2,1.058835983E-1,-2.128367424E-1,5.908918381E-1
9.833105717E2,-2.396917343E-1,2.443463802E-1,-5.061969757E-1
9.838105717E2,-1.304726601E-1,1.375317574E-2,5.364513397E-2
9.843105717E2,-2.992606163E-2,-1.637220383E-3,1.299953461E-2
9.848105717E2,1.150426865E-1,-2.150020599E-1,2.966699600E-1
9.853105717E2,-1.245379448E-1,8.241891861E-3,-3.211565018E-1
9.858105717E2,-3.604841232E-2,-1.615889072E-1,2.565698624E-1
9.863105717E2,1.186656952E-1,-6.103658676E-2,1.585702896E-1
9.868105717E2,1.938986778E-2,1.688101292E-1,-1.083469391E-1
9.873105717E2,5.065631866E-2,1.552212238E-1,-2.922277451E-1
9.878105717E2,8.376717567E-2,1.187248230E-1,9.757041931E-3
9.883105717E2,4.098677635E-2,8.419275284E-2,-1.092720032E-2
9.888105717E2,2.876210213E-2,8.091545105E-2,-5.896091461E-2
9.893105717E2,6.284308434E-2,-3.273153305E-2,8.944416046E-2
9.898105717E2,-8.401560783E-2,7.622313499E-2,-1.839590073E-1
