"Time (s)","Acceleration x (m/s^2)","Acceleration y (m/s^2)","Acceleration z (m/s^2)"
1.726325000E-3,1.292124242E-1,5.778068542E0,8.038089752E0
2.272752300E-2,-3.828516230E-2,5.551348686E0,7.975875854E0
5.227275230E-1,-4.815555513E-1,5.238486767E0,8.775078773E0
1.022727523E0,-4.989035130E-1,5.379065514E0,8.054241180E0
1.522727523E0,-1.520638824E0,3.980460405E0,7.308876991E0
2.022727523E0,-6.041877270E-1,5.844469070E0,9.384650230E0
2.522727523E0,-1.430907965E0,3.069393158E0,9.652647018E0
3.022727523E0,-4.594219327E-1,4.567300320E0,8.821739197E0
3.522727523E0,1.483550072E0,4.458426952E0,5.938985825E0
4.022727523E0,1.006780148E1,2.561516523E0,5.294120312E-1
4.522727523E0,1.048893833E1,3.649054468E-1,-1.528415442E0
5.022727523E0,1.024008465E1,8.566305041E-1,-7.549355626E-1
5.522727523E0,9.778867722E0,-4.372883439E-1,3.975076675E0
6.022727523E0,8.793025017E0,-4.755735099E-1,4.410570145E0
6.522727523E0,8.610571861E0,-5.665007830E-1,4.436293125E0
7.022727523E0,8.388039589E0,-4.881358147E-1,4.971088886E0
7.522727523E0,9.164510727E0,-3.714857101E-1,4.453640938E0
8.022727523E0,8.596215248E0,-4.594219327E-1,4.880161762E0
8.522727523E0,8.660223007E0,-2.470589429E-1,5.228915691E0
9.022727523E0,8.256434441E0,-4.660021961E-1,5.099703312E0
9.522727523E0,8.311469078E0,3.732803464E-1,5.053641319E0
1.002272752E1,8.523234367E0,-6.580262631E-2,5.009374142E0
1.052272752E1,8.919246674E0,-1.836491376E-1,3.131008387E0
1.102272752E1,9.052646637E0,-3.194418252E-1,3.774677753E0
1.152272752E1,8.860024452E0,1.100698411E-1,4.382454872E0
1.202272752E1,9.010173798E0,-3.529413342E-1,4.569094658E0
1.252272752E1,8.099106789E0,-1.752742529E-1,4.560719967E0
1.302272752E1,8.670392990E0,-4.833501875E-1,4.872983456E0
1.352272752E1,8.378468513E0,-5.060819983E-1,4.947160721E0
1.402272752E1,8.812167168E0,-5.234299302E-1,4.658227444E0
1.452272752E1,8.082955360E0,-1.491924882E0,5.283352375E0
1.502272752E1,7.996813297E0,-9.188438654E-1,5.184648514E0
1.552272752E1,8.355736732E0,-1.285543919E0,5.495715618E0
1.602272752E1,7.988438606E0,-4.295116663E-1,6.178267956E0
1.652272752E1,7.691728592E0,-7.178468108E-1,6.143572330E0
1.702272752E1,7.921439171E0,-3.427718580E-1,5.969494343E0
1.752272752E1,7.875377655E0,-6.287141442E-1,5.906682491E0
1.802272752E1,7.703692436E0,-3.924229145E-1,6.156134605E0
1.852272752E1,8.004590034E0,-7.070791125E-1,6.015556335E0
1.902272752E1,7.572087288E0,-3.684946895E-1,6.142973900E0
1.952272752E1,7.607979774E0,-6.520441771E-1,6.227321148E0
2.002272752E1,7.277770042E0,-3.140579760E-1,6.093322754E0
2.052272752E1,7.650452137E0,-6.634100676E-1,6.235695839E0
2.102272752E1,7.665407181E0,-4.773681164E-1,6.357131481E0
2.152272752E1,7.584051132E0,-5.868397355E-1,6.344569206E0
2.202272752E1,7.447660446E0,-5.042873621E-1,6.334998131E0
2.252272752E1,7.509873867E0,-5.808576941E-1,6.423532486E0
2.302272752E1,7.485945702E0,-6.191428304E-1,6.473183632E0
2.352272752E1,7.481160164E0,-5.551348329E-1,6.461817741E0
2.402272752E1,7.492526054E0,-6.329016089E-1,6.390631199E0
2.452272752E1,7.369893551E0,-5.706881881E-1,6.411568165E0
2.502272752E1,7.320840836E0,-6.209374666E-1,6.390631199E0
2.552272752E1,7.497311592E0,-5.742774606E-1,6.562315941E0
2.602272752E1,7.400402069E0,-6.047859192E-1,6.210571289E0
2.652272752E1,7.482954502E0,-5.377869010E-1,6.293123722E0
2.702272752E1,7.600800991E0,-5.808576941E-1,6.328417778E0
2.752272752E1,7.471588612E0,-6.634100676E-1,6.398407936E0
2.802272752E1,7.448258877E0,-6.221339107E-1,6.270391941E0
2.852272752E1,7.567301750E0,-5.772684813E-1,6.355337143E0
2.902272752E1,7.392625332E0,-6.239284873E-1,6.524031162E0
2.952272752E1,7.509873867E0,-5.772684813E-1,6.443273067E0
3.002272752E1,7.342974663E0,-6.759724021E-1,6.604190350E0
3.052272752E1,7.238886833E0,-6.508477330E-1,6.470192432E0
3.102272752E1,7.205985546E0,-6.568298340E-1,6.698707104E0
3.152272752E1,7.157530785E0,-6.364908218E-1,6.771687984E0
3.202272752E1,7.067201614E0,-6.825526357E-1,6.876972198E0
3.252272752E1,6.982256413E0,-6.472585201E-1,6.808776855E0
3.302272752E1,7.060621262E0,-6.556333899E-1,6.856035233E0
3.352272752E1,6.980462074E0,-7.477570772E-1,6.802196503E0
3.402272752E1,6.969096184E0,-7.118647099E-1,6.988238335E0
3.452272752E1,7.045666218E0,-7.190431952E-1,6.964908600E0
3.502272752E1,7.036693096E0,-7.070791125E-1,6.979265213E0
3.552272752E1,7.038487911E0,-7.639086246E-1,6.991827965E0
3.602272752E1,6.928418159E0,-7.304090858E-1,6.930810928E0
3.652272752E1,6.928418159E0,-6.987041831E-1,7.025327206E0
3.702272752E1,6.997809887E0,-7.160521746E-1,7.052246571E0
3.752272752E1,7.028916359E0,-7.639086246E-1,7.121040344E0
3.802272752E1,9.062815666E0,-1.962114573E-1,2.346760750E0
3.852272752E1,1.038604641E1,-3.194418252E-1,-6.334998012E-1
3.902272752E1,8.043473244E0,-3.888336718E-1,3.142972469E0
3.952272752E1,7.972885132E0,6.957131624E-1,5.281557560E0
4.002272752E1,8.976076126E0,5.425725579E-1,4.365705013E0
4.052272752E1,8.443074226E0,-1.944168359E-1,5.039284706E0
4.102272752E1,7.971688747E0,-3.906283081E-1,5.810969830E0
4.152272752E1,7.883154392E0,-4.450650215E-1,6.119045734E0
4.202272752E1,7.828119278E0,-3.122633696E-1,5.959922791E0
4.252272752E1,7.801798344E0,-4.671986103E-1,5.745765209E0
4.302272752E1,7.671389580E0,-5.665007830E-1,5.796612740E0
4.352272752E1,7.846663475E0,-4.103690982E-1,5.868995667E0
4.402272752E1,7.700103283E0,-3.744767308E-1,6.149554253E0
4.452272752E1,7.631907940E0,-4.325026870E-1,6.246463299E0
4.502272752E1,8.376673698E0,-6.957131624E-1,5.576473236E0
4.552272752E1,7.496115208E0,-6.065805554E-1,6.146563053E0
4.602272752E1,7.497311592E0,-7.405785918E-1,6.422336102E0
4.652272752E1,7.472187042E0,-5.443671346E-1,6.417550564E0
4.702272752E1,7.416553974E0,-6.538388133E-1,6.439683914E0
4.752272752E1,7.489534855E0,-6.430711150E-1,6.497709751E0
4.802272752E1,7.296314240E0,-6.538388133E-1,6.332605362E0
4.852272752E1,7.513463020E0,-5.856433511E-1,6.602993965E0
4.902272752E1,7.473383427E0,-7.477570772E-1,6.471388817E0
4.952272752E1,7.295117855E0,-6.783652306E-1,6.610172749E0
5.002272752E1,7.153343201E0,-7.962117195E-1,6.624529362E0
5.052272752E1,7.191030025E0,-7.525427341E-1,6.760920525E0
5.102272752E1,7.219744205E0,-7.818548083E-1,6.632904530E0
5.152272752E1,7.214958668E0,-7.543373108E-1,6.643671989E0
5.202272752E1,7.239484787E0,-8.691928387E-1,6.682555676E0
5.252272752E1,7.223333359E0,-8.297112584E-1,6.658627033E0
5.302272752E1,7.232904434E0,-8.518448472E-1,6.665207386E0
5.352272752E1,7.299305439E0,-8.721838593E-1,6.722635269E0
5.402272752E1,7.160521984E0,-9.714859724E-1,6.720242500E0
5.452272752E1,7.115057945E0,-8.979067206E-1,6.708278179E0
5.502272752E1,7.150950432E0,-9.780662656E-1,6.714260101E0
5.552272752E1,7.071389198E0,-8.949156404E-1,6.686742783E0
5.602272752E1,6.980462074E0,-1.022333503E0,6.876972198E0
5.652272752E1,6.835097790E0,-9.972088337E-1,7.240681171E0
5.702272752E1,6.532405853E0,-1.085145116E0,7.429116249E0
5.752272752E1,7.045666218E0,-5.006981492E-1,7.167700291E0
5.802272752E1,6.835696220E0,-7.214360237E-1,6.984051228E0
5.852272752E1,6.691528320E0,-8.362914920E-1,7.433901787E0
5.902272752E1,6.537191391E0,-8.027920127E-1,7.369893551E0
5.952272752E1,6.495915413E0,-8.673982024E-1,7.241877556E0
6.002272752E1,6.591030121E0,-8.793623447E-1,7.289734364E0
6.052272752E1,6.504888535E0,-9.128618240E-1,7.373483181E0
6.102272752E1,6.569494724E0,-9.140582681E-1,7.379465103E0
6.152272752E1,6.467201233E0,-9.637092948E-1,7.344171047E0
6.202272752E1,6.406782627E0,-9.254241586E-1,7.308876991E0
6.252272752E1,6.430710793E0,-9.732806087E-1,7.383054256E0
6.302272752E1,6.504888535E0,-9.511470199E-1,7.395018578E0
6.352272752E1,6.488138676E0,-9.475577474E-1,7.453044415E0
6.402272752E1,6.323033810E0,-9.188438654E-1,7.299903870E0
6.452272752E1,6.433701992E0,-9.559326172E-1,7.450053215E0
6.502272752E1,6.379265308E0,-9.427721500E-1,7.476374149E0
6.552272752E1,6.189035892E0,-9.984052777E-1,7.631907940E0
6.602272752E1,6.203990936E0,-9.062815905E-1,7.403393269E0
6.652272752E1,6.259624004E0,-8.979067206E-1,7.486543655E0
6.702272752E1,6.159125328E0,-8.793623447E-1,7.386045456E0
6.752272752E1,6.419344902E0,-8.823533654E-1,7.439883709E0
6.802272752E1,6.259624004E0,-8.021938205E-1,7.607979774E0
6.852272752E1,6.301498413E0,-9.702895880E-1,7.563114166E0
6.902272752E1,6.446264267E0,-8.673982024E-1,7.422535896E0
6.952272752E1,7.817949772E0,-8.871390224E-1,6.052046776E0
7.002272752E1,7.582256794E0,-8.662018180E-1,6.418746948E0
7.052272752E1,7.386045456E0,-9.559326172E-1,6.311069489E0
7.102272752E1,7.464410305E0,-1.003190875E0,6.278766632E0
7.152272752E1,7.459624767E0,-9.828519225E-1,6.340980053E0
7.202272752E1,7.473383427E0,-1.007976532E0,6.401997089E0
7.252272752E1,7.387241840E0,-1.003789067E0,6.625127792E0
7.302272752E1,7.308876991E0,-9.631111026E-1,6.533602238E0
7.352272752E1,7.342376232E0,-1.015753269E0,6.605985165E0
7.402272752E1,7.322037220E0,-9.678967595E-1,6.471987247E0
7.452272752E1,7.267600536E0,-9.840483069E-1,6.567699909E0
7.502272752E1,7.298109055E0,-9.858429432E-1,6.640681267E0
7.552272752E1,7.387839794E0,-9.750752449E-1,6.546762943E0
7.602272752E1,7.332805157E0,-9.870393276E-1,6.547959328E0
7.652272752E1,7.268198967E0,-9.696913958E-1,6.510272026E0
7.702272752E1,7.322037220E0,-1.001396298E0,6.509674072E0
7.752272752E1,7.286743164E0,-9.559326172E-1,6.422336102E0
7.802272752E1,7.339385033E0,-9.918249846E-1,6.583851337E0
7.852272752E1,7.290332317E0,-9.894321561E-1,6.527620316E0
7.902272752E1,7.253243446E0,-9.637092948E-1,6.387042046E0
7.952272752E1,7.220342159E0,-1.003789067E0,6.490531445E0
8.002272752E1,7.308876991E0,-9.619147182E-1,6.596413612E0
8.052272752E1,7.320242882E0,-1.007976532E0,6.623332977E0
8.102272752E1,7.246663570E0,-9.858429432E-1,6.605386734E0
8.152272752E1,7.237092018E0,-1.009771109E0,6.597609997E0
8.202272752E1,7.229913712E0,-9.649057388E-1,6.510272026E0
8.252272752E1,7.256833076E0,-1.013360381E0,6.593422890E0
8.302272752E1,7.242475986E0,-9.655039310E-1,6.605985165E0
8.352272752E1,7.304090977E0,-9.906286001E-1,6.621538639E0
8.402272752E1,7.251449108E0,-1.035493970E0,6.583253384E0
8.452272752E1,7.259823799E0,-1.021137118E0,6.613761902E0
8.502272752E1,7.280761242E0,-1.010967612E0,6.620342255E0
8.552272752E1,7.277770042E0,-1.030708313E0,6.626922131E0
8.602272752E1,7.283751965E0,-1.017547846E0,6.647261143E0
8.652272752E1,7.176673412E0,-1.015753269E0,6.543771744E0
8.702272752E1,7.244270325E0,-1.011565804E0,6.621538639E0
8.752272752E1,7.253243446E0,-1.017547846E0,6.638886452E0
8.802272752E1,7.217949390E0,-9.942178130E-1,6.528816700E0
8.852272752E1,7.366902828E0,-1.193420291E0,6.829115868E0
8.902272752E1,8.760722160E0,-3.284149170E-1,4.771288395E0
8.952272752E1,8.579465866E0,-4.133601189E-1,4.932804108E0
9.002272752E1,8.373682976E0,-4.707878530E-1,5.185844898E0
9.052272752E1,8.441878319E0,-5.156532526E-1,5.211567879E0
9.102272752E1,8.529814720E0,-4.049852192E-1,5.142774105E0
9.152272752E1,8.337790489E0,-5.455635786E-1,5.267200947E0
9.202272752E1,8.277371407E0,-5.330012441E-1,5.200799942E0
9.252272752E1,8.315656662E0,-5.539384484E-1,5.245067120E0
9.302272752E1,8.286943436E0,-5.694918036E-1,5.401198864E0
9.352272752E1,8.261817932E0,-6.155536175E-1,5.407779217E0
9.402272752E1,8.389236450E0,-5.665007830E-1,5.386841774E0
9.452272752E1,8.222934723E0,-6.257231236E-1,5.315057278E0
9.502272752E1,8.185248375E0,-5.742774606E-1,5.210371494E0
9.552272752E1,8.250452042E0,-6.376872063E-1,5.377270699E0
9.602272752E1,8.237890244E0,-6.065805554E-1,5.439484119E0
9.652272752E1,8.224729538E0,-6.460621357E-1,5.268995285E0
9.702272752E1,8.273183823E0,-6.125625968E-1,5.309075356E0
9.752272752E1,8.242675781E0,-6.382854581E-1,5.234299660E0
9.802272752E1,8.261219978E0,-6.604190469E-1,5.447858810E0
9.852272752E1,8.112865448E0,-6.143572330E-1,5.218147755E0
9.902272752E1,8.282156944E0,-6.257231236E-1,5.416153908E0
9.952272752E1,8.196015358E0,-6.107679605E-1,5.331208706E0
1.000227275E2,8.223533630E0,-6.233302951E-1,5.461617470E0
1.005227275E2,8.187042236E0,-6.299105883E-1,5.387440205E0
1.010227275E2,8.143373489E0,-6.107679605E-1,5.351547718E0
1.015227275E2,8.344968796E0,-5.808576941E-1,5.492125988E0
1.020227275E2,8.263014793E0,-5.850451589E-1,5.432903767E0
1.025227275E2,8.243872643E0,-7.274180651E-1,5.412564754E0
1.030227275E2,8.143373489E0,-4.660021961E-1,4.980660439E0
1.035227275E2,8.979664803E0,-1.578066587E0,3.652643681E0
1.040227275E2,1.042911720E1,-8.913264275E-1,8.356932998E-1
1.045227275E2,9.729216576E0,6.544370055E-1,9.858429432E-1
1.050227275E2,9.707083702E0,9.379864931E-1,9.511470199E-1
1.055227275E2,9.041280746E0,1.210768223E0,4.115654826E-1
1.060227275E2,9.266205788E0,2.434697151E0,3.990031779E-1
1.065227275E2,9.694520950E0,1.560120344E0,5.742774159E-2
1.070227275E2,9.740582466E0,1.540977836E0,-1.322034448E-1
1.075227275E2,9.690931320E0,1.545763373E0,-2.751746029E-2
1.080227275E2,9.765707016E0,1.523629785E0,2.374876440E-1
1.085227275E2,9.679565430E0,1.569691658E0,1.453639716E-1
1.090227275E2,9.660423279E0,1.582253933E0,-5.198407173E-1
1.095227275E2,9.663414001E0,1.530210137E0,-3.332005441E-1
1.100227275E2,9.728020668E0,1.554138303E0,-3.463610709E-1
1.105227275E2,9.727422714E0,1.510469317E0,-4.049852192E-1
1.110227275E2,9.744770050E0,1.483550072E0,-6.999006122E-2
1.115227275E2,9.730413437E0,1.582852125E0,-1.208375469E-1
1.120227275E2,9.672985077E0,1.573280931E0,-1.339980662E-1
1.125227275E2,9.794421196E0,1.722832322E0,-1.722832322E-1
1.130227275E2,9.689735413E0,1.670190215E0,-2.679961324E-1
1.135227275E2,9.670592308E0,1.743171334E0,-2.967100143E-1
1.140227275E2,9.686145782E0,1.795813441E0,-2.309073806E-1
1.145227275E2,9.641879082E0,1.792822361E0,-1.758724600E-1
1.150227275E2,9.584450722E0,1.888535261E0,-2.662015259E-1
1.155227275E2,9.768698692E0,1.933400750E0,-2.105683982E-1
1.160227275E2,9.615557671E0,1.983051777E0,-3.110669553E-1
1.165227275E2,9.564710617E0,1.909472466E0,-3.607180119E-1
1.170227275E2,9.543772697E0,2.038684845E0,-1.830509305E-1
1.175227275E2,9.424730301E0,2.073380709E0,-2.297109663E-1
1.180227275E2,9.598209381E0,2.099701881E0,-1.160518974E-1
1.185227275E2,9.652647018E0,2.154736757E0,-1.878365725E-1
1.190227275E2,9.528220177E0,2.134397745E0,-2.362912297E-1
1.195227275E2,9.646664619E0,2.201396942E0,-8.494520187E-2
1.200227275E2,9.631709099E0,2.247458696E0,-4.432703853E-1
1.205227275E2,9.598808289E0,2.295315027E0,-3.571287692E-1
1.210227275E2,9.499505997E0,2.343171597E0,-1.375873089E-1
1.215227275E2,9.504291534E0,2.297109842E0,-2.572284341E-1
1.220227275E2,9.341579437E0,2.304886341E0,-3.972085714E-1
1.225227275E2,9.707083702E0,2.314457655E0,-4.307080805E-2
1.230227275E2,9.332008362E0,2.238485575E0,-8.889335990E-1
1.235227275E2,9.424730301E0,2.213959217E0,-5.868397355E-1
1.240227275E2,9.598209381E0,2.236092806E0,-6.873382926E-1
1.245227275E2,9.540781975E0,2.155334949E0,-1.269392371E0
1.250227275E2,1.005823040E1,1.885544300E0,-1.007976532E0
1.255227275E2,9.318847656E0,2.231905222E0,-1.176072359E0
1.260227275E2,9.564710617E0,2.298904419E0,-1.292124271E0
1.265227275E2,9.513862610E0,2.348555326E0,-6.221339107E-1
1.270227275E2,9.510273933E0,2.398804665E0,-7.483552694E-1
1.275227275E2,9.379864693E0,2.347957134E0,-6.664010882E-1
1.280227275E2,9.626923561E0,2.399402857E0,-6.317051649E-1
1.285227275E2,9.574879646E0,2.374876499E0,-6.508477330E-1
1.290227275E2,9.523433685E0,2.347957134E0,-5.551348329E-1
1.295227275E2,9.329017639E0,2.346162558E0,-6.029912829E-1
1.300227275E2,9.585647583E0,2.420340061E0,-6.735795736E-1
1.305227275E2,9.415159225E0,2.370090723E0,-6.137589812E-1
1.310227275E2,9.512067795E0,2.362314224E0,-5.647061467E-1
1.315227275E2,9.510871887E0,2.402393818E0,-6.747759581E-1
1.320227275E2,9.515657425E0,2.313261271E0,-5.682953596E-1
1.325227275E2,9.707083702E0,2.386242390E0,-6.305087805E-1
1.330227275E2,9.389435768E0,2.343171597E0,-6.729813814E-1
1.335227275E2,9.562915802E0,2.386840582E0,-6.699903607E-1
1.340227275E2,9.560523033E0,2.405385017E0,-5.808576941E-1
1.345227275E2,9.593423843E0,2.512463808E0,-6.305087805E-1
1.350227275E2,9.479166985E0,2.274976015E0,-5.898307562E-1
1.355227275E2,9.577870369E0,2.410170555E0,-6.041877270E-1
1.360227275E2,9.488140106E0,2.266601324E0,-4.654040039E-1
1.365227275E2,9.751948357E0,2.525624275E0,-5.377869010E-1
1.370227275E2,9.547362328E0,2.405385017E0,-4.103690982E-1
1.375227275E2,9.622138023E0,2.392822742E0,-3.750749528E-1
1.380227275E2,9.744770050E0,2.480758905E0,-5.006981492E-1
1.385227275E2,9.483952522E0,2.361117840E0,-4.097708762E-1
1.390227275E2,9.759127617E0,2.321038008E0,-1.704886109E-1
1.395227275E2,9.734002113E0,2.410768747E0,-4.354937077E-1
1.400227275E2,9.802198410E0,2.463410854E0,-4.564309120E-1
1.405227275E2,9.349356651E0,2.367697954E0,-6.107679605E-1
1.410227275E2,9.555737495E0,2.386242390E0,-3.206382394E-1
1.415227275E2,9.442078590E0,2.385046005E0,-3.667000830E-1
1.420227275E2,9.478569031E0,2.292324066E0,-3.607180119E-1
1.425227275E2,9.628718376E0,2.414956331E0,-2.841476798E-1
1.430227275E2,9.644271851E0,2.359323025E0,-2.997010350E-1
1.435227275E2,9.614361763E0,2.416750908E0,-2.650051117E-1
1.440227275E2,9.537791252E0,2.239681959E0,-4.336991012E-1
1.445227275E2,9.491728783E0,2.405385017E0,-3.026920557E-1
1.450227275E2,9.564710617E0,2.348555326E0,-2.524427772E-1
1.455227275E2,9.510273933E0,2.376671076E0,-2.907279432E-1
1.460227275E2,9.536594391E0,2.381456852E0,-2.955136001E-1
1.465227275E2,9.522237778E0,2.429911375E0,-3.667000830E-1
1.470227275E2,9.567701340E0,2.303091764E0,-3.266202807E-1
1.475227275E2,9.397212982E0,2.396411896E0,-3.002992272E-1
1.480227275E2,9.534201622E0,2.295315027E0,-3.062812984E-1
1.485227275E2,9.329017639E0,2.447259426E0,-3.110669553E-1
1.490227275E2,9.475577354E0,2.453241348E0,-2.667997181E-1
1.495227275E2,9.450452805E0,2.386242390E0,-3.511467278E-1
1.500227275E2,9.431310654E0,2.352742910E0,-3.062812984E-1
1.505227275E2,9.643074989E0,2.380260229E0,-1.854437590E-1
1.510227275E2,9.606584549E0,2.474178553E0,-1.974078715E-1
1.515227275E2,9.601799011E0,2.375474691E0,-1.112662554E-1
1.520227275E2,9.449854851E0,2.383251429E0,-3.936193287E-1
1.525227275E2,9.440881729E0,2.285743713E0,-3.798605800E-1
1.530227275E2,9.553942680E0,2.405983210E0,-3.780659735E-1
1.535227275E2,9.670592308E0,2.325823545E0,-2.201396823E-1
1.540227275E2,9.504291534E0,2.382055044E0,-3.337987661E-1
1.545227275E2,9.534201622E0,2.451446772E0,-2.889333367E-1
1.550227275E2,9.558728218E0,2.410768747E0,-2.237289101E-1
1.555227275E2,9.558728218E0,2.397608280E0,-2.667997181E-1
1.560227275E2,9.167501450E0,2.294118643E0,-3.505485058E-1
1.565227275E2,9.530014038E0,2.434697151E0,-2.404786795E-1
1.570227275E2,9.397212982E0,2.322832584E0,-8.374879137E-3
1.575227275E2,9.614361763E0,2.341975212E0,2.488535494E-1
1.580227275E2,8.636893272E0,1.805384636E0,-7.836493850E-2
1.585227275E2,9.678369522E0,1.963310957E0,-1.663011760E-1
1.590227275E2,9.687342644E0,2.395813704E0,-4.606183618E-2
1.595227275E2,9.622735977E0,2.305484533E0,-7.477571070E-2
1.600227275E2,9.651450157E0,2.206182480E0,-2.249253243E-1
1.605227275E2,9.595218658E0,2.201396942E0,-5.611169338E-1
1.610227275E2,9.590433121E0,2.338385820E0,3.242274821E-1
1.615227275E2,9.699306488E0,2.434697151E0,1.339980662E-1
1.620227275E2,9.502496719E0,2.322234392E0,1.160518974E-1
1.625227275E2,9.589237213E0,2.352742910E0,2.979064286E-1
1.630227275E2,9.737591743E0,2.368894339E0,-1.555334684E-2
1.635227275E2,1.003908730E1,2.429313183E0,4.941178858E-1
1.640227275E2,9.612566948E0,2.380260229E0,-2.033899166E-2
1.645227275E2,9.595218658E0,2.461018085E0,-8.913264424E-2
1.650227275E2,9.363713264E0,2.279163599E0,2.620140910E-1
1.655227275E2,9.546165466E0,2.392822742E0,1.244267747E-1
1.660227275E2,9.510273933E0,2.376671076E0,-1.423729509E-1
1.665227275E2,9.434301376E0,2.262413740E0,-1.962114573E-1
1.670227275E2,9.614361763E0,2.365903378E0,-2.380858511E-1
1.675227275E2,9.522237778E0,2.481955290E0,-7.836493850E-2
1.680227275E2,9.520442963E0,2.364108801E0,-2.344966233E-1
1.685227275E2,9.649655342E0,2.331805706E0,-6.580262445E-3
1.690227275E2,9.545567513E0,2.330609322E0,1.615155302E-2
1.695227275E2,9.497711182E0,2.396411896E0,3.050848842E-2
1.700227275E2,9.550353050E0,2.432304144E0,-1.256231871E-2
1.705227275E2,9.445069313E0,2.314457655E0,5.383851007E-2
1.710227275E2,9.506086349E0,2.405385017E0,-4.307080805E-2
1.715227275E2,9.510871887E0,2.344966173E0,-1.274178028E-1
1.720227275E2,9.495916367E0,2.340180635E0,-2.428714931E-1
1.725227275E2,9.608379364E0,2.373680115E0,-6.041877344E-2
1.730227275E2,9.606584549E0,2.472982168E0,-8.733802289E-2
1.735227275E2,9.526425362E0,2.290529490E0,-2.123630047E-1
1.740227275E2,9.510871887E0,2.346162558E0,-2.171486616E-1
1.745227275E2,9.698708534E0,2.382055044E0,-6.520441920E-2
1.750227275E2,9.422935486E0,2.178664923E0,-1.645065546E-1
1.755227275E2,9.562915802E0,2.407179594E0,-2.931207716E-1
1.760227275E2,9.494720459E0,2.330609322E0,-8.973085135E-2
1.765227275E2,9.488140106E0,2.468196630E0,-1.112662554E-1
1.770227275E2,9.659226418E0,2.381456852E0,-1.052841991E-1
1.775227275E2,9.521639824E0,2.372483730E0,-1.848455518E-1
1.780227275E2,9.549157143E0,2.331805706E0,-6.101697683E-2
1.785227275E2,9.546165466E0,2.365305185E0,-6.819544733E-2
1.790227275E2,9.579067230E0,2.338984251E0,-6.999006122E-2
1.795227275E2,9.614361763E0,2.341975212E0,-2.033899166E-2
1.800227275E2,9.566504478E0,2.274976015E0,-6.101697683E-2
1.805227275E2,9.622138023E0,2.284547329E0,-1.417747438E-1
1.810227275E2,9.543772697E0,2.287538528E0,-8.434699476E-2
1.815227275E2,9.585647583E0,2.190629244E0,-7.058826834E-2
1.820227275E2,9.582057953E0,2.157129526E0,-9.571290761E-2
1.825227275E2,9.525228500E0,2.174477577E0,-1.226321608E-1
1.830227275E2,9.724431038E0,2.143969059E0,-1.166501045E-1
1.835227275E2,9.622138023E0,2.059622049E0,-1.208375469E-1
1.840227275E2,9.641280174E0,2.051247120E0,1.465603858E-1
1.845227275E2,9.704092026E0,2.049452543E0,1.304088384E-1
1.850227275E2,9.706484795E0,1.941177368E0,-7.298108935E-2
1.855227275E2,9.633503914E0,1.917847395E0,-4.965107143E-2
1.860227275E2,9.684949875E0,1.909472466E0,-3.230310604E-2
1.865227275E2,9.689137459E0,1.818545222E0,6.699903309E-2
1.870227275E2,9.684351921E0,1.828116536E0,1.196411327E-1
1.875227275E2,9.742377281E0,1.761117458E0,5.383851007E-2
1.880227275E2,9.701699257E0,1.701895118E0,5.563312769E-2
1.885227275E2,9.711270332E0,1.678565025E0,1.244267747E-1
1.890227275E2,9.742377281E0,1.642672777E0,1.034895778E-1
1.895227275E2,9.749555588E0,1.620539188E0,1.387837082E-1
1.900227275E2,9.702297211E0,1.596610904E0,1.914258152E-1
1.905227275E2,9.809376717E0,1.550549030E0,2.327020019E-1
1.910227275E2,9.719645500E0,1.542174220E0,2.811566591E-1
1.915227275E2,9.740582466E0,1.505683661E0,2.057827413E-1
1.920227275E2,9.746564865E0,1.567897081E0,1.351944804E-1
1.925227275E2,9.750154495E0,1.526620865E0,2.410768867E-1
1.930227275E2,9.734002113E0,1.507478237E0,2.261217386E-1
1.935227275E2,9.651450157E0,1.518245935E0,2.524427772E-1
1.940227275E2,9.739984512E0,1.515254974E0,2.333002090E-1
1.945227275E2,9.707083702E0,1.549352646E0,1.591227055E-1
1.950227275E2,9.706484795E0,1.537388563E0,2.315055877E-1
1.955227275E2,9.658628464E0,1.499701619E0,3.242274821E-1
1.960227275E2,9.771091461E0,1.555334687E0,2.267199457E-1
1.965227275E2,9.704092026E0,1.552343726E0,1.950150430E-1
1.970227275E2,9.724431038E0,1.568495274E0,1.471585929E-1
1.975227275E2,9.724431038E0,1.537986755E0,1.782652885E-1
1.980227275E2,9.708279610E0,1.556531072E0,3.529413417E-2
1.985227275E2,9.753145218E0,1.512263894E0,0.000000000E0
1.990227275E2,9.744770050E0,1.527817249E0,-4.606183618E-2
1.995227275E2,9.693922997E0,1.503889084E0,-1.160518974E-1
2.000227275E2,9.693922997E0,1.511067510E0,-1.830509305E-1
2.005227275E2,9.725627899E0,1.506281853E0,-1.740778536E-1
2.010227275E2,9.710074425E0,1.530210137E0,-1.974078715E-1
2.015227275E2,9.694520950E0,1.540977836E0,-1.848455518E-1
2.020227275E2,9.748359680E0,1.556531072E0,-1.501496136E-1
2.025227275E2,9.684351921E0,1.494317770E0,-2.404786795E-1
2.030227275E2,9.705288887E0,1.508674622E0,-2.584248483E-1
2.035227275E2,9.708877563E0,1.491924882E0,-3.044866920E-1
2.040227275E2,9.689735413E0,1.499701619E0,-2.859423161E-1
2.045227275E2,9.721440315E0,1.505683661E0,-2.967100143E-1
2.050227275E2,9.714859962E0,1.507478237E0,-3.379862010E-1
2.055227275E2,9.693922997E0,1.497906923E0,-3.481557071E-1
2.060227275E2,9.710074425E0,1.499701619E0,-3.361915946E-1
2.065227275E2,9.736993790E0,1.510469317E0,-2.889333367E-1
2.070227275E2,9.783055305E0,1.517049551E0,-2.859423161E-1
2.075227275E2,9.728020668E0,1.521835208E0,-3.415754437E-1
2.080227275E2,9.686145782E0,1.513460279E0,-2.410768867E-1
2.085227275E2,9.785448074E0,1.513460279E0,-3.720839322E-1
2.090227275E2,9.705288887E0,1.508674622E0,-4.019941986E-1
2.095227275E2,9.713663101E0,1.504487276E0,-4.115654826E-1
2.100227275E2,9.735796928E0,1.515853167E0,-2.811566591E-1
2.105227275E2,9.713663101E0,1.511067510E0,-3.397808075E-1
2.110227275E2,9.703494072E0,1.506281853E0,-3.397808075E-1
2.115227275E2,9.622735977E0,1.496710539E0,-3.858426511E-1
2.120227275E2,9.669994354E0,1.475773335E0,-3.475574851E-1
2.125227275E2,9.778269768E0,1.599601984E0,4.558327198E-1
2.130227275E2,9.680164337E0,1.561316729E0,3.002992272E-1
2.135227275E2,9.726225853E0,1.555334687E0,2.715853751E-1
2.140227275E2,9.704092026E0,1.564906001E0,2.428714931E-1
2.145227275E2,9.718449593E0,1.546959877E0,2.135594189E-1
2.150227275E2,9.713065147E0,1.556531072E0,2.548356056E-1
2.155227275E2,9.705288887E0,1.560120344E0,2.584248483E-1
2.160227275E2,9.703494072E0,1.542174220E0,2.679961324E-1
2.165227275E2,9.716055870E0,1.554138303E0,2.440679073E-1
2.170227275E2,9.714859962E0,1.560120344E0,2.596212626E-1
2.175227275E2,9.708279610E0,1.548754454E0,2.572284341E-1
2.180227275E2,9.713663101E0,1.549352646E0,2.410768867E-1
2.185227275E2,9.718449593E0,1.554138303E0,2.727817893E-1
2.190227275E2,9.710074425E0,1.556531072E0,2.285145670E-1
2.195227275E2,9.704092026E0,1.558325768E0,2.500499785E-1
2.200227275E2,9.711869240E0,1.556531072E0,2.524427772E-1
2.205227275E2,9.704092026E0,1.557129383E0,2.632105052E-1
2.210227275E2,9.714859962E0,1.569691658E0,2.476571500E-1
2.215227275E2,9.711869240E0,1.558325768E0,2.548356056E-1
2.220227275E2,9.711869240E0,1.552343726E0,2.315055877E-1
2.225227275E2,9.707083702E0,1.551745534E0,2.422732860E-1
2.230227275E2,9.716654778E0,1.553540111E0,2.524427772E-1
2.235227275E2,9.711869240E0,1.551745534E0,2.392822653E-1
2.240227275E2,9.743574142E0,1.542174220E0,2.189432681E-1
2.245227275E2,9.690931320E0,1.514058471E0,8.297112584E-1
2.250227275E2,9.713065147E0,1.512263894E0,8.123632669E-1
2.255227275E2,9.710074425E0,1.509272933E0,5.515456200E-1
2.260227275E2,9.698708534E0,1.485344648E0,6.616154313E-1
2.265227275E2,9.687342644E0,1.508674622E0,7.148557901E-1
2.270227275E2,9.730413437E0,1.447059512E0,5.347958803E-1
2.275227275E2,9.684351921E0,1.502692580E0,7.860422134E-1
2.280227275E2,9.707083702E0,1.497906923E0,6.508477330E-1
2.285227275E2,9.714859962E0,1.496112347E0,6.029912829E-1
2.290227275E2,9.707083702E0,1.501496196E0,6.017948985E-1
2.295227275E2,9.701699257E0,1.499701619E0,5.904290080E-1
2.300227275E2,9.716055870E0,1.496112347E0,5.754738450E-1
2.305227275E2,9.710074425E0,1.499701619E0,5.868397355E-1
2.310227275E2,9.708877563E0,1.507478237E0,5.138586760E-1
2.315227275E2,9.704092026E0,1.504487276E0,5.485545993E-1
2.320227275E2,9.699306488E0,1.503889084E0,4.947160780E-1
2.325227275E2,9.728020668E0,1.485344648E0,4.749752879E-1
2.330227275E2,9.720842361E0,1.494915962E0,5.084748268E-1
2.335227275E2,9.716055870E0,1.493121386E0,5.826523304E-1
2.340227275E2,9.697511673E0,1.496710539E0,4.977070987E-1
2.345227275E2,9.845269203E0,1.505683661E0,3.780659735E-1
2.350227275E2,9.757930756E0,1.537388563E0,1.276570916E0
2.355227275E2,9.590433121E0,1.524826288E0,1.442273855E0
2.360227275E2,9.703494072E0,1.587637782E0,1.105484009E0
2.365227275E2,9.713663101E0,1.595414519E0,9.236295223E-1
2.370227275E2,9.747162819E0,1.521835208E0,6.843472719E-1
2.375227275E2,9.744770050E0,1.542772412E0,6.957131624E-1
2.380227275E2,9.686145782E0,1.529611826E0,6.526423693E-1
2.385227275E2,9.718449593E0,1.540977836E0,6.861419082E-1
2.390227275E2,9.708279610E0,1.513460279E0,7.142575383E-1
2.395227275E2,9.697511673E0,1.539781332E0,7.148557901E-1
2.400227275E2,9.763913155E0,1.547558069E0,6.951149702E-1
2.405227275E2,9.722636223E0,1.542772412E0,6.999006271E-1
2.410227275E2,9.754341125E0,1.539781332E0,6.765705943E-1
2.415227275E2,9.720842361E0,1.544566989E0,7.046862841E-1
2.420227275E2,9.716654778E0,1.534397483E0,6.317051649E-1
2.425227275E2,9.734002113E0,1.536192179E0,6.813562512E-1
2.430227275E2,9.698708534E0,1.544566989E0,6.526423693E-1
2.435227275E2,9.660423279E0,1.534397483E0,6.759724021E-1
2.440227275E2,9.799206734E0,1.557129383E0,6.400800347E-1
2.445227275E2,9.662218094E0,1.526620865E0,7.339983582E-1
2.450227275E2,9.708279610E0,1.555334687E0,6.921239495E-1
2.455227275E2,9.724431038E0,1.542772412E0,7.405785918E-1
2.460227275E2,9.745368004E0,1.558325768E0,7.016952634E-1
2.465227275E2,9.727422714E0,1.576271892E0,7.357929349E-1
2.470227275E2,9.719645500E0,1.579262972E0,7.686942816E-1
2.475227275E2,9.669994354E0,1.537388563E0,7.944171429E-1
2.480227275E2,9.711869240E0,1.567897081E0,7.704889178E-1
2.485227275E2,9.708279610E0,1.568495274E0,7.818548083E-1
2.490227275E2,9.701699257E0,1.610967875E0,7.848458290E-1
2.495227275E2,9.678369522E0,1.520638824E0,7.836494446E-1
2.500227275E2,9.633503914E0,1.594816327E0,7.734799385E-1
2.505227275E2,9.655637741E0,1.599601984E0,7.579265833E-1
2.510227275E2,9.659226418E0,1.542174220E0,7.782655358E-1
2.515227275E2,9.646066666E0,1.590628862E0,7.357929349E-1
2.520227275E2,9.664012909E0,1.603191137E0,6.681957245E-1
2.525227275E2,9.638289452E0,1.528415442E0,6.634100676E-1
2.530227275E2,9.732806206E0,1.601994753E0,6.831508875E-1
2.535227275E2,9.440283775E0,1.591825247E0,6.305087805E-1
2.540227275E2,9.741779327E0,1.465603828E0,5.742774606E-1
2.545227275E2,9.732806206E0,1.377069473E0,8.057830334E-1
2.550227275E2,9.634700775E0,1.639681697E0,6.364908218E-1
2.555227275E2,9.498309135E0,1.430907965E0,7.836494446E-1
2.560227275E2,9.371489525E0,1.623530149E0,5.886343718E-1
2.565227275E2,9.496515274E0,1.377069473E0,6.586244106E-1
2.570227275E2,9.871589661E0,1.738385677E0,5.826523304E-1
2.575227275E2,9.180064201E0,1.560120344E0,6.975077987E-1
2.580227275E2,9.629914284E0,1.624128342E0,3.284149170E-1
2.585227275E2,9.714859962E0,1.484746456E0,-7.058826834E-2
2.590227275E2,9.634700775E0,1.533201098E0,-2.691925466E-1
2.595227275E2,9.716654778E0,1.499701619E0,-2.267199457E-1
2.600227275E2,9.937990189E0,1.563111424E0,-3.074777126E-1
2.605227275E2,9.689735413E0,1.419542074E0,-2.356930375E-1
2.610227275E2,9.692128181E0,1.606780410E0,-3.409772217E-1
2.615227275E2,9.592227936E0,1.386042476E0,-6.239284873E-1
2.620227275E2,9.378668785E0,1.667199135E0,-4.342973232E-1
2.625227275E2,9.474381447E0,1.591825247E0,-5.198407173E-1
2.630227275E2,9.687940598E0,1.740180254E0,-4.821537733E-1
2.635227275E2,9.739984512E0,1.648056626E0,-6.269195080E-1
2.640227275E2,9.805787086E0,1.639681697E0,-2.931207716E-1
2.645227275E2,9.673583984E0,1.624128342E0,-5.856433511E-1
2.650227275E2,9.704092026E0,1.881955028E0,-5.072783828E-1
2.655227275E2,9.678369522E0,1.875972986E0,-5.180460811E-1
2.660227275E2,9.675378799E0,1.866401672E0,-5.581258535E-1
2.665227275E2,9.702297211E0,1.733600020E0,-5.312066078E-1
2.670227275E2,9.558130264E0,1.577468276E0,-6.813562512E-1
2.675227275E2,9.713065147E0,1.698904037E0,-6.400800347E-1
2.680227275E2,9.636494637E0,1.475773335E0,-5.246263742E-1
2.685227275E2,9.692726135E0,1.545763373E0,-4.845465720E-1
2.690227275E2,9.801001549E0,1.453041553E0,-5.485545993E-1
2.695227275E2,9.637093544E0,1.582852125E0,-4.995017350E-1
2.700227275E2,9.710074425E0,1.509272933E0,-7.770691514E-1
2.705227275E2,1.003729248E1,1.585245013E0,-4.606183469E-1
2.710227275E2,9.951150894E0,1.415354609E0,-4.133601189E-1
2.715227275E2,9.833304405E0,1.558325768E0,-3.684946895E-1
2.720227275E2,9.888937950E0,1.459621787E0,-7.776673883E-2
2.725227275E2,9.836296082E0,1.491924882E0,-1.663011760E-1
2.730227275E2,9.745368004E0,1.392622828E0,1.082752272E-1
2.735227275E2,9.768698692E0,1.518245935E0,2.512463741E-2
2.740227275E2,9.620343208E0,1.523629785E0,-9.750752151E-2
2.745227275E2,9.824930191E0,1.461416483E0,-1.495514214E-1
2.750227275E2,9.744770050E0,1.515853167E0,-7.956135273E-2
2.755227275E2,9.639486313E0,1.434497118E0,-1.674975902E-1
2.760227275E2,9.626923561E0,1.480558991E0,-2.518445849E-1
2.765227275E2,9.820143700E0,1.438684583E0,-1.830509305E-1
2.770227275E2,9.601799011E0,1.403988719E0,-1.782652885E-1
2.775227275E2,9.744770050E0,1.491326690E0,-1.513460279E-1
2.780227275E2,9.946365356E0,1.553540111E0,-2.075773627E-1
2.785227275E2,9.785448074E0,1.518245935E0,-3.469592705E-2
2.790227275E2,9.789635658E0,1.408176184E0,-1.597209126E-1
2.795227275E2,9.634700775E0,1.507478237E0,-2.362912297E-1
2.800227275E2,9.669994354E0,1.420140266E0,-1.274178028E-1
2.805227275E2,9.772287369E0,1.515853167E0,-1.417747438E-1
2.810227275E2,9.760921478E0,1.461416483E0,-1.974078715E-1
2.815227275E2,9.682557106E0,1.450050473E0,-1.806581169E-1
2.820227275E2,9.860223770E0,1.412961721E0,-2.267199457E-1
2.825227275E2,9.700503349E0,1.447059512E0,-1.950150430E-1
2.830227275E2,9.746564865E0,1.466202021E0,-1.980060786E-1
2.835227275E2,9.584450722E0,1.383051515E0,-1.926222295E-1
2.840227275E2,9.555138588E0,1.497906923E0,-7.058826834E-2
2.845227275E2,9.700503349E0,1.383051515E0,8.255238086E-2
2.850227275E2,9.834501266E0,1.539183140E0,-3.589233849E-3
2.855227275E2,9.801001549E0,1.494317770E0,1.130608693E-1
2.860227275E2,9.634700775E0,1.454836130E0,1.136590727E-2
2.865227275E2,9.750154495E0,1.558325768E0,1.310070455E-1
2.870227275E2,9.754341125E0,1.456630826E0,4.007977992E-2
2.875227275E2,9.795019150E0,1.543968797E0,-1.399801224E-1
2.880227275E2,9.818947792E0,1.432702541E0,-1.399801224E-1
2.885227275E2,9.754341125E0,1.437488198E0,-1.387837082E-1
2.890227275E2,9.699306488E0,1.489532113E0,-1.040877849E-1
2.895227275E2,9.748359680E0,1.497906923E0,-1.663011760E-1
2.900227275E2,9.761520386E0,1.512263894E0,-1.902294010E-1
2.905227275E2,9.692128181E0,1.503889084E0,-1.800599098E-1
2.910227275E2,9.754341125E0,1.530210137E0,-2.057827413E-1
2.915227275E2,9.711270332E0,1.547558069E0,2.691925503E-2
2.920227275E2,9.738788605E0,1.496710539E0,5.623133108E-2
2.925227275E2,1.008036327E1,1.560120344E0,-1.782652885E-1
2.930227275E2,9.827920914E0,1.545763373E0,-1.088734269E-1
2.935227275E2,9.716055870E0,1.510469317E0,1.232303679E-1
2.940227275E2,9.719645500E0,1.426122308E0,4.187439755E-2
2.945227275E2,9.697511673E0,1.171286702E0,-1.274178028E-1
2.950227275E2,9.808777809E0,1.253839016E0,-1.591227055E-1
2.955227275E2,9.708877563E0,1.247856975E0,-6.340979785E-2
2.960227275E2,9.804591179E0,1.162911773E0,1.274178028E-1
2.965227275E2,9.798010826E0,1.188036442E0,-2.237289101E-1
2.970227275E2,9.851848602E0,1.299900889E0,-8.494520187E-2
2.975227275E2,9.732806206E0,1.161715388E0,5.443671346E-2
2.980227275E2,9.727422714E0,1.216750264E0,1.884347796E-1
2.985227275E2,9.789635658E0,1.138983607E0,2.991028363E-3
2.990227275E2,9.699306488E0,1.177268744E0,-1.645065546E-1
2.995227275E2,9.760921478E0,1.338784218E0,4.905286431E-2
3.000227275E2,9.767501831E0,1.305284739E0,-2.033899166E-2
3.005227275E2,9.751948357E0,1.409970760E0,-1.316052489E-2
3.010227275E2,9.812367439E0,1.485344648E0,-1.292124242E-1
3.015227275E2,9.734002113E0,1.617548108E0,-1.657029688E-1
3.020227275E2,9.807581902E0,1.520040631E0,-9.391828626E-2
3.025227275E2,9.705288887E0,1.505683661E0,3.170489892E-2
3.030227275E2,9.689735413E0,1.537986755E0,-8.255238086E-2
3.035227275E2,9.724431038E0,1.488335729E0,-3.032902777E-1
3.040227275E2,9.740582466E0,1.576271892E0,-2.548356056E-1
3.045227275E2,9.625727654E0,1.563111424E0,-3.768695593E-1
3.050227275E2,9.687342644E0,1.488335729E0,-3.080759048E-1
3.055227275E2,9.555737495E0,1.482353687E0,-3.990031779E-1
3.060227275E2,9.757930756E0,1.511067510E0,-4.354937077E-1
3.065227275E2,9.692128181E0,1.520638824E0,-4.965106845E-1
3.070227275E2,9.716654778E0,1.499103427E0,-5.072783828E-1
3.075227275E2,9.763913155E0,1.547558069E0,-5.228317380E-1
3.080227275E2,9.690931320E0,1.496710539E0,-5.551348329E-1
3.085227275E2,9.647860527E0,1.525424480E0,-5.934200287E-1
3.090227275E2,9.651450157E0,1.588834286E0,-6.424728632E-1
3.095227275E2,9.778269768E0,1.557129383E0,-6.430711150E-1
3.100227275E2,9.735796928E0,1.502692580E0,-5.982056856E-1
3.105227275E2,9.744770050E0,1.457827210E0,-6.161518097E-1
3.110227275E2,9.658628464E0,1.317248821E0,-6.334998012E-1
3.115227275E2,9.731011391E0,1.204786181E0,-5.569294691E-1
3.120227275E2,9.767501831E0,1.327418327E0,-5.946164131E-1
3.125227275E2,9.773484230E0,1.338186026E0,-5.952146053E-1
3.130227275E2,9.716055870E0,1.296909928E0,-5.347958803E-1
3.135227275E2,9.762716293E0,1.277767301E0,-5.395814776E-1
3.140227275E2,9.751948357E0,1.414756417E0,-5.778666735E-1
3.145227275E2,9.732208252E0,1.286142230E0,-5.324030519E-1
3.150227275E2,9.742377281E0,1.304686546E0,-4.737788737E-1
3.155227275E2,9.697511673E0,1.472184181E0,-5.539384484E-1
3.160227275E2,9.708279610E0,1.191625714E0,-5.425725579E-1
3.165227275E2,9.728020668E0,1.451845169E0,-5.084748268E-1
3.170227275E2,9.649057388E0,1.467996716E0,-5.952146053E-1
3.175227275E2,9.655637741E0,1.454836130E0,-6.257231236E-1
3.180227275E2,9.625128746E0,1.412961721E0,-5.868397355E-1
3.185227275E2,9.670592308E0,1.463211060E0,-6.239284873E-1
3.190227275E2,9.720842361E0,1.424327731E0,-6.951149702E-1
3.195227275E2,9.716654778E0,1.533201098E0,-6.765705943E-1
3.200227275E2,9.704092026E0,1.496710539E0,-6.065805554E-1
3.205227275E2,9.697511673E0,1.481755376E0,-6.783652306E-1
3.210227275E2,9.711869240E0,1.587637782E0,-6.783652306E-1
3.215227275E2,9.641879082E0,1.497906923E0,-6.526423693E-1
3.220227275E2,9.664012909E0,1.499701619E0,-7.094719410E-1
3.225227275E2,9.711270332E0,1.552343726E0,-6.077769399E-1
3.230227275E2,9.641280174E0,1.515853167E0,-6.969096065E-1
3.235227275E2,9.641280174E0,1.496710539E0,-6.520441771E-1
3.240227275E2,9.713663101E0,1.542772412E0,-7.334001660E-1
3.245227275E2,9.674779892E0,1.457827210E0,-7.812566161E-1
3.250227275E2,9.775876999E0,1.520040631E0,-6.795616150E-1
3.255227275E2,9.707083702E0,1.461416483E0,-5.778666735E-1
3.260227275E2,9.692726135E0,1.456630826E0,-6.191428304E-1
3.265227275E2,9.687940598E0,1.497906923E0,-6.699903607E-1
3.270227275E2,9.711270332E0,1.505683661E0,-8.183453679E-1
3.275227275E2,9.636494637E0,1.475773335E0,-8.153542876E-1
3.280227275E2,9.687342644E0,1.531406522E0,-7.597211599E-1
3.285227275E2,9.723235130E0,1.527817249E0,-7.274180651E-1
3.290227275E2,9.692128181E0,1.485344648E0,-8.039883971E-1
3.295227275E2,9.668798447E0,1.512263894E0,-7.549355626E-1
3.300227275E2,9.723235130E0,1.520040631E0,-8.087740541E-1
3.305227275E2,9.711869240E0,1.496710539E0,-8.117650747E-1
3.310227275E2,9.653842926E0,1.511067510E0,-8.548358679E-1
3.315227275E2,9.660423279E0,1.523031592E0,-8.297112584E-1
3.320227275E2,9.705288887E0,1.513460279E0,-7.770691514E-1
3.325227275E2,9.647860527E0,1.501496196E0,-8.117650747E-1
3.330227275E2,9.698708534E0,1.506281853E0,-8.458628058E-1
3.335227275E2,9.689137459E0,1.513460279E0,-9.140582681E-1
3.340227275E2,9.701699257E0,1.507478237E0,-8.727820516E-1
3.345227275E2,9.699306488E0,1.510469317E0,-8.261220455E-1
3.350227275E2,9.684351921E0,1.515853167E0,-9.511470199E-1
3.355227275E2,9.668798447E0,1.523031592E0,-9.966106415E-1
3.360227275E2,9.686145782E0,1.509272933E0,-8.793623447E-1
3.365227275E2,9.661021233E0,1.521835208E0,-9.379864931E-1
3.370227275E2,9.718449593E0,1.456032634E0,-7.357929349E-1
3.375227275E2,9.731011391E0,1.487139225E0,-7.926225066E-1
3.380227275E2,9.703494072E0,1.499103427E0,-8.183453679E-1
3.385227275E2,9.711270332E0,1.493121386E0,-8.135597110E-1
3.390227275E2,9.658628464E0,1.484746456E0,-8.871390224E-1
3.395227275E2,9.693922997E0,1.479960799E0,-1.031904817E0
3.400227275E2,9.577870369E0,1.462612867E0,-8.602197170E-1
3.405227275E2,9.741779327E0,1.552343726E0,-2.410768867E-1
3.410227275E2,9.687342644E0,1.526620865E0,-3.044866920E-1
3.415227275E2,9.704092026E0,1.545763373E0,-2.536391914E-1
3.420227275E2,9.686145782E0,1.518844128E0,-2.183450609E-1
3.425227275E2,9.716055870E0,1.530210137E0,-2.356930375E-1
3.430227275E2,9.713065147E0,1.534397483E0,-2.614158690E-1
3.435227275E2,9.707083702E0,1.528415442E0,-2.470589429E-1
3.440227275E2,9.711270332E0,1.528415442E0,-2.524427772E-1
3.445227275E2,9.716055870E0,1.533201098E0,-2.488535494E-1
3.450227275E2,9.693922997E0,1.513460279E0,-2.165504545E-1
3.455227275E2,9.689735413E0,1.520040631E0,-2.213360965E-1
3.460227275E2,9.708279610E0,1.531406522E0,-2.189432681E-1
3.465227275E2,9.686145782E0,1.515254974E0,-2.171486616E-1
3.470227275E2,9.704092026E0,1.506281853E0,-2.362912297E-1
3.475227275E2,9.664012909E0,1.529611826E0,-2.297109663E-1
3.480227275E2,9.717850685E0,1.525424480E0,-2.500499785E-1
3.485227275E2,9.726225853E0,1.534995675E0,-2.392822653E-1
3.490227275E2,9.695717812E0,1.539781332E0,-2.452643216E-1
3.495227275E2,9.726225853E0,1.536192179E0,-2.333002090E-1
3.500227275E2,9.719645500E0,1.537986755E0,-2.518445849E-1
3.505227275E2,9.699306488E0,1.523031592E0,-2.470589429E-1
3.510227275E2,9.701699257E0,1.518844128E0,-2.452643216E-1
3.515227275E2,9.697511673E0,1.534995675E0,-2.554338276E-1
3.520227275E2,9.721440315E0,1.529611826E0,-2.410768867E-1
3.525227275E2,9.705288887E0,1.532602906E0,-2.410768867E-1
3.530227275E2,9.705288887E0,1.531406522E0,-2.476571500E-1
3.535227275E2,9.704092026E0,1.526620865E0,-2.410768867E-1
3.540227275E2,9.702297211E0,1.523031592E0,-2.506481707E-1
3.545227275E2,9.700503349E0,1.536192179E0,-2.596212626E-1
3.550227275E2,9.699306488E0,1.532602906E0,-2.297109663E-1
3.555227275E2,9.699306488E0,1.537388563E0,-2.422732860E-1
3.560227275E2,9.702297211E0,1.543968797E0,-2.452643216E-1
3.565227275E2,9.701699257E0,1.531406522E0,-2.614158690E-1
3.570227275E2,9.698708534E0,1.531406522E0,-2.584248483E-1
3.575227275E2,9.705288887E0,1.533201098E0,-2.524427772E-1
3.580227275E2,9.710074425E0,1.537986755E0,-2.356930375E-1
3.585227275E2,9.697511673E0,1.556531072E0,-2.392822653E-1
3.590227275E2,9.716055870E0,1.537388563E0,-2.315055877E-1
3.595227275E2,9.706484795E0,1.540977836E0,-2.362912297E-1
3.600227275E2,9.687940598E0,1.531406522E0,-2.476571500E-1
3.605227275E2,9.714859962E0,1.534397483E0,-2.297109663E-1
3.610227275E2,9.714859962E0,1.529611826E0,-2.428714931E-1
3.615227275E2,9.713065147E0,1.532602906E0,-2.500499785E-1
3.620227275E2,9.720842361E0,1.527817249E0,-2.691925466E-1
3.625227275E2,9.716055870E0,1.532602906E0,-3.176472187E-1
3.630227275E2,9.708877563E0,1.536192179E0,-2.309073806E-1
3.635227275E2,9.734002113E0,1.526620865E0,-2.679961324E-1
3.640227275E2,9.708279610E0,1.525424480E0,-2.422732860E-1
3.645227275E2,9.704092026E0,1.539183140E0,-2.602194548E-1
3.650227275E2,9.707083702E0,1.534995675E0,-2.524427772E-1
3.655227275E2,9.711869240E0,1.536192179E0,-2.476571500E-1
3.660227275E2,9.719645500E0,1.521835208E0,-2.488535494E-1
3.665227275E2,9.717850685E0,1.539781332E0,-2.392822653E-1
3.670227275E2,9.692128181E0,1.536192179E0,-2.201396823E-1
3.675227275E2,9.711270332E0,1.520040631E0,-2.309073806E-1
3.680227275E2,9.719645500E0,1.520638824E0,-2.392822653E-1
3.685227275E2,9.711270332E0,1.523629785E0,-2.171486616E-1
3.690227275E2,9.697511673E0,1.527817249E0,-2.440679073E-1
3.695227275E2,9.659226418E0,1.512263894E0,1.375873089E-1
3.700227275E2,9.789635658E0,1.584048629E0,1.184447184E-1
3.705227275E2,9.673583984E0,1.590030670E0,1.103689432E0
3.710227275E2,9.714859962E0,1.573280931E0,1.215553880E0
3.715227275E2,9.702297211E0,1.551745534E0,1.292124271E0
3.720227275E2,9.689137459E0,1.574477315E0,1.242473125E0
3.725227275E2,9.714859962E0,1.561316729E0,1.252044439E0
3.730227275E2,9.738788605E0,1.592423439E0,1.261615753E0
3.735227275E2,9.644271851E0,1.549352646E0,1.211964726E0
3.740227275E2,9.689137459E0,1.560120344E0,1.179063320E0
3.745227275E2,9.725627899E0,1.568495274E0,1.201196909E0
3.750227275E2,9.710074425E0,1.561316729E0,1.233500123E0
3.755227275E2,9.683155060E0,1.569691658E0,1.274178028E0
3.760227275E2,9.719645500E0,1.564906001E0,1.286142230E0
3.765227275E2,9.754940033E0,1.574477315E0,1.231705427E0
3.770227275E2,9.686145782E0,1.534995675E0,1.279561877E0
3.775227275E2,9.810572624E0,1.573280931E0,1.128215909E0
3.780227275E2,9.763913155E0,1.501496196E0,1.241276741E0
3.785227275E2,9.734002113E0,1.394417405E0,1.148554921E0
3.790227275E2,9.710074425E0,1.366899967E0,1.166501045E0
3.795227275E2,9.697511673E0,1.323829174E0,1.089930773E0
3.800227275E2,9.675378799E0,1.272981644E0,1.035493970E0
3.805227275E2,9.799804688E0,1.193420291E0,1.048056364E0
3.810227275E2,9.871589661E0,1.283749342E0,9.702895880E-1
3.815227275E2,9.640084267E0,1.213759303E0,9.822536707E-1
3.820227275E2,9.649655342E0,1.218544960E0,8.297112584E-1
3.825227275E2,9.751948357E0,1.290927768E0,9.176474810E-1
3.830227275E2,9.762716293E0,1.202991605E0,8.745766878E-1
3.835227275E2,9.668199539E0,1.355534077E0,8.123632669E-1
3.840227275E2,9.700503349E0,1.457827210E0,7.070791125E-1
3.845227275E2,9.732806206E0,1.546959877E0,7.674978375E-1
3.850227275E2,9.694520950E0,1.467398524E0,6.873382926E-1
3.855227275E2,9.622138023E0,1.716850281E0,4.642075896E-1
3.860227275E2,9.778269768E0,1.596610904E0,1.292124242E-1
3.865227275E2,9.677771568E0,1.621137381E0,-1.082752272E-1
3.870227275E2,9.742377281E0,1.476969719E0,-1.040877849E-1
3.875227275E2,9.922437668E0,1.552343726E0,-5.144568533E-2
3.880227275E2,9.801001549E0,1.654636860E0,-2.620140910E-1
3.885227275E2,9.765707016E0,1.454836130E0,-2.470589429E-1
3.890227275E2,9.857233047E0,1.578066587E0,-4.480560422E-1
3.895227275E2,9.659226418E0,1.406979680E0,-4.007977843E-1
3.900227275E2,9.588638306E0,1.604387641E0,-1.561316848E-1
3.905227275E2,9.612566948E0,1.460818172E0,-1.770688742E-1
3.910227275E2,9.561718941E0,1.532602906E0,-4.049852192E-1
3.915227275E2,9.553942680E0,1.436890006E0,-5.060819983E-1
3.920227275E2,9.582656860E0,1.479960799E0,-4.917250574E-1
3.925227275E2,9.604789734E0,1.510469317E0,-6.029912829E-1
3.930227275E2,9.542576790E0,1.418345571E0,-6.586244106E-1
3.935227275E2,9.558728218E0,1.557129383E0,-6.777670383E-1
3.940227275E2,9.565308571E0,1.440479279E0,-7.274180651E-1
3.945227275E2,9.610772133E0,1.504487276E0,-7.196413875E-1
3.950227275E2,9.622138023E0,1.472782373E0,-6.622136831E-1
3.955227275E2,9.771091461E0,1.558923960E0,-6.664010882E-1
3.960227275E2,9.727422714E0,1.447059512E0,-7.381857634E-1
3.965227275E2,9.660423279E0,1.553540111E0,-7.387840152E-1
3.970227275E2,9.716654778E0,1.497906923E0,-7.501499057E-1
3.975227275E2,9.768698692E0,1.470389485E0,-6.508477330E-1
3.980227275E2,9.660423279E0,1.540977836E0,-6.412764788E-1
3.985227275E2,9.649057388E0,1.507478237E0,-6.592226624E-1
3.990227275E2,9.649655342E0,1.521835208E0,-6.305087805E-1
3.995227275E2,9.631709099E0,1.458425403E0,-5.886343718E-1
4.000227275E2,9.684351921E0,1.582253933E0,-5.246263742E-1
4.005227275E2,9.677771568E0,1.518844128E0,-5.491527915E-1
4.010227275E2,9.781859398E0,1.523629785E0,-6.346961856E-1
4.015227275E2,9.576076508E0,1.447059512E0,-6.795616150E-1
4.020227275E2,9.670592308E0,1.550549030E0,-6.478567123E-1
4.025227275E2,9.681360245E0,1.447059512E0,-6.927221417E-1
4.030227275E2,9.605986595E0,1.486541033E0,-6.729813814E-1
4.035227275E2,9.679565430E0,1.408774376E0,-6.855437160E-1
4.040227275E2,9.828518867E0,1.426122308E0,-6.424728632E-1
4.045227275E2,9.874580383E0,1.426122308E0,-5.772684813E-1
4.050227275E2,9.957133293E0,1.317847013E0,-5.635097623E-1
4.055227275E2,9.955936432E0,1.391426325E0,-5.874379873E-1
4.060227275E2,9.923633575E0,1.338186026E0,-4.941178858E-1
4.065227275E2,9.863214493E0,1.147358418E0,-4.115654826E-1
4.070227275E2,1.003250694E1,1.192822099E0,-3.984049559E-1
4.075227275E2,9.856635094E0,1.302891970E0,-3.050848842E-1
4.080227275E2,9.866206169E0,1.339980721E0,-3.320041299E-1
4.085227275E2,9.722636223E0,1.310070395E0,-2.189432681E-1
4.090227275E2,9.770493507E0,1.367498159E0,-3.272185028E-1
4.095227275E2,9.763913155E0,1.507478237E0,-2.309073806E-1
4.100227275E2,9.638289452E0,1.461416483E0,-2.518445849E-1
4.105227275E2,9.710074425E0,1.537986755E0,-3.002992272E-1
4.110227275E2,9.683155060E0,1.432702541E0,-2.871387303E-1
4.115227275E2,9.738788605E0,1.638485312E0,-2.458625287E-1
4.120227275E2,9.652647018E0,1.755135417E0,-3.481557071E-1
4.125227275E2,9.606584549E0,1.686341763E0,-3.696911037E-1
4.130227275E2,9.684351921E0,1.820339799E0,-3.655036688E-1
4.135227275E2,9.675378799E0,1.772483349E0,-5.569294691E-1
4.140227275E2,9.784850121E0,1.754537225E0,-6.807580590E-1
4.145227275E2,9.640084267E0,1.711466432E0,-6.987041831E-1
4.150227275E2,9.634700775E0,1.667199135E0,-8.961120844E-1
4.155227275E2,9.754940033E0,1.619342685E0,-9.349954724E-1
4.160227275E2,9.700503349E0,1.719243050E0,-9.475577474E-1
4.165227275E2,9.699306488E0,1.588834286E0,-1.132403374E0
4.170227275E2,9.778867722E0,1.446461320E0,-1.237687469E0
4.175227275E2,9.665208817E0,1.670190215E0,-1.183250785E0
4.180227275E2,9.596415520E0,1.575673699E0,-1.159920812E0
4.185227275E2,9.703494072E0,1.620539188E0,-1.140179992E0
4.190227275E2,9.668199539E0,1.628315806E0,-1.200000525E0
4.195227275E2,9.629914284E0,1.588834286E0,-1.143769264E0
4.200227275E2,9.695717812E0,1.590030670E0,-1.417747378E0
4.205227275E2,9.657432556E0,1.487139225E0,-1.210768223E0
4.210227275E2,9.641879082E0,1.639681697E0,-1.185045362E0
4.215227275E2,9.640084267E0,1.423131227E0,-1.292124271E0
4.220227275E2,9.664012909E0,1.537986755E0,-1.235892892E0
4.225227275E2,9.668199539E0,1.499103427E0,-1.221535921E0
4.230227275E2,9.694520950E0,1.515254974E0,-1.275972724E0
4.235227275E2,9.644869804E0,1.520040631E0,-1.213759303E0
4.240227275E2,9.633503914E0,1.497906923E0,-1.028913736E0
4.245227275E2,9.708279610E0,1.475175142E0,-1.142572761E0
4.250227275E2,9.649655342E0,1.490130305E0,-1.127617717E0
4.255227275E2,9.634700775E0,1.453639746E0,-1.232901812E0
4.260227275E2,9.659226418E0,1.507478237E0,-1.176072359E0
4.265227275E2,9.676574707E0,1.496112347E0,-1.210768223E0
4.270227275E2,9.674779892E0,1.503889084E0,-1.115055323E0
4.275227275E2,9.650852203E0,1.482353687E0,-1.155135155E0
4.280227275E2,9.616155624E0,1.476969719E0,-1.167697430E0
4.285227275E2,9.626923561E0,1.472184181E0,-1.144965649E0
4.290227275E2,9.722636223E0,1.499701619E0,-1.058824062E0
4.295227275E2,9.655637741E0,1.509272933E0,-9.248259664E-1
4.300227275E2,9.674779892E0,1.486541033E0,-9.074779749E-1
4.305227275E2,9.690931320E0,1.514058471E0,-8.003991842E-1
4.310227275E2,9.679565430E0,1.497906923E0,-8.440681696E-1
4.315227275E2,9.708279610E0,1.494915962E0,-7.944171429E-1
4.320227275E2,9.704092026E0,1.501496196E0,-7.118647099E-1
4.325227275E2,9.749555588E0,1.515254974E0,-7.034898400E-1
4.330227275E2,9.699306488E0,1.518245935E0,-6.472585201E-1
4.335227275E2,9.718449593E0,1.512263894E0,-6.376872063E-1
4.340227275E2,9.690931320E0,1.506281853E0,-6.095715761E-1
4.345227275E2,9.723235130E0,1.491924882E0,-6.640082598E-1
4.350227275E2,9.683155060E0,1.513460279E0,-6.795616150E-1
4.355227275E2,9.675378799E0,1.500898004E0,-6.346961856E-1
4.360227275E2,9.683155060E0,1.521835208E0,-6.664010882E-1
4.365227275E2,9.697511673E0,1.515254974E0,-6.203392744E-1
4.370227275E2,9.701699257E0,1.512263894E0,-5.754738450E-1
4.375227275E2,9.668798447E0,1.485344648E0,-5.611169338E-1
4.380227275E2,9.708279610E0,1.508674622E0,-6.011967063E-1
4.385227275E2,9.673583984E0,1.508674622E0,-5.730810165E-1
4.390227275E2,9.721440315E0,1.502692580E0,-5.982056856E-1
4.395227275E2,9.669994354E0,1.508674622E0,-6.317051649E-1
4.400227275E2,9.671789169E0,1.515254974E0,-6.352944374E-1
4.405227275E2,9.646664619E0,1.496112347E0,-5.946164131E-1
4.410227275E2,9.697511673E0,1.505683661E0,-6.765705943E-1
4.415227275E2,9.690931320E0,1.493121386E0,-7.878368497E-1
4.420227275E2,9.641879082E0,1.482353687E0,-7.160521746E-1
4.425227275E2,9.689735413E0,1.521835208E0,-7.046862841E-1
4.430227275E2,9.708877563E0,1.507478237E0,-6.640082598E-1
4.435227275E2,9.707083702E0,1.507478237E0,-4.845465720E-1
4.440227275E2,9.692128181E0,1.513460279E0,-4.049852192E-1
4.445227275E2,9.723235130E0,1.536192179E0,-3.529413342E-1
4.450227275E2,9.697511673E0,1.520040631E0,-3.349951804E-1
4.455227275E2,9.724431038E0,1.517049551E0,-5.467599630E-1
4.460227275E2,9.647860527E0,1.491924882E0,-1.095912814E0
4.465227275E2,9.716055870E0,1.515254974E0,-2.093719840E-1
4.470227275E2,9.699306488E0,1.543968797E0,-4.606183618E-2
4.475227275E2,9.689735413E0,1.528415442E0,-1.782652885E-1
4.480227275E2,9.668199539E0,1.533201098E0,-2.087737769E-1
4.485227275E2,9.665806770E0,1.526620865E0,-2.404786795E-1
4.490227275E2,9.717850685E0,1.509272933E0,-2.410768867E-1
4.495227275E2,9.689137459E0,1.497906923E0,-2.285145670E-1
4.500227275E2,9.710074425E0,1.517049551E0,-1.998006850E-1
4.505227275E2,9.707083702E0,1.493121386E0,-2.135594189E-1
4.510227275E2,9.703494072E0,1.507478237E0,-1.944168359E-1
4.515227275E2,9.722636223E0,1.510469317E0,-1.884347796E-1
4.520227275E2,9.716055870E0,1.529611826E0,-1.992024779E-1
4.525227275E2,9.705288887E0,1.515853167E0,-2.141576260E-1
4.530227275E2,9.719645500E0,1.520040631E0,-1.962114573E-1
4.535227275E2,9.702297211E0,1.515853167E0,-2.123630047E-1
4.540227275E2,9.701699257E0,1.508674622E0,-2.219343036E-1
4.545227275E2,9.696913719E0,1.521835208E0,-2.069791555E-1
4.550227275E2,9.700503349E0,1.509272933E0,-1.998006850E-1
4.555227275E2,9.681360245E0,1.521835208E0,-1.962114573E-1
4.560227275E2,9.718449593E0,1.514058471E0,-2.620140910E-1
4.565227275E2,9.728020668E0,1.520040631E0,-2.039881349E-1
4.570227275E2,9.699306488E0,1.501496196E0,-2.021935135E-1
4.575227275E2,9.711869240E0,1.517049551E0,-2.189432681E-1
4.580227275E2,9.703494072E0,1.525424480E0,-1.902294010E-1
4.585227275E2,9.703494072E0,1.524826288E0,-1.974078715E-1
4.590227275E2,9.719645500E0,1.524826288E0,-1.932204217E-1
4.595227275E2,9.699306488E0,1.517049551E0,-1.980060786E-1
4.600227275E2,9.705288887E0,1.528415442E0,-2.039881349E-1
4.605227275E2,9.716654778E0,1.518844128E0,-1.980060786E-1
4.610227275E2,9.713663101E0,1.517049551E0,-1.806581169E-1
4.615227275E2,9.716654778E0,1.514058471E0,-1.896311939E-1
4.620227275E2,9.718449593E0,1.524826288E0,-2.069791555E-1
4.625227275E2,9.711270332E0,1.501496196E0,-2.057827413E-1
4.630227275E2,9.705288887E0,1.523031592E0,-2.279163599E-1
4.635227275E2,9.710074425E0,1.513460279E0,-1.962114573E-1
4.640227275E2,9.724431038E0,1.518245935E0,-1.980060786E-1
4.645227275E2,9.690931320E0,1.520040631E0,-2.075773627E-1
4.650227275E2,9.696913719E0,1.518844128E0,-2.027917206E-1
4.655227275E2,9.722636223E0,1.513460279E0,-1.980060786E-1
4.660227275E2,9.697511673E0,1.518245935E0,-1.962114573E-1
4.665227275E2,9.713065147E0,1.508674622E0,-1.722832322E-1
4.670227275E2,9.721440315E0,1.515853167E0,-1.950150430E-1
4.675227275E2,9.699306488E0,1.521835208E0,-2.231307179E-1
4.680227275E2,9.738788605E0,1.523031592E0,-2.105683982E-1
4.685227275E2,9.714859962E0,1.508674622E0,-2.261217386E-1
4.690227275E2,9.713065147E0,1.511067510E0,-2.249253243E-1
4.695227275E2,9.704092026E0,1.514058471E0,-1.896311939E-1
4.700227275E2,9.711270332E0,1.520638824E0,-1.932204217E-1
4.705227275E2,9.705288887E0,1.530210137E0,-2.315055877E-1
4.710227275E2,9.717850685E0,1.515853167E0,-2.123630047E-1
4.715227275E2,9.698708534E0,1.512263894E0,-1.926222295E-1
4.720227275E2,9.707083702E0,1.521835208E0,-2.021935135E-1
4.725227275E2,9.731011391E0,1.567897081E0,-3.176472187E-1
4.730227275E2,9.772287369E0,1.579262972E0,2.763710022E-1
4.735227275E2,9.670592308E0,1.545763373E0,9.744769931E-1
4.740227275E2,9.684351921E0,1.582253933E0,1.183250785E0
4.745227275E2,9.751350403E0,1.555334687E0,1.218544960E0
4.750227275E2,9.807581902E0,1.572682738E0,1.247258782E0
4.755227275E2,9.824930191E0,1.570888042E0,1.271785259E0
4.760227275E2,9.754940033E0,1.588834286E0,1.258624673E0
4.765227275E2,9.725627899E0,1.601994753E0,1.208973646E0
4.770227275E2,9.771091461E0,1.623530149E0,1.231107235E0
4.775227275E2,9.730413437E0,1.579262972E0,1.284347534E0
4.780227275E2,9.749555588E0,1.600200176E0,1.240678549E0
4.785227275E2,9.736993790E0,1.639681697E0,1.260419369E0
4.790227275E2,9.739984512E0,1.630708575E0,1.226919770E0
4.795227275E2,9.718449593E0,1.625324726E0,1.311266780E0
4.800227275E2,9.689137459E0,1.628315806E0,1.255633712E0
4.805227275E2,9.683155060E0,1.640279889E0,1.229910851E0
4.810227275E2,9.671789169E0,1.660618901E0,1.237687469E0
4.815227275E2,9.660423279E0,1.673181176E0,1.269990563E0
4.820227275E2,9.651450157E0,1.668395638E0,1.238285661E0
4.825227275E2,9.738788605E0,1.670190215E0,1.123430252E0
4.830227275E2,9.678369522E0,1.617548108E0,1.019342422E0
4.835227275E2,9.786644936E0,1.655833244E0,1.030110121E0
4.840227275E2,9.663414001E0,1.496710539E0,1.016351461E0
4.845227275E2,9.651450157E0,1.764706731E0,8.231309652E-1
4.850227275E2,9.760921478E0,1.508674622E0,9.750752449E-1
4.855227275E2,9.530014038E0,1.822134495E0,9.122636318E-1
4.860227275E2,1.031665516E1,1.316052437E0,9.523434043E-1
4.865227275E2,9.626923561E0,1.691127419E0,8.673982024E-1
4.870227275E2,9.606584549E0,1.633101463E0,6.717849374E-1
4.875227275E2,9.644869804E0,1.684547186E0,4.893322289E-1
4.880227275E2,9.425926208E0,1.598405480E0,6.077769399E-1
4.885227275E2,9.924231529E0,1.287338614E0,5.150550604E-1
4.890227275E2,9.400203705E0,1.572682738E0,5.204389095E-1
4.895227275E2,1.000498962E1,1.604985833E0,6.113662124E-1
4.900227275E2,9.594022751E0,1.645065546E0,5.090730190E-1
4.905227275E2,9.667003632E0,1.537388563E0,5.533402562E-1
4.910227275E2,9.510871887E0,1.708475351E0,5.611169338E-1
4.915227275E2,9.671789169E0,1.633699656E0,1.357926875E-1
4.920227275E2,9.570094109E0,1.409970760E0,-4.097708762E-1
4.925227275E2,9.595218658E0,1.445264935E0,-6.861419082E-1
4.930227275E2,9.620942116E0,1.372283816E0,-7.292127013E-1
4.935227275E2,9.729216576E0,1.499701619E0,-5.425725579E-1
4.940227275E2,9.787840843E0,1.185643673E0,-6.927221417E-1
4.945227275E2,9.827920914E0,1.423131227E0,-6.873382926E-1
4.950227275E2,9.947562218E0,1.325623751E0,-6.430711150E-1
4.955227275E2,9.732806206E0,1.195214868E0,-4.319044948E-1
4.960227275E2,9.698708534E0,1.202991605E0,-5.569294691E-1
4.965227275E2,9.770493507E0,1.223330617E0,-4.175475538E-1
4.970227275E2,9.802198410E0,1.503889084E0,-4.755735099E-1
4.975227275E2,9.853643417E0,1.419542074E0,-4.127618968E-1
4.980227275E2,9.780662537E0,1.606780410E0,-4.845465720E-1
4.985227275E2,9.882357597E0,1.397408366E0,-3.553341627E-1
4.990227275E2,9.880562782E0,1.620539188E0,-3.415754437E-1
4.995227275E2,9.944570541E0,1.393819213E0,-3.601198196E-1
5.000227275E2,9.783055305E0,1.518844128E0,-2.267199457E-1
5.005227275E2,9.919445992E0,1.536192179E0,-1.902294010E-1
5.010227275E2,9.649655342E0,1.515254974E0,-2.404786795E-1
5.015227275E2,9.646664619E0,1.461416483E0,-4.241278172E-1
5.020227275E2,9.744770050E0,1.141974568E0,-7.657032609E-1
5.025227275E2,9.717850685E0,7.597211599E-1,-7.932206988E-1
5.030227275E2,9.736993790E0,7.782655358E-1,-9.302098155E-1
5.035227275E2,9.769296646E0,9.750752151E-2,-1.082752228E0
5.040227275E2,9.566504478E0,1.295713425E0,-1.022931695E0
5.045227275E2,9.742377281E0,1.218544960E0,-1.209571838E0
5.050227275E2,9.689137459E0,1.458425403E0,-9.858429432E-1
5.055227275E2,9.623932838E0,1.485344648E0,-1.199402332E0
5.060227275E2,9.657432556E0,1.525424480E0,-8.967102766E-1
5.065227275E2,9.708877563E0,1.439282775E0,-9.320043921E-1
5.070227275E2,9.783653259E0,1.453041553E0,-9.828519225E-1
5.075227275E2,9.699306488E0,1.405185103E0,-1.037288666E0
5.080227275E2,9.623932838E0,1.456032634E0,-1.000199914E0
5.085227275E2,9.748359680E0,1.487139225E0,-9.074779749E-1
5.090227275E2,9.795019150E0,1.445264935E0,-7.166503668E-1
5.095227275E2,9.713663101E0,1.482353687E0,-6.233302951E-1
5.100227275E2,9.668199539E0,1.526620865E0,-5.371887088E-1
5.105227275E2,9.704092026E0,1.526620865E0,-4.402793646E-1
5.110227275E2,9.743574142E0,1.469193101E0,-4.163511395E-1
5.115227275E2,9.662218094E0,1.511067510E0,-3.864408433E-1
5.120227275E2,9.681360245E0,1.458425403E0,-3.409772217E-1
5.125227275E2,9.727422714E0,1.450050473E0,-2.985046208E-1
5.130227275E2,9.684949875E0,1.684547186E0,-3.224328458E-1
5.135227275E2,9.631709099E0,1.422533035E0,-3.427718580E-1
5.140227275E2,1.011505985E1,1.477568030E0,-2.470589429E-1
5.145227275E2,9.801001549E0,1.371685624E0,-3.637090325E-1
5.150227275E2,9.652647018E0,1.465603828E0,-2.853440940E-1
5.155227275E2,9.711869240E0,1.344766378E0,-3.050848842E-1
5.160227275E2,9.727422714E0,1.478764415E0,-3.559323549E-1
5.165227275E2,9.791430473E0,1.462612867E0,-2.309073806E-1
5.170227275E2,9.717850685E0,1.402194023E0,-3.379862010E-1
5.175227275E2,9.790233612E0,1.515254974E0,-3.445664644E-1
5.180227275E2,9.649655342E0,1.453639746E0,-2.297109663E-1
5.185227275E2,9.600004196E0,1.418345571E0,-4.654040039E-1
5.190227275E2,9.700503349E0,1.517049551E0,-3.511467278E-1
5.195227275E2,9.692726135E0,1.396211982E0,-3.272185028E-1
5.200227275E2,9.801001549E0,1.433898926E0,-3.284149170E-1
5.205227275E2,9.759725571E0,1.332203984E0,-1.806581169E-1
5.210227275E2,9.718449593E0,1.392622828E0,-1.052841991E-1
5.215227275E2,9.787840843E0,1.424327731E0,-1.980060786E-1
5.220227275E2,9.781859398E0,1.554138303E0,-3.032902777E-1
5.225227275E2,9.705288887E0,1.482353687E0,-2.279163599E-1
5.230227275E2,9.852447510E0,1.571486235E0,-3.708875179E-2
5.235227275E2,9.731011391E0,1.620539188E0,-4.785645381E-2
5.240227275E2,9.802198410E0,1.613958836E0,-1.788634956E-1
5.245227275E2,9.872786522E0,1.596610904E0,-7.776673883E-2
5.250227275E2,9.848857880E0,1.518245935E0,-9.092725813E-2
5.255227275E2,9.826724052E0,1.422533035E0,-6.819544733E-2
5.260227275E2,1.003190899E1,1.356132269E0,-4.187439755E-2
5.265227275E2,9.719645500E0,1.288534999E0,2.392822690E-2
5.270227275E2,9.719645500E0,1.356132269E0,2.602194548E-1
5.275227275E2,9.804591179E0,1.458425403E0,5.485545993E-1
5.280227275E2,9.943374634E0,1.193420291E0,3.272185028E-1
5.285227275E2,1.000678444E1,1.111466169E0,4.701896608E-1
5.290227275E2,9.906285286E0,1.118046403E0,4.498506486E-1
5.295227275E2,9.455238342E0,1.510469317E0,-1.196411322E-3
5.300227275E2,9.735198975E0,1.344766378E0,3.002992272E-1
5.305227275E2,9.714859962E0,1.386042476E0,3.846462369E-1
5.310227275E2,9.802796364E0,1.420140266E0,5.132604837E-1
5.315227275E2,9.830911636E0,1.138983607E0,6.017948985E-1
5.320227275E2,9.625727654E0,1.137188911E0,5.330012441E-1
5.325227275E2,1.001156998E1,1.235892892E0,4.803591371E-1
5.330227275E2,9.881160736E0,1.282552958E0,4.384847581E-1
5.335227275E2,9.742377281E0,1.232901812E0,3.792623878E-1
5.340227275E2,9.665208817E0,1.225125194E0,5.330012441E-1
5.345227275E2,9.609575272E0,1.419542074E0,4.660021961E-1
5.350227275E2,9.617352486E0,1.476969719E0,4.689932466E-1
5.355227275E2,9.373284340E0,1.544566989E0,-5.443671346E-1
5.360227275E2,9.428917885E0,1.365105271E0,2.204986095E0
5.365227275E2,9.474381447E0,1.271785259E0,2.365903378E0
5.370227275E2,9.457631111E0,1.746760488E0,1.793420553E0
5.375227275E2,9.696913719E0,1.585843205E0,5.551348329E-1
5.380227275E2,9.692128181E0,1.540977836E0,3.798605800E-1
5.385227275E2,9.631709099E0,1.735992789E0,2.392822690E-2
5.390227275E2,9.649057388E0,1.730608940E0,4.965106845E-1
5.395227275E2,9.735796928E0,1.682752490E0,2.644068897E-1
5.400227275E2,9.687342644E0,1.774278045E0,2.392822653E-1
5.405227275E2,9.729216576E0,1.744965911E0,5.054838061E-1
5.410227275E2,9.785448074E0,1.724626899E0,1.734796464E-1
5.415227275E2,9.759725571E0,1.826920033E0,2.165504545E-1
5.420227275E2,9.818947792E0,1.486541033E0,2.069791555E-1
5.425227275E2,9.812367439E0,1.677966833E0,7.058826834E-2
5.430227275E2,9.667003632E0,1.408176184E0,3.475574851E-1
5.435227275E2,9.784850121E0,1.569691658E0,2.967100143E-1
5.440227275E2,9.683155060E0,1.567897081E0,2.105683982E-1
5.445227275E2,9.723235130E0,1.484746456E0,-2.392822690E-2
5.450227275E2,9.488140106E0,1.542174220E0,-1.435693540E-2
5.455227275E2,9.588638306E0,1.472782373E0,-1.184447184E-1
5.460227275E2,9.617352486E0,1.477568030E0,-1.178465188E-1
5.465227275E2,9.692726135E0,1.507478237E0,-2.955136001E-1
5.470227275E2,9.653842926E0,1.534397483E0,-8.015955985E-2
5.475227275E2,9.693922997E0,1.482353687E0,-1.854437590E-1
5.480227275E2,9.560523033E0,1.496112347E0,-2.458625287E-1
5.485227275E2,9.641879082E0,1.504487276E0,-3.206382394E-1
5.490227275E2,9.766305923E0,1.503889084E0,-2.183450609E-1
5.495227275E2,9.605986595E0,1.456630826E0,-2.500499785E-1
5.500227275E2,9.673583984E0,1.555334687E0,-3.320041299E-1
5.505227275E2,9.665806770E0,1.403390527E0,-3.810569942E-1
5.510227275E2,9.771091461E0,1.520638824E0,-4.725824594E-1
5.515227275E2,9.740582466E0,1.458425403E0,-4.384847581E-1
5.520227275E2,9.765707016E0,1.581057549E0,-5.084748268E-1
5.525227275E2,9.683155060E0,1.509272933E0,-3.894318938E-1
5.530227275E2,9.706484795E0,1.483550072E0,-5.216353536E-1
5.535227275E2,9.707083702E0,1.521835208E0,-4.701896608E-1
5.540227275E2,9.753145218E0,1.476969719E0,-5.443671346E-1
5.545227275E2,9.690931320E0,1.523629785E0,-5.347958803E-1
5.550227275E2,9.697511673E0,1.472782373E0,-4.325026870E-1
5.555227275E2,9.657432556E0,1.523031592E0,-3.864408433E-1
5.560227275E2,9.698708534E0,1.529611826E0,-4.701896608E-1
5.565227275E2,9.721440315E0,1.506281853E0,-4.259224236E-1
5.570227275E2,9.714859962E0,1.488335729E0,-4.941178858E-1
5.575227275E2,9.743574142E0,1.507478237E0,-5.443671346E-1
5.580227275E2,9.716654778E0,1.510469317E0,-6.364908218E-1
5.585227275E2,9.704092026E0,1.491924882E0,-6.173482537E-1
5.590227275E2,9.672985077E0,1.520040631E0,-5.659025311E-1
5.595227275E2,9.753145218E0,1.475773335E0,-6.059823632E-1
5.600227275E2,9.692726135E0,1.473978758E0,-6.173482537E-1
5.605227275E2,9.682557106E0,1.457827210E0,-5.868397355E-1
5.610227275E2,9.658628464E0,1.491326690E0,-5.676971674E-1
5.615227275E2,9.649057388E0,1.472184181E0,-5.868397355E-1
5.620227275E2,9.728020668E0,1.517049551E0,-6.873382926E-1
5.625227275E2,9.717850685E0,1.524826288E0,-6.352944374E-1
5.630227275E2,9.735198975E0,1.518245935E0,-6.400800347E-1
5.635227275E2,9.662218094E0,1.475175142E0,-6.975077987E-1
5.640227275E2,9.664012909E0,1.499701619E0,-6.239284873E-1
5.645227275E2,9.689137459E0,1.574477315E0,6.101697683E-2
5.650227275E2,9.718449593E0,1.530210137E0,-9.092725813E-2
5.655227275E2,9.663414001E0,1.514058471E0,-1.914258115E-2
5.660227275E2,9.765707016E0,1.537388563E0,6.101697683E-2
5.665227275E2,9.717850685E0,1.542772412E0,4.785645381E-2
5.670227275E2,9.687342644E0,1.526620865E0,5.623133108E-2
5.675227275E2,9.673583984E0,1.520638824E0,7.537391037E-2
5.680227275E2,9.647860527E0,1.504487276E0,7.956135273E-2
5.685227275E2,9.720842361E0,1.561316729E0,3.469592705E-2
5.690227275E2,9.646664619E0,1.515254974E0,5.922235921E-2
5.695227275E2,9.744770050E0,1.552343726E0,3.948157281E-2
5.700227275E2,9.726225853E0,1.515254974E0,1.405783296E-1
5.705227275E2,9.486345291E0,1.660618901E0,2.889333367E-1
5.710227275E2,9.655637741E0,1.507478237E0,-6.699903309E-2
5.715227275E2,9.740582466E0,1.520638824E0,-1.794616925E-3
5.720227275E2,9.595218658E0,1.469193101E0,1.645065546E-1
5.725227275E2,9.823135376E0,1.419542074E0,7.776673418E-3
5.730227275E2,9.732806206E0,1.406979680E0,1.136590764E-1
5.735227275E2,9.783055305E0,1.409970760E0,1.178465188E-1
5.740227275E2,9.759127617E0,1.429113269E0,1.782652885E-1
5.745227275E2,9.751350403E0,1.386042476E0,1.686939895E-1
5.750227275E2,9.664012909E0,1.386640668E0,1.950150430E-1
5.755227275E2,9.699306488E0,1.372283816E0,1.627119333E-1
5.760227275E2,9.765707016E0,1.384247899E0,1.256231815E-1
5.765227275E2,9.684949875E0,1.384247899E0,1.848455518E-1
5.770227275E2,9.659226418E0,1.400997639E0,2.285145670E-1
5.775227275E2,9.737591743E0,1.426122308E0,2.518445849E-1
5.780227275E2,9.805787086E0,1.400399446E0,2.518445849E-1
5.785227275E2,9.681360245E0,1.396211982E0,2.380858511E-1
5.790227275E2,9.713065147E0,1.383051515E0,2.458625287E-1
5.795227275E2,9.775876999E0,1.424327731E0,2.667997181E-1
5.800227275E2,9.769296646E0,1.417747378E0,2.757728100E-1
5.805227275E2,9.768698692E0,1.419542074E0,2.697907388E-1
5.810227275E2,9.725627899E0,1.414756417E0,2.985046208E-1
5.815227275E2,9.786644936E0,1.434497118E0,2.691925466E-1
5.820227275E2,9.793225288E0,1.441675663E0,2.428714931E-1
5.825227275E2,9.830911636E0,1.422533035E0,1.932204217E-1
5.830227275E2,9.695717812E0,1.396211982E0,2.566302419E-1
5.835227275E2,9.787840843E0,1.421336651E0,2.901297510E-1
5.840227275E2,9.786644936E0,1.448255897E0,2.422732860E-1
5.845227275E2,9.740582466E0,1.434497118E0,2.679961324E-1
5.850227275E2,9.689137459E0,1.410568953E0,3.014956415E-1
5.855227275E2,9.683155060E0,1.429113269E0,2.327020019E-1
5.860227275E2,9.746564865E0,1.501496196E0,2.201396823E-1
5.865227275E2,9.713065147E0,1.469193101E0,1.932204217E-1
5.870227275E2,9.675378799E0,1.494317770E0,1.974078715E-1
5.875227275E2,9.683155060E0,1.488335729E0,2.219343036E-1
5.880227275E2,9.722636223E0,1.515853167E0,2.213360965E-1
5.885227275E2,9.762716293E0,1.514058471E0,2.297109663E-1
5.890227275E2,9.664012909E0,1.490130305E0,2.285145670E-1
5.895227275E2,9.694520950E0,1.494915962E0,2.327020019E-1
5.900227275E2,9.743574142E0,1.523031592E0,2.392822653E-1
5.905227275E2,9.760921478E0,1.542174220E0,1.830509305E-1
5.910227275E2,9.740582466E0,1.527817249E0,2.279163599E-1
5.915227275E2,9.684351921E0,1.507478237E0,6.412764788E-1
5.920227275E2,9.740582466E0,1.557129383E0,7.668996453E-1
5.925227275E2,9.646066666E0,1.574477315E0,1.770688772E0
5.930227275E2,9.620343208E0,1.595414519E0,1.795813441E0
5.935227275E2,9.569496155E0,1.551745534E0,1.895115495E0
5.940227275E2,9.668798447E0,1.582253933E0,1.849053741E0
5.945227275E2,9.644271851E0,1.596610904E0,1.886740685E0
5.950227275E2,9.600004196E0,1.540977836E0,1.920838356E0
5.955227275E2,9.555138588E0,1.539183140E0,1.922034740E0
5.960227275E2,9.525228500E0,1.523031592E0,1.945963025E0
5.965227275E2,9.692726135E0,1.585245013E0,1.820339799E0
5.970227275E2,9.634700775E0,1.514058471E0,1.954337835E0
5.975227275E2,9.528220177E0,1.523629785E0,1.917847395E0
5.980227275E2,9.576076508E0,1.510469317E0,1.960918188E0
5.985227275E2,9.564710617E0,1.494915962E0,1.984846354E0
5.990227275E2,9.613164902E0,1.515254974E0,2.002194405E0
5.995227275E2,9.571290970E0,1.467996716E0,1.994417667E0
6.000227275E2,9.556933403E0,1.410568953E0,2.043470621E0
6.005227275E2,9.531210899E0,1.419542074E0,2.090130568E0
6.010227275E2,9.607781410E0,1.461416483E0,1.941177368E0
6.015227275E2,9.560523033E0,1.351346612E0,1.916052699E0
6.020227275E2,9.571290970E0,1.458425403E0,1.862812400E0
6.025227275E2,9.512666702E0,1.367498159E0,1.727617979E0
6.030227275E2,9.497711182E0,1.383051515E0,1.663609982E0
6.035227275E2,9.708279610E0,1.216750264E0,1.587637782E0
6.040227275E2,9.433703423E0,1.226321578E0,1.614557028E0
6.045227275E2,9.515657425E0,1.346560955E0,1.542772412E0
6.050227275E2,9.552147865E0,1.266999602E0,1.469193101E0
6.055227275E2,9.649655342E0,1.214357495E0,1.432104349E0
6.060227275E2,9.550951958E0,1.362712502E0,1.399203062E0
6.065227275E2,9.548559189E0,1.266401410E0,1.298704505E0
6.070227275E2,9.449854851E0,1.470987678E0,1.253839016E0
6.075227275E2,9.635298729E0,1.437488198E0,1.172483087E0
6.080227275E2,9.700503349E0,1.489532113E0,1.252642632E0
6.085227275E2,9.641879082E0,1.646261930E0,1.162911773E0
6.090227275E2,9.656235695E0,1.459621787E0,1.269990563E0
6.095227275E2,9.700503349E0,1.479960799E0,1.231705427E0
6.100227275E2,9.798010826E0,1.660618901E0,1.030708313E0
6.105227275E2,1.000857925E1,1.795813441E0,6.520441771E-1
6.110227275E2,9.998409271E0,1.769492388E0,5.563312769E-1
6.115227275E2,9.866206169E0,1.845464468E0,4.390829504E-1
6.120227275E2,1.008694363E1,1.970489502E0,4.067798555E-1
6.125227275E2,9.982855797E0,2.174477577E0,6.065805554E-1
6.130227275E2,9.796216011E0,2.073380709E0,4.354937077E-1
6.135227275E2,9.960124016E0,2.079961061E0,5.012963414E-1
6.140227275E2,9.734002113E0,2.030309916E0,4.534398913E-1
6.145227275E2,9.850054741E0,1.916052699E0,3.122633696E-1
6.150227275E2,9.604789734E0,2.277967215E0,4.594219327E-1
6.155227275E2,9.764511108E0,2.213959217E0,3.553341627E-1
6.160227275E2,9.696913719E0,2.135594130E0,3.062812984E-1
6.165227275E2,9.687342644E0,2.185245275E0,5.060819983E-1
6.170227275E2,9.306883812E0,2.257628202E0,4.965106845E-1
6.175227275E2,9.713663101E0,2.027318954E0,2.805584669E-1
6.180227275E2,9.728020668E0,1.915454507E0,4.181457460E-1
6.185227275E2,9.805787086E0,2.068595171E0,5.186443329E-1
6.190227275E2,9.744770050E0,1.821536183E0,3.493520916E-1
6.195227275E2,9.882357597E0,1.628913999E0,3.954139352E-1
6.200227275E2,9.856635094E0,1.644467354E0,3.571287692E-1
6.205227275E2,9.756135941E0,1.636690736E0,6.299105883E-1
6.210227275E2,9.735198975E0,1.395613790E0,5.425725579E-1
6.215227275E2,9.793225288E0,1.494317770E0,3.768695593E-1
6.220227275E2,9.821340561E0,1.467398524E0,3.637090325E-1
6.225227275E2,9.793225288E0,1.563709617E0,3.110669553E-1
6.230227275E2,9.650852203E0,1.417747378E0,3.367897868E-1
6.235227275E2,9.700503349E0,1.625324726E0,3.194418252E-1
6.240227275E2,9.692726135E0,1.444068432E0,3.577269912E-1
6.245227275E2,9.938589096E0,1.619342685E0,4.612165689E-1
6.250227275E2,9.810572624E0,1.585245013E0,3.990031779E-1
6.255227275E2,9.724431038E0,1.531406522E0,3.672982752E-1
6.260227275E2,9.753145218E0,1.601396561E0,4.486542344E-1
6.265227275E2,9.660423279E0,1.491924882E0,5.090730190E-1
6.270227275E2,9.734002113E0,1.549352646E0,5.676971674E-1
6.275227275E2,9.815358162E0,1.549352646E0,3.601198196E-1
6.280227275E2,9.700503349E0,1.546959877E0,6.299105883E-1
6.285227275E2,9.614361763E0,1.579262972E0,4.917250574E-1
6.290227275E2,9.538987160E0,1.351346612E0,5.359922647E-1
6.295227275E2,9.671789169E0,1.591825247E0,2.835494876E-1
6.300227275E2,9.655637741E0,1.464407444E0,5.551348329E-1
6.305227275E2,9.635298729E0,1.478764415E0,5.282155871E-1
6.310227275E2,9.704092026E0,1.664208174E0,3.984049559E-1
6.315227275E2,9.622735977E0,1.467398524E0,4.516452849E-1
6.320227275E2,9.617352486E0,1.646261930E0,4.929214716E-1
6.325227275E2,9.696913719E0,1.571486235E0,5.443671346E-1
6.330227275E2,9.658628464E0,1.491924882E0,5.264210105E-1
6.335227275E2,9.573084831E0,1.511067510E0,6.394818425E-1
6.340227275E2,9.713065147E0,1.551745534E0,6.568298340E-1
6.345227275E2,9.895518303E0,1.564906001E0,6.807580590E-1
6.350227275E2,9.818947792E0,1.684547186E0,7.130611539E-1
6.355227275E2,9.694520950E0,1.877169371E0,6.317051649E-1
6.360227275E2,9.783055305E0,1.883749604E0,6.191428304E-1
6.365227275E2,9.850652695E0,1.984248161E0,6.735795736E-1
6.370227275E2,9.760921478E0,1.966900229E0,7.022934556E-1
6.375227275E2,9.659226418E0,2.073979139E0,7.860422134E-1
6.380227275E2,9.707083702E0,1.932204247E0,8.739784956E-1
6.385227275E2,9.794421196E0,1.901695848E0,8.841479421E-1
6.390227275E2,9.729216576E0,1.765903115E0,9.439685345E-1
6.395227275E2,9.738788605E0,1.655833244E0,8.889335990E-1
6.400227275E2,9.473783493E0,1.584048629E0,8.356932998E-1
6.405227275E2,9.605986595E0,1.628913999E0,8.213363886E-1
6.410227275E2,9.694520950E0,1.533201098E0,8.841479421E-1
6.415227275E2,9.750154495E0,1.301695466E0,9.343972206E-1
6.420227275E2,9.647860527E0,1.310070395E0,9.702895880E-1
6.425227275E2,9.739984512E0,1.280758262E0,9.284151793E-1
6.430227275E2,9.809376717E0,1.418345571E0,8.315058947E-1
6.435227275E2,9.803992271E0,1.006181955E0,9.314061999E-1
6.440227275E2,9.928419113E0,1.153340459E0,8.434699774E-1
6.445227275E2,9.701699257E0,1.159920812E0,3.242274821E-1
6.450227275E2,9.909874916E0,1.360917926E0,4.223332107E-1
6.455227275E2,9.823733330E0,1.109073281E0,4.582255483E-1
6.460227275E2,9.774082184E0,1.116251707E0,3.960121572E-1
6.465227275E2,9.729216576E0,1.046859860E0,4.229314029E-1
6.470227275E2,9.893723488E0,1.164706469E0,4.079762697E-1
6.475227275E2,9.760921478E0,1.161715388E0,3.332005441E-1
6.480227275E2,9.452845573E0,1.299900889E0,1.806581169E-1
6.485227275E2,9.250652313E0,1.368694544E0,2.518445849E-1
6.490227275E2,9.348159790E0,1.355534077E0,1.657029688E-1
6.495227275E2,9.491728783E0,1.442273855E0,6.699903309E-2
6.500227275E2,9.481559753E0,1.469193101E0,-6.699903309E-2
6.505227275E2,9.620942116E0,1.427318692E0,-1.130608693E-1
6.510227275E2,9.711270332E0,1.533201098E0,-2.440679073E-1
6.515227275E2,9.746564865E0,1.512263894E0,-1.339980662E-1
6.520227275E2,9.623932838E0,1.411765337E0,-2.709871531E-1
6.525227275E2,9.610772133E0,1.479960799E0,-2.793620527E-1
6.530227275E2,9.546165466E0,1.473978758E0,-2.967100143E-1
6.535227275E2,9.923633575E0,1.899901152E0,-3.906283081E-1
6.540227275E2,9.952347755E0,1.383051515E0,-3.906283081E-1
6.545227275E2,9.719645500E0,1.555334687E0,-3.427718580E-1
6.550227275E2,9.840482712E0,1.246062398E0,-1.896311939E-1
6.555227275E2,9.704092026E0,1.634896040E0,-2.650051117E-1
6.560227275E2,9.728020668E0,1.533201098E0,-4.947160780E-1
6.565227275E2,9.698708534E0,1.521835208E0,-3.702892959E-1
6.570227275E2,9.687342644E0,1.491326690E0,-3.649054468E-1
6.575227275E2,9.619147301E0,1.488335729E0,-2.045863420E-1
6.580227275E2,9.788438797E0,1.463211060E0,-2.404786795E-1
6.585227275E2,9.579665184E0,1.527817249E0,-2.392822653E-1
6.590227275E2,9.743574142E0,1.486541033E0,-2.410768867E-1
6.595227275E2,9.770493507E0,1.511067510E0,-1.902294010E-1
6.600227275E2,9.799804688E0,1.539183140E0,-1.914258152E-1
6.605227275E2,9.701699257E0,1.465603828E0,-2.919243574E-1
6.610227275E2,9.668798447E0,1.499103427E0,-1.950150430E-1
6.615227275E2,9.676574707E0,1.442273855E0,-2.135594189E-1
6.620227275E2,9.678369522E0,1.532602906E0,-1.974078715E-1
6.625227275E2,9.734002113E0,1.510469317E0,-3.314059377E-1
6.630227275E2,9.732208252E0,1.482353687E0,-2.715853751E-1
6.635227275E2,9.744770050E0,1.466202021E0,-2.650051117E-1
6.640227275E2,9.700503349E0,1.500898004E0,-2.410768867E-1
6.645227275E2,9.708279610E0,1.454836130E0,-3.577269912E-1
6.650227275E2,9.753145218E0,1.497906923E0,-2.518445849E-1
6.655227275E2,9.667003632E0,1.463211060E0,-2.697907388E-1
6.660227275E2,9.684949875E0,1.470987678E0,-3.272185028E-1
6.665227275E2,9.742377281E0,1.479960799E0,-3.379862010E-1
6.670227275E2,9.716055870E0,1.478764415E0,-3.254238665E-1
6.675227275E2,9.689137459E0,1.489532113E0,-3.332005441E-1
6.680227275E2,9.713065147E0,1.469193101E0,-2.931207716E-1
6.685227275E2,9.706484795E0,1.467398524E0,-2.596212626E-1
6.690227275E2,9.731011391E0,1.494317770E0,-3.619144261E-1
6.695227275E2,9.716055870E0,1.488335729E0,-3.349951804E-1
6.700227275E2,9.720842361E0,1.470389485E0,-3.218346536E-1
6.705227275E2,9.693922997E0,1.462612867E0,-3.702892959E-1
6.710227275E2,9.707083702E0,1.467398524E0,-3.337987661E-1
6.715227275E2,9.713663101E0,1.475175142E0,-3.672982752E-1
6.720227275E2,9.678369522E0,1.470389485E0,-3.846462369E-1
6.725227275E2,9.697511673E0,1.479960799E0,-4.001995921E-1
6.730227275E2,9.711270332E0,1.458425403E0,-3.942175210E-1
6.735227275E2,9.711869240E0,1.491326690E0,-5.778666735E-1
6.740227275E2,9.741779327E0,1.491924882E0,-5.395814776E-1
6.745227275E2,9.723235130E0,1.467996716E0,-5.635097623E-1
6.750227275E2,9.730413437E0,1.478764415E0,-5.659025311E-1
6.755227275E2,9.727422714E0,1.464407444E0,-5.904290080E-1
6.760227275E2,9.732208252E0,1.450050473E0,-5.706881881E-1
6.765227275E2,9.711869240E0,1.459621787E0,-5.760720372E-1
6.770227275E2,9.734002113E0,1.461416483E0,-6.777670383E-1
6.775227275E2,9.767501831E0,1.504487276E0,2.518445849E-1
6.780227275E2,9.728020668E0,1.491326690E0,2.554338276E-1
6.785227275E2,9.701699257E0,1.481755376E0,2.069791555E-1
6.790227275E2,9.692128181E0,1.487139225E0,1.579262912E-1
6.795227275E2,9.735796928E0,1.504487276E0,1.339980662E-1
6.800227275E2,9.741779327E0,1.528415442E0,2.027917206E-1
6.805227275E2,9.703494072E0,1.506281853E0,1.980060786E-1
6.810227275E2,9.716654778E0,1.520040631E0,1.806581169E-1
6.815227275E2,9.701699257E0,1.499701619E0,2.105683982E-1
6.820227275E2,9.721440315E0,1.491924882E0,1.974078715E-1
6.825227275E2,9.706484795E0,1.520040631E0,1.806581169E-1
6.830227275E2,9.695717812E0,1.470987678E0,1.962114573E-1
6.835227275E2,9.689735413E0,1.506281853E0,2.039881349E-1
6.840227275E2,9.738788605E0,1.510469317E0,2.117647976E-1
6.845227275E2,9.775876999E0,1.536192179E0,2.057827413E-1
6.850227275E2,9.740582466E0,1.533201098E0,2.075773627E-1
6.855227275E2,9.689735413E0,1.464407444E0,2.075773627E-1
6.860227275E2,9.766305923E0,1.525424480E0,2.219343036E-1
6.865227275E2,9.766305923E0,1.372283816E0,-6.580262445E-3
6.870227275E2,9.713663101E0,1.458425403E0,1.112662554E-1
6.875227275E2,9.764511108E0,1.506281853E0,1.369891018E-1
6.880227275E2,9.706484795E0,1.467398524E0,1.579262912E-1
6.885227275E2,9.716055870E0,1.472782373E0,1.232303679E-1
6.890227275E2,9.732208252E0,1.475773335E0,1.112662554E-1
6.895227275E2,9.698708534E0,1.500898004E0,1.184447184E-1
6.900227275E2,9.763913155E0,1.502692580E0,1.417747438E-1
6.905227275E2,9.745368004E0,1.507478237E0,1.369891018E-1
6.910227275E2,9.703494072E0,1.513460279E0,1.196411327E-1
6.915227275E2,9.701699257E0,1.518844128E0,1.292124242E-1
6.920227275E2,9.697511673E0,1.496112347E0,1.136590764E-1
6.925227275E2,9.728020668E0,1.491924882E0,1.274178028E-1
6.930227275E2,9.740582466E0,1.501496196E0,9.750752151E-2
6.935227275E2,9.714859962E0,1.508674622E0,1.423729509E-1
6.940227275E2,9.708877563E0,1.500898004E0,1.304088384E-1
6.945227275E2,9.705288887E0,1.494915962E0,1.160518974E-1
6.950227275E2,9.713663101E0,1.491326690E0,1.184447184E-1
6.955227275E2,9.713065147E0,1.504487276E0,1.118644550E-1
6.960227275E2,9.717850685E0,1.504487276E0,1.357926875E-1
6.965227275E2,9.713663101E0,1.497906923E0,1.160518974E-1
6.970227275E2,9.713065147E0,1.506281853E0,1.561316848E-1
6.975227275E2,9.708279610E0,1.491924882E0,1.214357466E-1
6.980227275E2,9.708877563E0,1.491924882E0,1.088734269E-1
6.985227275E2,9.716654778E0,1.509272933E0,1.322034448E-1
6.990227275E2,9.702297211E0,1.504487276E0,1.274178028E-1
6.995227275E2,9.723235130E0,1.507478237E0,1.387837082E-1
7.000227275E2,9.708279610E0,1.512263894E0,1.405783296E-1
7.005227275E2,9.713065147E0,1.501496196E0,1.645065546E-1
7.010227275E2,9.719645500E0,1.496112347E0,1.513460279E-1
7.015227275E2,9.684351921E0,1.500898004E0,1.244267747E-1
7.020227275E2,9.716654778E0,1.517049551E0,1.322034448E-1
7.025227275E2,9.719645500E0,1.514058471E0,1.280160099E-1
7.030227275E2,9.710074425E0,1.503889084E0,1.357926875E-1
7.035227275E2,9.708279610E0,1.509272933E0,1.465603858E-1
7.040227275E2,9.701699257E0,1.499701619E0,1.178465188E-1
7.045227275E2,9.700503349E0,1.496112347E0,1.423729509E-1
7.050227275E2,9.664012909E0,1.508674622E0,1.280160099E-1
7.055227275E2,9.718449593E0,1.513460279E0,1.375873089E-1
7.060227275E2,9.729216576E0,1.523031592E0,2.518445849E-1
7.065227275E2,9.749555588E0,1.598405480E0,5.994020700E-1
7.070227275E2,9.679565430E0,1.553540111E0,1.332203984E0
7.075227275E2,9.569496155E0,1.545763373E0,1.515254974E0
7.080227275E2,9.654440880E0,1.549352646E0,1.596610904E0
7.085227275E2,9.655637741E0,1.564906001E0,1.668993831E0
7.090227275E2,9.612566948E0,1.566102386E0,1.637887120E0
7.095227275E2,9.661021233E0,1.576271892E0,1.671386600E0
7.100227275E2,9.622735977E0,1.575673699E0,1.655833244E0
7.105227275E2,9.605986595E0,1.556531072E0,1.634896040E0
7.110227275E2,9.662218094E0,1.540977836E0,1.648056626E0
7.115227275E2,9.649057388E0,1.568495274E0,1.666600943E0
7.120227275E2,9.663414001E0,1.584048629E0,1.671984792E0
7.125227275E2,9.632308006E0,1.585843205E0,1.678565025E0
7.130227275E2,9.591629982E0,1.524826288E0,1.685743570E0
7.135227275E2,9.615557671E0,1.546959877E0,1.738385677E0
7.140227275E2,9.594022751E0,1.524826288E0,1.773679733E0
7.145227275E2,9.669994354E0,1.557129383E0,1.679761529E0
7.150227275E2,9.615557671E0,1.515254974E0,1.733600020E0
7.155227275E2,9.673583984E0,1.470389485E0,1.711466432E0
7.160227275E2,9.534799576E0,1.464407444E0,1.567897081E0
7.165227275E2,9.562915802E0,1.467398524E0,1.460818172E0
7.170227275E2,9.649655342E0,1.485344648E0,1.405185103E0
7.175227275E2,9.625727654E0,1.374676585E0,1.396211982E0
7.180227275E2,9.555737495E0,1.405783296E0,1.295115232E0
7.185227275E2,9.298508644E0,1.534397483E0,1.228714466E0
7.190227275E2,9.415159225E0,1.546959877E0,1.174277663E0
7.195227275E2,9.572486877E0,1.609173179E0,1.085145116E0
7.200227275E2,9.496515274E0,1.491924882E0,1.127617717E0
7.205227275E2,9.507881165E0,1.393819213E0,1.001396298E0
7.210227275E2,9.556933403E0,1.421336651E0,1.003190875E0
7.215227275E2,9.632308006E0,1.515853167E0,9.523434043E-1
7.220227275E2,9.609575272E0,1.489532113E0,8.243274093E-1
7.225227275E2,9.789635658E0,1.546959877E0,8.482556343E-1
7.230227275E2,9.689137459E0,1.532602906E0,1.024128079E0
7.235227275E2,9.836296082E0,1.623530149E0,9.523434043E-1
7.240227275E2,9.951150894E0,1.604985833E0,9.732806087E-1
7.245227275E2,9.885348320E0,1.613958836E0,1.131206870E0
7.250227275E2,9.866804123E0,1.548754454E0,1.037288666E0
7.255227275E2,9.918848038E0,1.590628862E0,1.081555843E0
7.260227275E2,9.853643417E0,1.508674622E0,9.684949517E-1
7.265227275E2,9.951150894E0,1.628913999E0,1.085145116E0
7.270227275E2,9.716055870E0,1.625324726E0,8.967102766E-1
7.275227275E2,9.604789734E0,1.747956991E0,7.866404653E-1
7.280227275E2,9.670592308E0,1.802991867E0,7.477570772E-1
7.285227275E2,9.789635658E0,1.732403636E0,8.338986635E-1
7.290227275E2,9.811769485E0,1.700100541E0,8.967102766E-1
7.295227275E2,9.719645500E0,1.555334687E0,9.026923180E-1
7.300227275E2,9.735198975E0,1.665404558E0,8.195417523E-1
7.305227275E2,1.000798035E1,1.746760488E0,8.530412912E-1
7.310227275E2,9.957731247E0,1.660618901E0,1.081555843E0
7.315227275E2,9.954142570E0,1.762912035E0,9.343972206E-1
7.320227275E2,9.984650612E0,1.692323804E0,8.422735929E-1
7.325227275E2,1.008694363E1,1.754537225E0,6.508477330E-1
7.330227275E2,9.842875481E0,1.655833244E0,6.586244106E-1
7.335227275E2,1.000498962E1,1.913061738E0,5.982056856E-1
7.340227275E2,9.847063065E0,1.786840320E0,8.057830334E-1
7.345227275E2,9.559925079E0,1.692323804E0,6.538388133E-1
7.350227275E2,9.529416084E0,1.698904037E0,6.939185858E-1
7.355227275E2,9.562915802E0,1.637887120E0,8.727820516E-1
7.360227275E2,9.713663101E0,1.718046665E0,8.721838593E-1
7.365227275E2,9.728020668E0,1.863410592E0,7.525427341E-1
7.370227275E2,9.763913155E0,1.662413478E0,7.369893789E-1
7.375227275E2,9.429515839E0,1.542174220E0,7.597211599E-1
7.380227275E2,9.373882294E0,1.861616015E0,5.874379873E-1
7.385227275E2,9.665208817E0,1.762313843E0,6.233302951E-1
7.390227275E2,9.737591743E0,1.640279889E0,8.488538265E-1
7.395227275E2,9.412167549E0,1.499701619E0,8.344969153E-1
7.400227275E2,9.333204269E0,1.681556106E0,5.856433511E-1
7.405227275E2,9.480362892E0,1.673779488E0,2.979064286E-1
7.410227275E2,9.728020668E0,1.462612867E0,5.772684813E-1
7.415227275E2,9.700503349E0,1.484746456E0,4.660021961E-1
7.420227275E2,9.743574142E0,1.540977836E0,5.539384484E-1
7.425227275E2,9.703494072E0,1.499701619E0,6.448656917E-1
7.430227275E2,9.512666702E0,1.476969719E0,6.221339107E-1
7.435227275E2,9.772287369E0,1.558325768E0,5.156532526E-1
7.440227275E2,9.673583984E0,1.501496196E0,4.707878530E-1
7.445227275E2,9.612566948E0,1.402194023E0,3.744767308E-1
7.450227275E2,9.520442963E0,1.460818172E0,2.715853751E-1
7.455227275E2,9.586843491E0,1.505683661E0,4.630111754E-1
7.460227275E2,9.731011391E0,1.567897081E0,4.432703853E-1
7.465227275E2,9.220742226E0,1.158126116E0,6.592226624E-1
7.470227275E2,9.053244591E0,1.457827210E0,2.057827413E-1
7.475227275E2,9.529416084E0,2.000399828E0,5.395814776E-1
7.480227275E2,9.534201622E0,1.083350420E0,2.614158690E-1
7.485227275E2,9.549157143E0,1.582852125E0,1.130608693E-1
7.490227275E2,9.812367439E0,1.518844128E0,4.528416991E-1
7.495227275E2,9.812367439E0,1.533201098E0,6.287141442E-1
7.500227275E2,9.749555588E0,1.592423439E0,4.127618968E-1
7.505227275E2,9.689137459E0,1.553540111E0,8.434699476E-2
7.510227275E2,9.679565430E0,1.633699656E0,7.298108935E-2
7.515227275E2,9.533005714E0,1.286142230E0,5.922235921E-2
7.520227275E2,9.574879646E0,1.499701619E0,1.052841991E-1
7.525227275E2,9.833304405E0,1.515853167E0,2.093719840E-1
7.530227275E2,9.655637741E0,1.420140266E0,3.002992272E-1
7.535227275E2,9.778867722E0,1.453639746E0,2.069791555E-1
7.540227275E2,9.851848602E0,1.460818172E0,2.596212626E-1
7.545227275E2,9.874580383E0,1.453639746E0,2.362912297E-1
7.550227275E2,9.802796364E0,1.513460279E0,1.465603858E-1
7.555227275E2,1.010907745E1,1.561915040E0,2.315055877E-1
7.560227275E2,9.594022751E0,1.445264935E0,1.022931710E-1
7.565227275E2,9.706484795E0,1.467996716E0,1.052841991E-1
7.570227275E2,9.663414001E0,1.279561877E0,6.155536175E-1
7.575227275E2,9.669994354E0,1.299900889E0,5.706881881E-1
7.580227275E2,9.982855797E0,1.374676585E0,5.533402562E-1
7.585227275E2,1.006780148E1,1.264606714E0,3.619144261E-1
7.590227275E2,9.850054741E0,1.395613790E0,2.841476798E-1
7.595227275E2,9.507881165E0,1.369890928E0,2.428714931E-1
7.600227275E2,9.665208817E0,1.283749342E0,1.866401732E-1
7.605227275E2,9.713065147E0,1.311266780E0,1.088734269E-1
7.610227275E2,9.826724052E0,1.260419369E0,1.770688742E-1
7.615227275E2,9.625727654E0,1.306481123E0,3.337987661E-1
7.620227275E2,9.689137459E0,1.518844128E0,4.707878530E-1
7.625227275E2,9.558130264E0,1.708475351E0,2.793620527E-1
7.630227275E2,9.850054741E0,1.475773335E0,2.057827413E-1
7.635227275E2,9.585647583E0,1.618744493E0,1.208375469E-1
7.640227275E2,9.448657990E0,1.409970760E0,1.752742529E-1
7.645227275E2,9.560523033E0,1.483550072E0,2.285145670E-1
7.650227275E2,9.626923561E0,1.419542074E0,2.374876440E-1
7.655227275E2,1.000678444E1,1.637887120E0,2.691925503E-2
7.660227275E2,9.708279610E0,1.462612867E0,1.196411327E-1
7.665227275E2,9.692128181E0,1.429711580E0,4.007977992E-2
7.670227275E2,9.766305923E0,1.483550072E0,1.399801224E-1
7.675227275E2,9.632308006E0,1.470987678E0,1.004985496E-1
7.680227275E2,9.731011391E0,1.472782373E0,2.093719840E-1
7.685227275E2,9.813564301E0,1.496112347E0,2.237289101E-1
7.690227275E2,9.476774216E0,1.384846091E0,2.189432681E-1
7.695227275E2,9.815358162E0,1.542772412E0,1.962114573E-1
7.700227275E2,9.585647583E0,1.456630826E0,1.208375469E-1
7.705227275E2,9.824930191E0,1.551745534E0,9.092725813E-2
7.710227275E2,9.833304405E0,1.400399446E0,1.758724600E-1
7.715227275E2,9.854840279E0,1.477568030E0,-1.088734269E-1
7.720227275E2,9.884152412E0,1.573280931E0,-2.739782035E-1
7.725227275E2,1.001755238E1,1.618744493E0,-2.219343036E-1
7.730227275E2,9.791430473E0,1.524826288E0,-2.709871531E-1
7.735227275E2,9.623932838E0,1.490130305E0,-2.470589429E-1
7.740227275E2,9.879366875E0,1.448854089E0,-2.715853751E-1
7.745227275E2,1.035972595E1,1.525424480E0,-4.432703853E-1
7.750227275E2,9.480362892E0,1.405783296E0,4.007977992E-2
7.755227275E2,9.474381447E0,1.298704505E0,-1.316052489E-2
7.760227275E2,9.430712700E0,1.496112347E0,-1.226321608E-1
7.765227275E2,9.828518867E0,1.355534077E0,-2.667997181E-1
7.770227275E2,1.039442158E1,1.424925923E0,-4.941178858E-1
7.775227275E2,9.832706451E0,1.487139225E0,1.016949639E-1
7.780227275E2,9.844072342E0,1.512263894E0,-2.955136001E-1
7.785227275E2,9.868000984E0,1.576271892E0,-3.367897868E-1
7.790227275E2,9.564710617E0,1.456630826E0,-2.949153781E-1
7.795227275E2,9.617950439E0,1.569691658E0,-3.768695593E-1
7.800227275E2,9.680164337E0,1.491924882E0,-3.092723191E-1
7.805227275E2,9.923633575E0,1.598405480E0,-3.014956415E-1
7.810227275E2,9.747162819E0,1.539183140E0,-2.901297510E-1
7.815227275E2,9.841081619E0,1.631905079E0,-2.572284341E-1
7.820227275E2,9.821340561E0,1.503889084E0,-6.520441920E-2
7.825227275E2,9.795019150E0,1.459621787E0,-4.785645381E-2
7.830227275E2,9.882357597E0,1.539183140E0,-5.742774159E-2
7.835227275E2,9.944570541E0,1.534397483E0,-2.213360928E-2
7.840227275E2,9.835697174E0,1.566700578E0,-9.571290575E-3
7.845227275E2,9.743574142E0,1.501496196E0,4.007977992E-2
7.850227275E2,9.807581902E0,1.663609982E0,3.529413417E-2
7.855227275E2,9.803992271E0,1.534995675E0,6.580262445E-3
7.860227275E2,9.631709099E0,1.496112347E0,-4.606183618E-2
7.865227275E2,9.684949875E0,1.496710539E0,-3.828516230E-2
7.870227275E2,9.566504478E0,1.764706731E0,-2.991028363E-3
7.875227275E2,9.716654778E0,1.370489120E0,-3.170489892E-2
7.880227275E2,9.861420631E0,1.733600020E0,-3.529413417E-2
7.885227275E2,9.778269768E0,1.499103427E0,1.076770201E-2
7.890227275E2,9.885947227E0,1.625923038E0,4.007977992E-2
7.895227275E2,9.739984512E0,1.479960799E0,3.469592705E-2
7.900227275E2,9.738788605E0,1.619342685E0,-4.187439755E-2
7.905227275E2,9.587442398E0,1.695314884E0,-1.423729509E-1
7.910227275E2,9.579067230E0,1.350748420E0,-1.423729509E-1
7.915227275E2,9.655637741E0,1.848455548E0,-2.763710022E-1
7.920227275E2,9.612566948E0,1.377069473E0,-2.219343036E-1
7.925227275E2,9.637093544E0,1.633101463E0,-2.679961324E-1
7.930227275E2,9.617950439E0,1.313061476E0,-3.445664644E-1
7.935227275E2,9.692128181E0,1.515254974E0,-5.742774606E-1
7.940227275E2,9.573084831E0,1.391426325E0,-1.035493970E0
7.945227275E2,9.592227936E0,1.369890928E0,-8.530412912E-1
7.950227275E2,9.689137459E0,1.405783296E0,-6.783652306E-1
7.955227275E2,9.737591743E0,1.412961721E0,-6.029912829E-1
7.960227275E2,9.754940033E0,1.421336651E0,-6.681957245E-1
7.965227275E2,9.667003632E0,1.472184181E0,-5.665007830E-1
7.970227275E2,9.744770050E0,1.408176184E0,-4.833501875E-1
7.975227275E2,9.692726135E0,1.453639746E0,-4.606183469E-1
7.980227275E2,9.701699257E0,1.422533035E0,-4.767699242E-1
7.985227275E2,9.722636223E0,1.432702541E0,-4.097708762E-1
7.990227275E2,9.710074425E0,1.448854089E0,-3.864408433E-1
7.995227275E2,9.745368004E0,1.453041553E0,-3.619144261E-1
8.000227275E2,9.765707016E0,1.486541033E0,-4.420739710E-1
8.005227275E2,9.754341125E0,1.469193101E0,-4.127618968E-1
8.010227275E2,9.727422714E0,1.487139225E0,-3.385843933E-1
8.015227275E2,9.708279610E0,1.457827210E0,-3.493520916E-1
8.020227275E2,9.710074425E0,1.466202021E0,-3.224328458E-1
8.025227275E2,9.711270332E0,1.501496196E0,-3.529413342E-1
8.030227275E2,9.724431038E0,1.472782373E0,-3.864408433E-1
8.035227275E2,9.756733894E0,1.496710539E0,-3.768695593E-1
8.040227275E2,9.689735413E0,1.469193101E0,-3.433700502E-1
8.045227275E2,9.720842361E0,1.469193101E0,-3.619144261E-1
8.050227275E2,9.736993790E0,1.491326690E0,-3.577269912E-1
8.055227275E2,9.744770050E0,1.493121386E0,-3.990031779E-1
8.060227275E2,9.737591743E0,1.493121386E0,-3.810569942E-1
8.065227275E2,9.734002113E0,1.466202021E0,-3.493520916E-1
8.070227275E2,9.680164337E0,1.475773335E0,-3.714857101E-1
8.075227275E2,9.710074425E0,1.500898004E0,-3.367897868E-1
8.080227275E2,9.714859962E0,1.509272933E0,-3.750749528E-1
8.085227275E2,9.692726135E0,1.494915962E0,-3.667000830E-1
8.090227275E2,9.683155060E0,1.503889084E0,-3.206382394E-1
8.095227275E2,9.706484795E0,1.490130305E0,-3.481557071E-1
8.100227275E2,9.714859962E0,1.499103427E0,-3.284149170E-1
8.105227275E2,9.732208252E0,1.510469317E0,-3.732803464E-1
8.110227275E2,9.731011391E0,1.515254974E0,-3.481557071E-1
8.115227275E2,9.689735413E0,1.488335729E0,-3.684946895E-1
8.120227275E2,9.707083702E0,1.501496196E0,-4.821537733E-1
8.125227275E2,9.718449593E0,1.499103427E0,-4.654040039E-1
8.130227275E2,9.627521515E0,1.510469317E0,-6.819544733E-2
8.135227275E2,9.735198975E0,1.534995675E0,3.098705411E-1
8.140227275E2,9.697511673E0,1.528415442E0,1.992024779E-1
8.145227275E2,9.704092026E0,1.527817249E0,1.686939895E-1
8.150227275E2,9.706484795E0,1.508674622E0,1.100698411E-1
8.155227275E2,9.707083702E0,1.520040631E0,8.315058798E-2
8.160227275E2,9.724431038E0,1.525424480E0,9.690931439E-2
8.165227275E2,9.719645500E0,1.531406522E0,1.214357466E-1
8.170227275E2,9.702297211E0,1.515254974E0,1.262213886E-1
8.175227275E2,9.716055870E0,1.506281853E0,1.196411327E-1
8.180227275E2,9.702297211E0,1.523629785E0,1.375873089E-1
8.185227275E2,9.704092026E0,1.515254974E0,1.130608693E-1
8.190227275E2,9.710074425E0,1.517049551E0,1.304088384E-1
8.195227275E2,9.708279610E0,1.520638824E0,1.226321608E-1
8.200227275E2,9.719645500E0,1.509272933E0,1.160518974E-1
8.205227275E2,9.716055870E0,1.515254974E0,1.292124242E-1
8.210227275E2,9.702297211E0,1.515853167E0,1.070788130E-1
8.215227275E2,9.705288887E0,1.508674622E0,1.256231815E-1
8.220227275E2,9.708279610E0,1.520040631E0,1.232303679E-1
8.225227275E2,9.716055870E0,1.517049551E0,1.130608693E-1
8.230227275E2,9.723235130E0,1.520040631E0,1.262213886E-1
8.235227275E2,9.707083702E0,1.520638824E0,1.274178028E-1
8.240227275E2,9.711869240E0,1.515853167E0,1.088734269E-1
8.245227275E2,9.708877563E0,1.503889084E0,1.160518974E-1
8.250227275E2,9.707083702E0,1.511067510E0,1.184447184E-1
8.255227275E2,9.716654778E0,1.514058471E0,1.166501045E-1
8.260227275E2,9.705288887E0,1.513460279E0,1.178465188E-1
8.265227275E2,9.719645500E0,1.509272933E0,1.160518974E-1
8.270227275E2,9.711869240E0,1.515254974E0,1.112662554E-1
8.275227275E2,9.713065147E0,1.515853167E0,1.112662554E-1
8.280227275E2,9.708279610E0,1.507478237E0,1.292124242E-1
8.285227275E2,9.711869240E0,1.520638824E0,1.208375469E-1
8.290227275E2,9.710074425E0,1.517049551E0,1.166501045E-1
8.295227275E2,9.710074425E0,1.518844128E0,1.226321608E-1
8.300227275E2,9.710074425E0,1.511067510E0,1.136590764E-1
8.305227275E2,9.714859962E0,1.520040631E0,1.184447184E-1
8.310227275E2,9.703494072E0,1.511067510E0,1.232303679E-1
8.315227275E2,9.711270332E0,1.515254974E0,1.082752272E-1
8.320227275E2,9.707083702E0,1.513460279E0,1.280160099E-1
8.325227275E2,9.708877563E0,1.517049551E0,1.166501045E-1
8.330227275E2,9.714859962E0,1.523031592E0,1.040877849E-1
8.335227275E2,9.707083702E0,1.514058471E0,1.148554832E-1
8.340227275E2,9.710074425E0,1.520040631E0,1.052841991E-1
8.345227275E2,9.711869240E0,1.514058471E0,1.196411327E-1
8.350227275E2,9.714859962E0,1.520638824E0,1.208375469E-1
8.355227275E2,9.711869240E0,1.515254974E0,1.160518974E-1
8.360227275E2,9.829715729E0,1.512263894E0,-7.657032460E-2
8.365227275E2,9.762716293E0,1.550549030E0,6.233302951E-1
8.370227275E2,9.696913719E0,1.542772412E0,9.942178130E-1
8.375227275E2,9.655637741E0,1.557129383E0,1.031904817E0
8.380227275E2,9.698708534E0,1.566102386E0,9.906286001E-1
8.385227275E2,9.681360245E0,1.556531072E0,9.990034699E-1
8.390227275E2,9.713065147E0,1.563111424E0,9.822536707E-1
8.395227275E2,9.660423279E0,1.532602906E0,1.006181955E0
8.400227275E2,9.679565430E0,1.556531072E0,9.684949517E-1
8.405227275E2,9.714859962E0,1.546959877E0,1.006780148E0
8.410227275E2,9.684949875E0,1.550549030E0,9.972088337E-1
8.415227275E2,9.695717812E0,1.544566989E0,9.840483069E-1
8.420227275E2,9.679565430E0,1.533201098E0,9.942178130E-1
8.425227275E2,9.711270332E0,1.529611826E0,9.750752449E-1
8.430227275E2,9.673583984E0,1.520638824E0,9.619147182E-1
8.435227275E2,9.703494072E0,1.517049551E0,9.607182741E-1
8.440227275E2,9.702297211E0,1.501496196E0,9.714859724E-1
8.445227275E2,9.677771568E0,1.502692580E0,9.619147182E-1
8.450227275E2,9.726225853E0,1.497906923E0,9.894321561E-1
8.455227275E2,9.683155060E0,1.514058471E0,1.018146038E0
8.460227275E2,9.654440880E0,1.518844128E0,1.001396298E0
8.465227275E2,9.713065147E0,1.494915962E0,1.012762189E0
8.470227275E2,9.686145782E0,1.525424480E0,1.006780148E0
8.475227275E2,9.727422714E0,1.491326690E0,1.017547846E0
8.480227275E2,9.690931320E0,1.489532113E0,1.034895778E0
8.485227275E2,9.635298729E0,1.453639746E0,1.035493970E0
8.490227275E2,9.668199539E0,1.489532113E0,9.972088337E-1
8.495227275E2,9.787840843E0,1.488335729E0,1.045065284E0
8.500227275E2,9.616155624E0,1.430907965E0,1.000199914E0
8.505227275E2,9.718449593E0,1.478764415E0,1.066002488E0
8.510227275E2,9.753145218E0,1.475175142E0,1.051047325E0
8.515227275E2,9.677771568E0,1.515853167E0,1.008574724E0
8.520227275E2,9.668798447E0,1.472184181E0,1.027717352E0
8.525227275E2,9.778867722E0,1.500898004E0,1.098903775E0
8.530227275E2,9.730413437E0,1.375274777E0,1.101894855E0
8.535227275E2,9.736993790E0,1.515254974E0,1.025922656E0
8.540227275E2,9.820143700E0,1.293320656E0,1.083350420E0
8.545227275E2,9.761520386E0,1.324427366E0,1.125823021E0
8.550227275E2,9.768698692E0,1.381256819E0,1.123430252E0
8.555227275E2,9.649655342E0,1.368694544E0,1.065404296E0
8.560227275E2,9.606584549E0,1.365703583E0,1.102493048E0
8.565227275E2,9.646664619E0,1.380060434E0,1.076770186E0
8.570227275E2,9.739984512E0,1.209571838E0,1.042074203E0
8.575227275E2,9.727422714E0,1.622333765E0,9.732806087E-1
8.580227275E2,9.495916367E0,1.099501967E0,1.068395257E0
8.585227275E2,9.534799576E0,1.368694544E0,1.046859860E0
8.590227275E2,9.227920532E0,1.301695466E0,1.009771109E0
8.595227275E2,9.172885895E0,1.115055323E0,1.144965649E0
8.600227275E2,9.613164902E0,1.152144074E0,1.130608678E0
8.605227275E2,9.699306488E0,1.237687469E0,1.038485050E0
8.610227275E2,9.885947227E0,1.298704505E0,1.042074203E0
8.615227275E2,1.005464077E1,1.174277663E0,1.084546804E0
8.620227275E2,1.000977516E1,1.006181955E0,1.124626637E0
8.625227275E2,1.018505001E1,1.080359459E0,1.078564763E0
8.630227275E2,9.961918831E0,1.014556766E0,1.054636598E0
8.635227275E2,1.025444126E1,1.322034478E0,1.046261668E0
8.640227275E2,1.009890842E1,1.183848977E0,1.052842021E0
8.645227275E2,1.008036327E1,1.209571838E0,1.025324464E0
8.650227275E2,9.924231529E0,1.081555843E0,9.888339639E-1
8.655227275E2,9.994221687E0,9.762716293E-1,1.006780148E0
8.660227275E2,9.862018585E0,9.678967595E-1,1.017547846E0
8.665227275E2,9.656235695E0,1.011565804E0,9.601200819E-1
8.670227275E2,9.736993790E0,1.003190875E0,1.102493048E0
8.675227275E2,9.807581902E0,1.105484009E0,1.010967612E0
8.680227275E2,9.772287369E0,9.284151793E-1,8.536394835E-1
8.685227275E2,1.014855862E1,1.066002488E0,9.870393276E-1
8.690227275E2,9.919445992E0,8.679963946E-1,9.631111026E-1
8.695227275E2,9.888339996E0,8.219345808E-1,9.254241586E-1
8.700227275E2,9.517452240E0,7.094719410E-1,6.346961856E-1
8.705227275E2,9.566504478E0,1.027119160E0,7.130611539E-1
8.710227275E2,9.865009308E0,8.213363886E-1,3.559323549E-1
8.715227275E2,9.769296646E0,9.601200819E-1,5.198407173E-1
8.720227275E2,9.683155060E0,9.457631707E-1,5.102694035E-1
8.725227275E2,9.670592308E0,1.225125194E0,4.259224236E-1
8.730227275E2,9.734002113E0,1.405185103E0,4.707878530E-1
8.735227275E2,9.656235695E0,1.444068432E0,2.883351147E-1
8.740227275E2,9.728020668E0,1.450050473E0,2.859423161E-1
8.745227275E2,9.866804123E0,1.625923038E0,3.505485058E-1
8.750227275E2,9.887143135E0,1.542174220E0,4.103690982E-1
8.755227275E2,9.711270332E0,1.597209096E0,2.039881349E-1
8.760227275E2,9.569496155E0,1.424327731E0,3.218346536E-1
8.765227275E2,9.689137459E0,1.534397483E0,2.787638307E-1
8.770227275E2,9.311669350E0,1.416550994E0,5.138586760E-1
8.775227275E2,9.378069878E0,1.451246977E0,2.584248483E-1
8.780227275E2,9.737591743E0,1.333998680E0,2.069791555E-1
8.785227275E2,9.577272415E0,1.542174220E0,2.261217386E-1
8.790227275E2,9.657432556E0,1.540977836E0,2.632105052E-1
8.795227275E2,9.801001549E0,1.405185103E0,2.763710022E-1
8.800227275E2,1.005583763E1,1.555334687E0,4.336991012E-1
8.805227275E2,1.023051357E1,1.485344648E0,3.780659735E-1
8.810227275E2,9.976874352E0,1.590628862E0,3.702892959E-1
8.815227275E2,9.749555588E0,1.447059512E0,2.841476798E-1
8.820227275E2,9.837491989E0,1.493121386E0,1.531406492E-1
8.825227275E2,9.613164902E0,1.563111424E0,3.972085714E-1
8.830227275E2,9.582057953E0,1.420140266E0,2.907279432E-1
8.835227275E2,9.601201057E0,1.381855130E0,2.853440940E-1
8.840227275E2,9.323633194E0,1.764108539E0,3.146561682E-1
8.845227275E2,9.329017639E0,1.942971945E0,1.130608693E-1
8.850227275E2,9.877572060E0,1.941775560E0,1.770688742E-1
8.855227275E2,9.504291534E0,1.837687731E0,1.710868180E-1
8.860227275E2,1.042193890E1,1.939382792E0,2.602194548E-1
8.865227275E2,9.713663101E0,1.651047587E0,4.019941986E-1
8.870227275E2,9.706484795E0,1.694118381E0,4.229314029E-1
8.875227275E2,9.566504478E0,1.730608940E0,6.047859192E-1
8.880227275E2,9.473783493E0,1.654038668E0,4.229314029E-1
8.885227275E2,9.564710617E0,1.848455548E0,3.367897868E-1
8.890227275E2,9.828518867E0,1.835893154E0,4.085744619E-1
8.895227275E2,9.926624298E0,1.829312921E0,3.684946895E-1
8.900227275E2,1.026700401E1,1.834696770E0,5.778666735E-1
8.905227275E2,9.337990761E0,1.713261008E0,5.102694035E-1
8.910227275E2,1.017727280E1,2.066202402E0,6.430711150E-1
8.915227275E2,1.014736271E1,1.848455548E0,6.281159520E-1
8.920227275E2,9.914062500E0,1.695913076E0,6.843472719E-1
8.925227275E2,9.872786522E0,1.785045743E0,4.959124923E-1
8.930227275E2,1.043150997E1,1.968694806E0,5.569294691E-1
8.935227275E2,1.086520958E1,1.944766641E0,8.344969153E-1
8.940227275E2,1.041476059E1,1.657029629E0,7.513462901E-1
8.945227275E2,1.023290634E1,1.837687731E0,6.735795736E-1
8.950227275E2,1.015334511E1,2.097309113E0,6.735795736E-1
8.955227275E2,9.750154495E0,1.984846354E0,7.166503668E-1
8.960227275E2,9.864411354E0,1.828116536E0,5.922235847E-1
8.965227275E2,9.954142570E0,1.697109461E0,5.324030519E-1
8.970227275E2,9.766305923E0,1.607976794E0,6.556333899E-1
8.975227275E2,9.633503914E0,1.872383714E0,5.868397355E-1
8.980227275E2,9.498309135E0,1.520638824E0,6.047859192E-1
8.985227275E2,9.489934921E0,1.794616938E0,2.614158690E-1
8.990227275E2,9.533005714E0,1.752742529E0,1.280160099E-1
8.995227275E2,9.281160355E0,1.754537225E0,-2.751746029E-2
9.000227275E2,9.542576790E0,1.595414519E0,1.226321608E-1
9.005227275E2,9.501300812E0,1.655833244E0,2.614158690E-1
9.010227275E2,9.563513756E0,1.644467354E0,2.045863420E-1
9.015227275E2,9.716654778E0,1.657029629E0,6.999006122E-2
9.020227275E2,9.674779892E0,1.712064624E0,-2.213360928E-2
9.025227275E2,9.458230019E0,1.525424480E0,-2.171486616E-1
9.030227275E2,9.665208817E0,1.658824325E0,-2.901297510E-1
9.035227275E2,9.466006279E0,1.570888042E0,-8.315058798E-2
9.040227275E2,9.780662537E0,1.579262972E0,-2.333002090E-1
9.045227275E2,9.789635658E0,1.668395638E0,-3.188436031E-1
9.050227275E2,9.512067795E0,1.667199135E0,-2.021935135E-1
9.055227275E2,9.623932838E0,1.689332843E0,-1.112662554E-1
9.060227275E2,9.827920914E0,1.678565025E0,-1.770688742E-1
9.065227275E2,9.620343208E0,1.786840320E0,3.349951655E-2
9.070227275E2,9.483952522E0,1.694118381E0,1.465603858E-1
9.075227275E2,9.582656860E0,1.577468276E0,1.274178028E-1
9.080227275E2,9.693922997E0,1.611566067E0,1.944168359E-1
9.085227275E2,9.627521515E0,1.628913999E0,9.571290575E-3
9.090227275E2,9.419346809E0,1.654038668E0,3.272185028E-1
9.095227275E2,9.600004196E0,1.604985833E0,2.739782035E-1
9.100227275E2,9.730413437E0,1.741974831E0,2.937189937E-1
9.105227275E2,9.545567513E0,1.525424480E0,2.697907388E-1
9.110227275E2,9.698708534E0,1.764706731E0,1.836491376E-1
9.115227275E2,9.399007797E0,1.609771490E0,1.758724600E-1
9.120227275E2,9.681360245E0,1.777269006E0,2.231307179E-1
9.125227275E2,9.850054741E0,1.568495274E0,2.548356056E-1
9.130227275E2,9.562915802E0,1.502692580E0,2.171486616E-1
9.135227275E2,9.291928291E0,1.324427366E0,2.045863420E-1
9.140227275E2,9.736993790E0,1.512263894E0,3.158525825E-1
9.145227275E2,9.882357597E0,1.477568030E0,3.320041299E-1
9.150227275E2,9.680164337E0,1.587039590E0,3.475574851E-1
9.155227275E2,9.928419113E0,1.658824325E0,4.845465720E-1
9.160227275E2,9.845867157E0,1.390828133E0,6.041877344E-2
9.165227275E2,9.497711182E0,1.268195987E0,-2.315055877E-1
9.170227275E2,9.853643417E0,1.659422517E0,-1.322034448E-1
9.175227275E2,9.517452240E0,1.563111424E0,-1.136590727E-2
9.180227275E2,9.589237213E0,1.500898004E0,8.315058798E-2
9.185227275E2,9.306883812E0,1.296909928E0,-1.495514214E-1
9.190227275E2,9.558728218E0,1.287338614E0,1.184447184E-1
9.195227275E2,1.002592659E1,7.244270444E-1,-1.609173268E-1
9.200227275E2,9.671789169E0,1.214357495E0,-2.057827413E-1
9.205227275E2,9.915857315E0,1.198205948E0,-2.835494876E-1
9.210227275E2,1.004806042E1,1.223928809E0,-3.714857101E-1
9.215227275E2,9.695717812E0,1.133001566E0,-2.572284341E-1
9.220227275E2,1.044048309E1,1.054038405E0,-1.196411322E-3
9.225227275E2,1.010429192E1,1.365703583E0,-3.014956415E-1
9.230227275E2,1.001156998E1,1.101894855E0,-1.710868180E-1
9.235227275E2,9.833304405E0,1.104287624E0,-9.750752151E-2
9.240227275E2,9.778269768E0,1.336989641E0,-3.361915946E-1
9.245227275E2,9.643074989E0,9.966106415E-1,-1.262213886E-1
9.250227275E2,9.689137459E0,1.375274777E0,-1.214357466E-1
9.255227275E2,9.773484230E0,1.275972724E0,-7.178468257E-2
9.260227275E2,9.665806770E0,1.437488198E0,-1.423729509E-1
9.265227275E2,9.619147301E0,1.571486235E0,-1.310070455E-1
9.270227275E2,9.555138588E0,1.265205026E0,-1.818545163E-1
9.275227275E2,9.419944763E0,1.704886079E0,-1.692921966E-1
9.280227275E2,9.699306488E0,1.659422517E0,-7.357929647E-2
9.285227275E2,9.589237213E0,1.667199135E0,-2.871387079E-2
9.290227275E2,9.312865257E0,1.609771490E0,-3.254238665E-1
9.295227275E2,9.918848038E0,1.619342685E0,-2.093719840E-1
9.300227275E2,9.505488396E0,1.812563181E0,-2.859423161E-1
9.305227275E2,9.692128181E0,1.368694544E0,-2.356930375E-1
9.310227275E2,9.842277527E0,1.792822361E0,-1.794617064E-2
9.315227275E2,9.845269203E0,1.542772412E0,-3.708875179E-2
9.320227275E2,9.784850121E0,1.835893154E0,1.686939895E-1
9.325227275E2,9.797411919E0,1.491924882E0,3.571287692E-1
9.330227275E2,9.798010826E0,1.718046665E0,-4.785645381E-2
9.335227275E2,9.616155624E0,1.738385677E0,-1.980060786E-1
9.340227275E2,9.510273933E0,1.384846091E0,-1.256231871E-2
9.345227275E2,9.694520950E0,1.326820135E0,3.828516230E-2
9.350227275E2,9.598808289E0,1.731207132E0,-5.922235921E-2
9.355227275E2,9.705288887E0,1.389631748E0,-1.615155302E-2
9.360227275E2,9.807581902E0,1.598405480E0,-1.196411327E-1
9.365227275E2,9.613164902E0,1.413560033E0,-6.221338734E-2
9.370227275E2,9.675378799E0,1.493121386E0,-1.160518974E-1
9.375227275E2,9.722636223E0,1.460818172E0,-2.105683982E-1
9.380227275E2,9.723235130E0,1.472782373E0,-1.351944804E-1
9.385227275E2,9.692128181E0,1.464407444E0,-1.645065546E-1
9.390227275E2,9.751948357E0,1.500898004E0,-1.674975902E-1
9.395227275E2,9.745368004E0,1.454836130E0,-1.896311939E-1
9.400227275E2,9.703494072E0,1.515853167E0,-2.805584669E-1
9.405227275E2,9.783055305E0,1.504487276E0,-2.267199457E-1
9.410227275E2,9.725627899E0,1.429711580E0,-1.130608693E-1
9.415227275E2,9.720842361E0,1.479960799E0,-1.674975902E-1
9.420227275E2,9.796216011E0,1.462612867E0,-7.178468257E-2
9.425227275E2,9.697511673E0,1.489532113E0,2.991028316E-2
9.430227275E2,9.696913719E0,1.479960799E0,1.704886109E-1
9.435227275E2,9.713663101E0,1.481755376E0,9.092725813E-2
9.440227275E2,9.699306488E0,1.477568030E0,6.520441920E-2
9.445227275E2,9.735796928E0,1.500898004E0,3.379862010E-1
9.450227275E2,9.732806206E0,1.511067510E0,2.452643216E-1
9.455227275E2,9.695717812E0,1.418345571E0,7.058826834E-2
9.460227275E2,9.732208252E0,1.513460279E0,4.307080805E-2
9.465227275E2,9.760921478E0,1.450050473E0,-1.316052489E-2
9.470227275E2,9.757930756E0,1.499701619E0,-4.785645381E-2
9.475227275E2,9.736993790E0,1.461416483E0,-6.221338734E-2
9.480227275E2,9.703494072E0,1.480558991E0,-1.274178028E-1
9.485227275E2,9.757930756E0,1.476969719E0,-1.016949639E-1
9.490227275E2,9.756135941E0,1.497906923E0,-1.674975902E-1
9.495227275E2,9.713663101E0,1.469193101E0,-1.465603858E-1
9.500227275E2,9.770493507E0,1.456032634E0,-2.135594189E-1
9.505227275E2,9.701699257E0,1.443470240E0,-2.009970993E-1
9.510227275E2,9.714859962E0,1.434497118E0,-1.722832322E-1
9.515227275E2,9.720842361E0,1.472184181E0,-1.513460279E-1
9.520227275E2,9.689735413E0,1.457827210E0,-1.932204217E-1
9.525227275E2,9.676574707E0,1.457827210E0,-1.926222295E-1
9.530227275E2,9.729216576E0,1.475773335E0,-2.249253243E-1
9.535227275E2,9.701699257E0,1.450050473E0,-1.435693651E-1
9.540227275E2,9.751948357E0,1.457827210E0,-1.974078715E-1
9.545227275E2,9.730413437E0,1.479960799E0,-2.566302419E-1
9.550227275E2,9.759725571E0,1.442273855E0,-1.710868180E-1
9.555227275E2,9.766305923E0,1.478764415E0,-1.944168359E-1
9.560227275E2,9.701699257E0,1.464407444E0,-2.506481707E-1
9.565227275E2,9.726225853E0,1.472782373E0,-1.495514214E-1
9.570227275E2,9.697511673E0,1.362114310E0,-6.329016089E-1
9.575227275E2,9.440881729E0,9.684949517E-1,-1.959123492E0
9.580227275E2,1.006600666E1,8.261220455E-1,-4.666004330E-2
9.585227275E2,1.110449123E1,4.147359848E0,1.710269928E0
9.590227275E2,3.038884640E0,6.888338089E0,5.911468506E0
9.595227275E2,2.928814888E0,7.884948730E0,5.605186939E0
