"Time (s)","Gyroscope x (rad/s)","Gyroscope y (rad/s)","Gyroscope z (rad/s)"
2.612326570E-1,-8.674279600E-2,9.056070447E-2,4.138609022E-2
7.652697400E-1,-5.787943676E-2,-1.023198478E-2,1.588248461E-2
1.269308282E0,-1.007926911E-1,3.191768378E-2,-2.916879356E-1
1.773348178E0,-7.971785218E-2,3.258963525E-1,2.133445293E-1
2.277389219E0,-1.036942974E-1,-2.237292230E-1,9.712749720E-2
2.781431250E0,9.651663154E-2,-1.267544478E-1,2.321286127E-2
3.285474011E0,1.719584316E-1,-3.048215210E-1,-3.585776389E-1
3.789517553E0,7.461713552E-1,-2.836703300E0,7.024945021E-1
4.293561615E0,2.136499584E-1,-1.896735132E-1,4.639517963E-1
4.797606355E0,-1.627954692E-1,1.609628648E-1,-1.091920808E-1
5.301651563E0,-7.483093534E-3,7.542653084E-1,2.822195292E-1
5.805697188E0,7.513637096E-2,3.071122766E-1,-1.053741761E-2
6.309742917E0,-1.786779426E-2,7.040216774E-2,-3.665188793E-3
6.813788594E0,-1.435532235E-2,5.543597788E-2,-7.483093534E-3
7.317834167E0,-2.596175298E-3,-7.635809947E-3,-1.802051067E-2
7.821879636E0,-3.054323979E-2,1.015562713E-1,-1.374445762E-2
8.325925000E0,-2.443459071E-2,4.337139800E-2,-2.107483521E-2
8.829970417E0,-3.726275265E-2,1.359174121E-2,-8.704823442E-3
9.334015990E0,-2.275471389E-2,-5.650499091E-2,-6.612611562E-2
9.838061719E0,-3.268126398E-2,-4.398226365E-2,1.985310577E-3
1.034210729E1,3.329212964E-2,-3.985892832E-1,-2.748891478E-3
1.084615286E1,-9.575305134E-2,1.936441362E-1,6.108647794E-4
1.135019833E1,-2.962694131E-2,5.849030241E-2,-5.268708616E-2
1.185424386E1,-4.688387364E-2,8.582650125E-2,2.290742937E-3
1.235828917E1,-1.374445739E-3,2.443459118E-3,-1.069013379E-3
1.286233427E1,4.886918236E-3,4.520399496E-2,2.076940238E-2
1.336637932E1,2.504545636E-2,1.695149764E-2,8.399390616E-3
1.387042469E1,3.802633286E-2,-1.679878100E-3,3.222311661E-2
1.437447042E1,1.099556591E-2,7.498364896E-2,5.589412898E-2
1.487851625E1,3.787361458E-2,-5.803215317E-3,1.420260593E-2
1.538256182E1,2.901607752E-2,8.002328873E-2,3.863719851E-2
1.588660714E1,1.010981202E-1,1.191186309E-1,1.389717404E-2
1.639065214E1,-4.596757516E-2,3.604102135E-2,-2.306014486E-2
1.689469708E1,5.955931731E-3,-7.330377400E-2,-4.016435891E-2
1.739874188E1,-1.756236330E-2,3.649916872E-2,5.039634649E-3
1.790278656E1,-3.970621154E-3,7.483093534E-3,2.748891478E-3
1.840683109E1,-5.497782957E-3,1.771507785E-2,-2.901607659E-3
1.891087542E1,3.054323897E-4,9.315688163E-3,-6.566796452E-3
1.941491958E1,-1.221729536E-2,1.847865991E-2,4.581485875E-3
1.991896354E1,3.665188793E-3,5.650499370E-3,-1.221729536E-2
2.042300729E1,-1.252272818E-2,9.162971750E-3,1.603520103E-2
2.092705078E1,4.428769462E-3,6.566796452E-3,-1.069013402E-2
2.143109422E1,-6.872228812E-3,1.511890348E-2,3.817904973E-3
2.193513740E1,2.901607659E-3,4.734201822E-3,-6.108647678E-3
2.243918042E1,-4.276053514E-3,4.734201822E-3,4.276053514E-3
2.294322349E1,-9.162971983E-4,7.483093534E-3,-2.596175298E-3
2.344726703E1,-8.857538924E-3,2.748891478E-3,4.428769462E-3
2.395131120E1,-6.414080039E-3,1.679878100E-3,-3.054323897E-4
2.445535620E1,-1.832594397E-3,6.108647678E-3,-7.941242307E-3
2.495940240E1,-2.138026757E-3,6.566796452E-3,-3.207040019E-3
2.546345011E1,-2.138026757E-3,3.359756200E-3,-4.276053514E-3
2.596749927E1,-7.024944760E-3,1.527161920E-3,-2.443459118E-3
2.647154943E1,-3.817904973E-3,2.901607659E-3,-4.734201822E-3
2.697560026E1,-9.315688163E-3,-4.581485991E-4,7.635809947E-3
2.747965172E1,-1.191186346E-2,2.977965772E-2,7.635809598E-4
2.798370406E1,-1.374445739E-3,7.177661173E-3,-9.315688163E-3
2.848775698E1,-3.207040019E-3,1.374445762E-2,-6.566796452E-3
2.899181016E1,-2.596175298E-3,1.237001177E-2,6.108647794E-4
2.949586344E1,-9.162971983E-4,-1.527161920E-3,-3.512472380E-3
2.999991667E1,-9.010255337E-3,8.704823442E-3,4.734201822E-3
3.050396974E1,-3.817904973E-3,6.566796452E-3,-1.985310577E-3
3.100802302E1,-3.054323897E-4,2.229656465E-2,-7.941242307E-3
3.151207646E1,1.374445739E-3,-2.901607659E-3,-3.512472380E-3
3.201613005E1,2.443459118E-3,4.123337101E-3,-3.359756200E-3
3.252018365E1,-1.221729559E-3,2.443459118E-3,1.527161920E-3
3.302423703E1,-3.970621154E-3,3.054323897E-4,5.955931731E-3
3.352829021E1,-5.497782957E-3,1.313359290E-2,2.596175298E-3
3.403234323E1,2.138026757E-3,4.886918236E-3,-6.108647678E-3
3.453639609E1,1.221729559E-3,3.665188793E-3,-2.138026757E-3
3.504044901E1,-4.581485991E-4,1.527161920E-3,1.221729559E-3
3.554450188E1,-9.162971983E-4,1.679878100E-3,-6.108647794E-4
3.604855448E1,-3.665188793E-3,4.581485875E-3,3.054323897E-4
3.655260672E1,-5.955931731E-3,2.138026757E-3,3.359756200E-3
3.705665844E1,1.374445739E-3,-1.221729559E-3,-3.512472380E-3
3.756070984E1,-4.428769462E-3,-4.057669342E-1,-1.189659163E-1
3.806476115E1,4.103484154E-1,-1.318857074E0,4.825831577E-2
3.856881245E1,-1.084285006E-1,4.972439408E-1,-3.543015569E-2
3.907286375E1,5.558869615E-2,7.565560341E-1,-2.646571696E-1
3.957691526E1,1.125518382E-1,-2.096793354E-1,6.414080039E-3
4.008096693E1,-6.429351866E-2,2.060141414E-1,2.037234008E-1
4.058501886E1,-9.697478265E-2,1.890626550E-1,3.787361458E-2
4.108908281E1,-2.748891478E-3,2.687804960E-2,-7.483093534E-3
4.159312333E1,6.719512399E-3,2.199113183E-2,-8.552107029E-3
4.209717594E1,-1.023198478E-2,-5.497782957E-3,2.443459118E-3
4.260122870E1,-7.330377586E-3,2.886336111E-2,3.817904973E-3
4.310528172E1,-7.330377586E-3,1.832594350E-2,-2.748891478E-3
4.360933495E1,-3.359756200E-3,2.214384824E-2,-1.572976820E-2
4.411338844E1,-4.886918236E-3,9.621120058E-3,8.246674202E-3
4.461744229E1,-9.010255337E-3,-2.122755162E-2,1.191186346E-2
4.512149630E1,-4.734201822E-3,-3.054323839E-3,3.237583488E-2
4.562555083E1,-1.267544460E-2,3.481929377E-2,-1.007926930E-2
4.612960599E1,-3.359756200E-3,4.062250629E-2,-7.024944760E-3
4.663366167E1,1.985310577E-3,-1.069013379E-3,-6.261364091E-3
4.713771755E1,-9.162971983E-4,6.261364091E-3,0.000000000E0
4.764177328E1,-1.221729559E-3,2.901607659E-3,-2.596175298E-3
4.814582891E1,-3.817904973E-3,7.177661173E-3,-1.527161949E-4
4.864988438E1,-1.084284950E-2,2.596175298E-3,9.621120058E-3
4.915393974E1,-9.010255337E-3,3.481929377E-2,-2.596175298E-3
4.965799490E1,-2.748891478E-3,-1.069013379E-3,1.527161949E-4
5.016204984E1,-6.566796452E-3,6.872228812E-3,-3.054323897E-4
5.066610458E1,-1.252272818E-2,6.872228812E-3,-4.428769462E-3
5.117015917E1,-8.704823442E-3,-4.123337101E-3,3.970621154E-3
5.167421349E1,-8.704823442E-3,5.192350596E-3,-6.108647794E-4
5.217826760E1,-5.955931731E-3,3.207040019E-3,-5.345067009E-3
5.268232156E1,-1.007926930E-2,2.290742937E-3,-1.679878100E-3
5.318637542E1,-9.468403645E-3,4.123337101E-3,-3.207040019E-3
5.369042906E1,-1.572976820E-2,6.414080039E-3,3.054323897E-4
5.419448245E1,-1.649334840E-2,5.345067009E-3,-9.162971983E-4
5.469853557E1,-8.399390616E-3,5.650499370E-3,-1.053741761E-2
5.520258844E1,-1.053741761E-2,6.719512399E-3,-9.773836471E-3
5.570664109E1,-1.313359290E-2,1.160643063E-2,-6.261364091E-3
5.621069344E1,-3.207040019E-3,2.458730713E-2,-1.481347065E-2
5.671474557E1,-4.276053607E-2,5.665770918E-2,-4.749473557E-2
5.721879745E1,1.725693047E-2,1.527161949E-4,-5.879573524E-2
5.772284896E1,-3.573558852E-2,2.962694131E-2,5.192350596E-3
5.822690031E1,-2.046396956E-2,1.130099874E-2,-7.330377586E-3
5.873095136E1,-1.374445762E-2,1.939495653E-2,-1.878409274E-2
5.923500208E1,-1.878409274E-2,1.298087649E-2,-1.038470119E-2
5.973905245E1,-1.939495653E-2,1.863137633E-2,-1.389717404E-2
6.024310258E1,-1.924224012E-2,1.771507785E-2,-1.389717404E-2
6.074715237E1,-1.114828233E-2,5.345067009E-3,-9.926552884E-3
6.125120196E1,-1.893680729E-2,2.138026757E-3,-6.261364091E-3
6.175525144E1,-1.053741761E-2,5.039634649E-3,-6.261364091E-3
6.225930081E1,-7.024944760E-3,8.857538924E-3,-1.542433538E-2
6.276335008E1,-9.162971750E-3,4.886918236E-3,-1.404988952E-2
6.326739930E1,-1.084284950E-2,6.872228812E-3,-1.206457894E-2
6.377144847E1,-1.145371422E-2,8.857538924E-3,-1.099556591E-2
6.427549774E1,-1.038470119E-2,4.428769462E-3,-1.130099874E-2
6.477954717E1,-6.872228812E-3,2.596175298E-3,-1.389717404E-2
6.528359664E1,-1.175914705E-2,1.007926930E-2,-1.038470119E-2
6.578764623E1,-8.552107029E-3,7.330377586E-3,-1.069013402E-2
6.629169597E1,-3.817904973E-3,0.000000000E0,-1.511890348E-2
6.679574586E1,-3.512472380E-3,-4.123337101E-3,-1.114828233E-2
6.729979586E1,1.985310577E-3,-3.054323897E-4,-5.650499370E-3
6.780384597E1,-9.468403645E-3,2.107483521E-2,-1.282816008E-2
6.830789602E1,-9.010255337E-3,-7.024944760E-3,-3.665188793E-3
6.881194592E1,6.566796452E-3,-5.818486959E-2,-9.621120058E-3
6.931599576E1,4.123337194E-2,-3.764454126E-1,3.329212964E-2
6.982004565E1,-3.222311661E-2,5.436696485E-2,-1.970038936E-2
7.032409565E1,-2.687804960E-2,2.290742844E-2,3.970621154E-3
7.082814581E1,-2.061668597E-2,-2.596175298E-3,6.872228812E-3
7.133219623E1,-6.261364091E-3,1.175914705E-2,-1.710421406E-2
7.183624690E1,-7.177661173E-3,1.282816008E-2,-1.496618707E-2
7.234029789E1,-1.466075517E-2,2.290742844E-2,-1.298087649E-2
7.284434920E1,-1.206457894E-2,1.527161989E-2,-4.581485875E-3
7.334840065E1,-1.175914705E-2,1.221729536E-2,-3.512472380E-3
7.385245232E1,-8.093958721E-3,1.099556591E-2,-8.704823442E-3
7.435650404E1,-5.497782957E-3,1.985310577E-3,-7.483093534E-3
7.486055571E1,-7.941242307E-3,3.665188793E-3,-5.497782957E-3
7.536460722E1,-6.719512399E-3,-4.581485991E-4,-5.650499370E-3
7.586865842E1,-4.581485875E-3,4.428769462E-3,-7.635809947E-3
7.637270930E1,-5.803215317E-3,3.970621154E-3,-7.635809947E-3
7.687675982E1,-1.099556591E-2,1.374445739E-3,-4.276053514E-3
7.738081003E1,-5.650499370E-3,-2.748891478E-3,-6.414080039E-3
7.788485998E1,-3.970621154E-3,3.817904973E-3,-5.192350596E-3
7.838890972E1,-5.192350596E-3,-1.985310577E-3,-3.207040019E-3
7.889295920E1,-8.399390616E-3,-1.374445739E-3,1.374445739E-3
7.939700842E1,-6.261364091E-3,7.177661173E-3,-5.955931731E-3
7.990105742E1,-2.748891478E-3,-7.635809598E-4,-9.162971750E-3
8.040510618E1,-4.886918236E-3,-2.596175298E-3,-3.970621154E-3
8.090915482E1,-3.512472380E-3,-4.581485991E-4,-4.734201822E-3
8.141320331E1,-5.803215317E-3,2.138026757E-3,-4.428769462E-3
8.191725175E1,-5.497782957E-3,3.207040019E-3,-4.734201822E-3
8.242130003E1,-6.261364091E-3,1.832594397E-3,-5.039634649E-3
8.292534821E1,-5.192350596E-3,1.069013379E-3,-4.428769462E-3
8.342939623E1,-6.261364091E-3,-1.069013379E-3,-3.817904973E-3
8.393344409E1,-8.399390616E-3,-1.374445739E-3,1.069013379E-3
8.443749211E1,-4.886918236E-3,6.566796452E-3,-7.483093534E-3
8.494154076E1,-4.886918236E-3,1.985310577E-3,-6.108647678E-3
8.544559013E1,-4.581485875E-3,-7.635809598E-4,-3.817904973E-3
8.594964013E1,-4.123337101E-3,1.527161949E-4,-5.650499370E-3
8.645369045E1,-5.955931731E-3,3.665188793E-3,-3.054323839E-3
8.695774092E1,-4.123337101E-3,1.527161920E-3,-4.428769462E-3
8.746179149E1,-5.650499370E-3,4.428769462E-3,-3.359756200E-3
8.796584206E1,-6.414080039E-3,1.069013379E-3,-2.290742937E-3
8.846989263E1,1.172860414E-1,-3.468184769E-1,2.031125315E-2
8.897394310E1,1.678351015E-1,-1.983783394E-1,-1.893680729E-2
8.947799342E1,-1.114828214E-1,1.411097646E-1,-1.832594350E-2
8.998204352E1,-1.099556591E-2,7.635809947E-3,-2.901607659E-3
9.048609347E1,-2.443459118E-3,-5.039634649E-3,-3.359756200E-3
9.099014315E1,-1.908952370E-2,1.389717404E-2,3.054323839E-3
9.149419284E1,-2.031125315E-2,2.183841541E-2,1.985310577E-3
9.199824253E1,-7.177661173E-3,6.872228812E-3,-9.926552884E-3
9.250229222E1,-1.374445762E-2,7.024944760E-3,-4.581485875E-3
9.300634190E1,-1.252272818E-2,1.023198478E-2,-3.359756200E-3
9.351039164E1,-7.024944760E-3,3.054323897E-4,-4.276053514E-3
9.401444170E1,-5.955931731E-3,-4.276053514E-3,-2.596175298E-3
9.451849237E1,-7.483093534E-3,4.886918236E-3,-6.719512399E-3
9.502254357E1,-6.566796452E-3,1.221729559E-3,-3.359756200E-3
9.552659524E1,-7.024944760E-3,2.748891478E-3,-2.596175298E-3
9.603064737E1,-6.414080039E-3,-6.719512399E-3,1.527161949E-4
9.653470003E1,-4.581485875E-3,-3.970621154E-3,-7.177661173E-3
9.703875357E1,-6.261364091E-3,1.069013379E-3,-4.123337101E-3
9.754280821E1,-6.566796452E-3,2.443459118E-3,-1.985310577E-3
9.804686357E1,-5.497782957E-3,6.566796452E-3,-6.414080039E-3
9.855091940E1,-7.483093534E-3,3.665188793E-3,-1.069013379E-3
9.905497529E1,-5.955931731E-3,-2.748891478E-3,1.069013379E-3
9.955903123E1,-4.734201822E-3,7.483093534E-3,-8.246674202E-3
1.000630871E2,-7.635809947E-3,6.566796452E-3,-9.315688163E-3
1.005671433E2,-3.970621154E-3,1.832594397E-3,-3.054323839E-3
1.010712002E2,0.000000000E0,3.054323839E-3,-7.941242307E-3
1.015752581E2,-9.162971983E-4,1.679878100E-3,-3.970621154E-3
1.020793171E2,-1.970038936E-2,1.511890348E-2,3.054323897E-4
1.025833770E2,-2.916879393E-2,2.840521187E-2,1.832594397E-3
1.030874379E2,2.840521187E-2,-6.354520917E-1,7.651081681E-2
1.035914997E2,1.684459597E-1,-3.892735839E-1,-2.840521187E-2
1.040955621E2,-2.993237413E-2,6.246092543E-2,-2.084576041E-1
1.045996250E2,1.142317131E-1,-2.504545636E-2,-1.262962967E-1
1.051036882E2,2.596175298E-3,-1.270598769E-1,-1.756236330E-2
1.056077516E2,-5.375609919E-2,-9.575305134E-2,-2.956585586E-1
1.061118151E2,5.268708616E-2,3.802633286E-2,1.678351015E-1
1.066158784E2,9.224057943E-2,-4.428769648E-2,9.621120058E-3
1.071199417E2,7.635809947E-3,-1.481347065E-2,-1.221729559E-3
1.076240049E2,1.087339297E-1,-1.032361463E-1,-1.374445739E-3
1.081280679E2,-1.030834317E-1,8.613193035E-2,5.803215317E-3
1.086321308E2,2.382372692E-2,-3.145953640E-2,-5.345067009E-3
1.091361935E2,-8.246674202E-3,3.573558852E-2,1.450803876E-2
1.096402560E2,1.679878100E-3,7.177661173E-3,-4.276053514E-3
1.101443183E2,8.246674202E-3,-4.734201822E-3,-1.221729559E-3
1.106483805E2,-1.252272818E-2,1.466075517E-2,-1.527161920E-3
1.111524427E2,5.039634649E-3,-3.207040019E-3,-8.399390616E-3
1.116565048E2,1.069013379E-3,-1.527161949E-4,-6.719512399E-3
1.121605670E2,8.857538924E-3,-2.443459118E-3,-9.621120058E-3
1.126646290E2,7.024944760E-3,-9.162971983E-4,-1.053741761E-2
1.131686909E2,9.010255337E-3,-0.000000000E0,-1.237001177E-2
1.136727528E2,8.857538924E-3,2.748891478E-3,-1.084284950E-2
1.141768147E2,7.941242307E-3,2.138026757E-3,-1.023198478E-2
1.146808765E2,1.206457894E-2,7.635809598E-4,-1.053741761E-2
1.151849383E2,1.099556591E-2,9.162971983E-4,-1.542433538E-2
1.156889999E2,1.420260593E-2,1.985310577E-3,-7.024944760E-3
1.161930614E2,1.634063199E-2,2.748891478E-3,-1.069013402E-2
1.166971227E2,1.542433538E-2,4.123337101E-3,-1.374445762E-2
1.172011840E2,1.863137633E-2,3.512472380E-3,-9.926552884E-3
1.177052451E2,1.924224012E-2,5.192350596E-3,-1.175914705E-2
1.182093061E2,1.970038936E-2,3.817904973E-3,-1.130099874E-2
1.187133668E2,2.138026804E-2,5.955931731E-3,-7.941242307E-3
1.192174274E2,2.367101051E-2,4.428769462E-3,-8.246674202E-3
1.197214878E2,8.277218044E-2,-1.832594350E-2,-1.359174121E-2
1.202255482E2,1.237001177E-2,3.573558852E-2,-7.635809947E-3
1.207296083E2,2.168569900E-2,1.527161949E-4,-1.145371422E-2
1.212336683E2,3.298669681E-2,-2.443459118E-3,-2.290742937E-3
1.217377282E2,2.840521187E-2,-9.162971983E-4,-2.138026757E-3
1.222417881E2,5.329795182E-2,-1.404988952E-2,-6.108647794E-4
1.227458480E2,9.590577334E-2,-6.093376130E-2,-6.872228812E-3
1.232499080E2,-3.940077871E-2,6.994401664E-2,3.512472380E-3
1.237539681E2,9.651663154E-2,-3.604102135E-2,1.939495653E-2
1.242580282E2,3.207040206E-2,-1.191186346E-2,-2.748891525E-2
1.247620883E2,9.514218569E-2,6.108647794E-4,3.772090003E-2
1.252661484E2,-1.634063199E-2,-6.001746282E-2,-4.184423760E-2
1.257702085E2,-1.771507785E-2,1.527161989E-2,-1.618791744E-2
1.262742684E2,-4.138609022E-2,8.109229803E-2,-2.138026757E-3
1.267783284E2,2.580903657E-2,1.389717404E-2,-4.276053514E-3
1.272823884E2,3.008509055E-2,9.315688163E-3,-1.069013379E-3
1.277864485E2,2.962694131E-2,1.038470119E-2,-3.817904973E-3
1.282905087E2,2.916879393E-2,1.420260593E-2,-2.748891478E-3
1.287945688E2,2.947422490E-2,6.566796452E-3,-3.207040019E-3
1.292986288E2,2.947422490E-2,7.483093534E-3,-1.985310577E-3
1.298026888E2,2.855792828E-2,8.857538924E-3,-1.374445739E-3
1.303067486E2,3.023780696E-2,1.053741761E-2,-4.581485991E-4
1.308108085E2,3.008509055E-2,8.399390616E-3,-4.581485875E-3
1.313148684E2,2.977965772E-2,5.955931731E-3,-2.138026757E-3
1.318189283E2,3.039052337E-2,1.282816008E-2,-1.069013379E-3
1.323229882E2,2.962694131E-2,1.679878100E-3,-1.832594397E-3
1.328270479E2,2.947422490E-2,8.857538924E-3,1.069013379E-3
1.333311078E2,3.039052337E-2,8.246674202E-3,-4.734201822E-3
1.338351675E2,2.871064469E-2,1.343902480E-2,-2.901607659E-3
1.343392271E2,2.962694131E-2,7.177661173E-3,-3.359756200E-3
1.348432869E2,2.825249545E-2,1.603520103E-2,1.221729559E-3
1.353473466E2,2.840521187E-2,9.468403645E-3,-3.054323839E-3
1.358514063E2,2.901607752E-2,1.603520103E-2,-3.207040019E-3
1.363554660E2,2.886336111E-2,9.773836471E-3,-2.901607659E-3
1.368595255E2,3.039052337E-2,1.786779426E-2,-3.054323897E-4
1.373635851E2,2.916879393E-2,9.468403645E-3,-2.138026757E-3
1.378676445E2,2.977965772E-2,1.191186346E-2,-1.527161920E-3
1.383717040E2,2.855792828E-2,1.542433538E-2,-2.290742937E-3
1.388757634E2,2.764163166E-2,1.832594350E-2,-2.290742937E-3
1.393798231E2,3.222311661E-2,-2.275471389E-2,4.581485991E-4
1.398838828E2,4.459312931E-2,-4.581485991E-4,-2.138026757E-3
1.403879425E2,4.306596518E-2,1.374445762E-2,-4.581485875E-3
1.408920021E2,2.703076601E-2,9.621120058E-3,-3.359756200E-3
1.413960618E2,2.779434808E-2,2.993237413E-2,-1.527161920E-3
1.419001216E2,2.916879393E-2,1.771507785E-2,7.635809598E-4
1.424041815E2,2.962694131E-2,1.343902480E-2,-2.596175298E-3
1.429082416E2,2.901607752E-2,1.069013402E-2,-2.748891478E-3
1.434123020E2,2.977965772E-2,1.114828233E-2,-2.748891478E-3
1.439163625E2,3.023780696E-2,1.527161949E-4,2.290742937E-3
1.444204232E2,2.901607752E-2,1.664606482E-2,-2.901607659E-3
1.449244841E2,3.023780696E-2,2.138026757E-3,7.635809598E-4
1.454285451E2,2.977965772E-2,1.084284950E-2,-5.497782957E-3
1.459326062E2,3.023780696E-2,9.773836471E-3,2.290742937E-3
1.464366672E2,2.947422490E-2,5.650499370E-3,-2.290742937E-3
1.469407283E2,2.947422490E-2,1.237001177E-2,-3.054323897E-4
1.474447893E2,2.871064469E-2,3.054323839E-3,-2.901607659E-3
1.479488503E2,2.932151034E-2,9.315688163E-3,1.679878100E-3
1.484529112E2,2.993237413E-2,6.872228812E-3,-4.734201822E-3
1.489569721E2,2.977965772E-2,1.099556591E-2,9.162971983E-4
1.494610330E2,2.962694131E-2,5.039634649E-3,-7.635809598E-4
1.499650939E2,2.932151034E-2,9.468403645E-3,-3.054323897E-4
1.504691548E2,2.993237413E-2,1.252272818E-2,-1.985310577E-3
1.509732158E2,3.023780696E-2,5.803215317E-3,-4.581485991E-4
1.514772768E2,2.993237413E-2,6.872228812E-3,-4.276053514E-3
1.519813378E2,2.947422490E-2,7.635809947E-3,1.221729559E-3
1.524853988E2,2.977965772E-2,1.740964688E-2,-2.290742937E-3
1.529894596E2,2.901607752E-2,5.650499370E-3,6.108647794E-4
1.534935205E2,2.916879393E-2,-0.000000000E0,-4.428769462E-3
1.539975816E2,3.023780696E-2,1.130099874E-2,1.679878100E-3
1.545016427E2,2.932151034E-2,1.237001177E-2,-5.192350596E-3
1.550057039E2,3.023780696E-2,6.108647678E-3,5.497782957E-3
1.555097651E2,3.039052337E-2,3.817904973E-3,-4.123337101E-3
1.560138263E2,2.901607752E-2,8.399390616E-3,2.748891478E-3
1.565178873E2,3.084867075E-2,1.007926930E-2,-8.857538924E-3
1.570219484E2,-4.138609022E-2,5.696314201E-2,6.719512399E-3
1.575260095E2,2.504545636E-2,2.565632015E-2,2.901607659E-3
1.580300706E2,4.367683083E-2,-1.832594350E-2,5.482511222E-2
1.585341317E2,5.665770918E-2,3.313941509E-2,-4.993819445E-2
1.590381928E2,7.788525894E-3,7.177661173E-3,3.497200832E-2
1.595422540E2,1.522580534E-1,-1.320995092E-1,1.572976820E-2
1.600463152E2,-8.979712427E-2,9.025526792E-2,-4.581485689E-2
1.605503765E2,1.679878100E-3,7.605266571E-2,-9.315688163E-3
1.610544379E2,1.221729559E-3,4.199695215E-2,-4.734201822E-3
1.615584995E2,5.421425030E-2,-2.947422490E-2,-1.679878100E-3
1.620625613E2,3.787361458E-2,-3.359756200E-3,1.832594397E-3
1.625666301E2,1.970038936E-2,2.672533318E-2,-4.276053514E-3
1.630706855E2,2.947422490E-2,7.177661173E-3,1.985310577E-3
1.635747479E2,4.092793912E-2,-3.054323839E-3,3.970621154E-3
1.640788105E2,4.382954910E-2,-2.122755162E-2,-5.039634649E-3
1.645828733E2,4.169152305E-2,9.621120058E-3,2.443459118E-3
1.650869363E2,1.710421406E-2,1.298087649E-2,1.527161949E-4
1.655909993E2,5.726857483E-2,-1.939495653E-2,-3.207040019E-3
1.660950624E2,3.634645417E-2,-4.581485875E-3,-1.221729559E-3
1.665991255E2,3.100138716E-2,2.443459118E-3,-3.054323897E-4
1.671031888E2,3.161225095E-2,6.108647678E-3,-2.290742937E-3
1.676072521E2,2.825249545E-2,3.268126398E-2,4.581485991E-4
1.681113155E2,2.474002354E-2,1.847865991E-2,-1.679878100E-3
1.686153790E2,2.458730713E-2,3.817904973E-3,-1.527161949E-4
1.691194424E2,3.008509055E-2,1.557705179E-2,-1.527161920E-3
1.696235058E2,3.207040206E-2,9.468403645E-3,1.527161920E-3
1.701275692E2,3.130681813E-2,4.276053514E-3,-1.221729559E-3
1.706316327E2,3.176496923E-2,1.985310577E-3,1.069013379E-3
1.711356963E2,3.115410358E-2,-1.069013379E-3,-4.581485991E-4
1.716397601E2,3.191768378E-2,7.635809947E-3,0.000000000E0
1.721438241E2,3.069595434E-2,8.552107029E-3,-1.679878100E-3
1.726478882E2,3.069595434E-2,5.345067009E-3,1.832594397E-3
1.731519526E2,3.176496923E-2,-1.435532235E-2,-1.374445739E-3
1.736560169E2,3.069595434E-2,2.901607659E-3,3.054323897E-4
1.741600812E2,2.977965772E-2,2.107483521E-2,-2.596175298E-3
1.746641455E2,3.054323979E-2,2.306014486E-2,-4.581485991E-4
1.751682098E2,2.580903657E-2,-9.315688163E-3,-6.108647794E-4
1.756722743E2,2.962694131E-2,1.206457894E-2,-1.527161949E-4
1.761763387E2,3.054323979E-2,1.450803876E-2,-1.221729559E-3
1.766804031E2,2.962694131E-2,9.010255337E-3,1.221729559E-3
1.771844676E2,3.008509055E-2,7.635809947E-3,-1.221729559E-3
1.776885320E2,3.008509055E-2,7.635809947E-3,-1.527161949E-4
1.781925965E2,3.039052337E-2,7.024944760E-3,-3.054323897E-4
1.786966610E2,3.069595434E-2,9.010255337E-3,3.054323897E-4
1.792007257E2,2.993237413E-2,9.010255337E-3,4.581485991E-4
1.797047906E2,2.855792828E-2,6.719512399E-3,4.886918236E-3
1.802088553E2,2.916879393E-2,5.955931731E-3,3.359756200E-3
1.807129203E2,2.794706449E-2,5.192350596E-3,4.734201822E-3
1.812169855E2,2.809977904E-2,7.788525894E-3,6.872228812E-3
1.817210507E2,2.641990222E-2,7.177661173E-3,9.621120058E-3
1.822251161E2,2.428187430E-2,6.566796452E-3,9.162971750E-3
1.827291819E2,2.183841541E-2,5.039634649E-3,9.162971750E-3
1.832332480E2,2.061668597E-2,7.788525894E-3,1.069013402E-2
1.837373144E2,1.970038936E-2,1.038470119E-2,9.926552884E-3
1.842413813E2,1.740964688E-2,1.145371422E-2,8.857538924E-3
1.847454486E2,1.649334840E-2,4.428769462E-3,1.038470119E-2
1.852495165E2,1.450803876E-2,1.985310577E-3,1.130099874E-2
1.857535847E2,1.298087649E-2,1.023198478E-2,9.926552884E-3
1.862576533E2,1.313359290E-2,9.621120058E-3,9.926552884E-3
1.867617225E2,1.023198478E-2,5.955931731E-3,9.773836471E-3
1.872657925E2,8.246674202E-3,2.290742937E-3,1.114828233E-2
1.877698631E2,7.330377586E-3,5.345067009E-3,9.926552884E-3
1.882739343E2,5.497782957E-3,6.108647678E-3,1.038470119E-2
1.887780058E2,4.581485875E-3,3.359756200E-3,9.926552884E-3
1.892820776E2,3.817904973E-3,4.734201822E-3,9.010255337E-3
1.897861496E2,2.290742937E-3,5.192350596E-3,7.177661173E-3
1.902902216E2,1.832594397E-3,7.635809947E-3,5.192350596E-3
1.907942934E2,-9.162971983E-4,5.192350596E-3,4.886918236E-3
1.912983650E2,-1.985310577E-3,-6.108647794E-4,3.207040019E-3
1.918024364E2,1.740964688E-2,-6.108647678E-3,2.290742937E-3
1.923065077E2,2.840521187E-2,6.108647794E-4,1.832594397E-3
1.928105789E2,-1.679878100E-3,1.374445739E-3,-1.069013379E-3
1.933146501E2,0.000000000E0,1.679878100E-3,-7.635809598E-4
1.938187211E2,-5.955931731E-3,-3.054323839E-3,-4.581485991E-4
1.943227921E2,-9.468403645E-3,3.207040019E-3,1.221729559E-3
1.948268629E2,2.596175298E-3,1.069013379E-3,3.054323897E-4
1.953309336E2,-1.053741761E-2,-0.000000000E0,-9.162971983E-4
1.958350044E2,4.581485991E-4,3.817904973E-3,-4.123337101E-3
1.963390750E2,1.679878100E-3,3.665188793E-3,-3.054323897E-4
1.968431458E2,1.832594397E-3,-2.901607659E-3,4.581485991E-4
1.973472165E2,1.985310577E-3,-3.054323897E-4,3.054323897E-4
1.978512873E2,-2.290742937E-3,-1.374445739E-3,-7.635809598E-4
1.983553580E2,6.108647794E-4,-7.635809598E-4,-1.527161949E-4
1.988594285E2,-1.527161949E-4,-1.527161920E-3,3.054323897E-4
1.993634992E2,6.108647794E-4,-2.596175298E-3,4.581485991E-4
1.998675697E2,3.054323897E-4,-9.162971983E-4,1.069013379E-3
2.003716403E2,-4.581485991E-4,4.581485991E-4,6.108647794E-4
2.008757109E2,-9.162971983E-4,-3.054323897E-4,-1.069013379E-3
2.013797813E2,3.054323897E-4,-7.635809598E-4,-0.000000000E0
2.018838518E2,-9.162971983E-4,-4.581485991E-4,1.527161949E-4
2.023879222E2,-7.635809598E-4,-7.635809598E-4,1.221729559E-3
2.028919925E2,1.221729559E-3,-1.221729559E-3,2.901607659E-3
2.033960628E2,-7.635809598E-4,3.054323897E-4,-1.527161920E-3
2.039001332E2,-1.221729559E-3,-7.635809598E-4,-4.581485991E-4
2.044042035E2,-0.000000000E0,-1.527161949E-4,-4.581485991E-4
2.049082738E2,-0.000000000E0,-1.527161949E-4,3.054323897E-4
2.054123442E2,0.000000000E0,1.527161949E-4,-0.000000000E0
2.059164145E2,7.635809598E-4,-6.108647794E-4,2.138026757E-3
2.064204848E2,-3.054323897E-4,4.581485991E-4,-1.221729559E-3
2.069245550E2,-2.138026757E-3,4.581485991E-4,-1.069013379E-3
2.074286253E2,-3.054323897E-4,1.527161949E-4,-4.581485991E-4
2.079326956E2,-2.290742937E-3,-1.069013379E-3,1.527161949E-4
2.084367659E2,4.428769462E-3,1.527161920E-3,6.108647794E-4
2.089408362E2,-2.443459118E-3,-1.374445739E-3,1.069013379E-3
2.094449065E2,6.108647794E-4,9.162971983E-4,-1.527161920E-3
2.099489769E2,-9.162971983E-4,-1.985310577E-3,4.581485991E-4
2.104530472E2,-4.581485991E-4,-1.221729559E-3,3.054323897E-4
2.109571175E2,2.290742937E-3,-4.123337101E-3,1.527161920E-3
2.114611877E2,7.635809598E-4,3.665188793E-3,1.832594397E-3
2.119652581E2,4.428769462E-3,1.404988952E-2,-7.483093534E-3
2.124693285E2,3.665188793E-3,1.069013379E-3,-4.581485991E-4
2.129733989E2,-3.665188793E-3,1.221729559E-3,-1.527161949E-4
2.134774695E2,7.635809598E-4,2.290742937E-3,-7.635809598E-4
2.139815400E2,-3.054323897E-4,0.000000000E0,7.635809598E-4
2.144856106E2,3.054323897E-4,4.581485991E-4,1.221729559E-3
2.149896812E2,0.000000000E0,4.581485991E-4,-1.069013379E-3
2.154937519E2,-3.054323897E-4,6.108647794E-4,-7.635809598E-4
2.159978227E2,-3.054323897E-4,3.054323897E-4,-0.000000000E0
2.165018935E2,1.527161949E-4,-3.054323897E-4,1.527161949E-4
2.170059644E2,-3.054323897E-4,-3.054323897E-4,7.635809598E-4
2.175100352E2,7.635809598E-4,-7.635809598E-4,9.162971983E-4
2.180141062E2,-1.527161949E-4,-1.527161949E-4,-1.221729559E-3
2.185181772E2,-0.000000000E0,4.581485991E-4,-4.581485991E-4
2.190222482E2,0.000000000E0,4.581485991E-4,-1.527161949E-4
2.195263193E2,-0.000000000E0,-3.054323897E-4,1.527161949E-4
2.200303904E2,-1.527161949E-4,1.527161949E-4,6.108647794E-4
2.205344617E2,4.581485991E-4,-1.527161949E-4,6.108647794E-4
2.210385330E2,-0.000000000E0,4.581485991E-4,-9.162971983E-4
2.215426046E2,-0.000000000E0,-1.527161949E-4,-1.527161949E-4
2.220466763E2,-1.527161949E-4,1.527161949E-4,-1.527161949E-4
2.225507483E2,-4.581485991E-4,3.054323897E-4,-3.054323897E-4
2.230548206E2,-3.054323897E-4,-1.527161949E-4,7.635809598E-4
2.235588930E2,-5.192350596E-3,4.428769462E-3,7.635809598E-4
2.240629657E2,-8.292489499E-2,7.315105945E-2,1.832594397E-3
2.245670385E2,-1.160643063E-2,1.847865991E-2,2.443459118E-3
2.250711115E2,1.450803876E-2,-4.382954910E-2,6.108647794E-4
2.255751845E2,4.581485991E-4,2.031125315E-2,5.345067009E-3
2.260792576E2,-2.290742937E-3,8.704823442E-3,4.581485991E-4
2.265833308E2,7.024944760E-3,-2.641990222E-2,3.665188793E-3
2.270874040E2,3.817904973E-3,9.162971750E-3,-9.162971983E-4
2.275914772E2,-2.015853859E-2,4.581485991E-4,-1.007926930E-2
2.280955505E2,1.023198478E-2,-3.970621154E-3,2.138026757E-3
2.285996237E2,6.566796452E-3,4.581485991E-4,3.054323897E-4
2.291036969E2,-9.162971983E-4,-4.886918236E-3,6.108647794E-4
2.296077700E2,5.955931731E-3,-2.290742937E-3,1.221729559E-3
2.301118431E2,4.123337101E-3,-1.527161920E-3,-3.054323897E-4
2.306159163E2,3.207040019E-3,-1.832594397E-3,-7.635809598E-4
2.311199895E2,2.596175298E-3,3.054323897E-4,7.635809598E-4
2.316240626E2,1.832594397E-3,-9.162971983E-4,3.054323897E-4
2.321281357E2,1.374445739E-3,-2.596175298E-3,1.069013379E-3
2.326322089E2,1.069013379E-3,-1.985310577E-3,7.635809598E-4
2.331362820E2,9.162971983E-4,5.650499370E-3,-4.581485991E-4
2.336403551E2,3.207040019E-3,-5.192350596E-3,-7.635809598E-4
2.341444282E2,4.123337101E-3,9.162971983E-4,-3.054323897E-4
2.346485014E2,4.734201822E-3,2.932151034E-2,-4.123337101E-3
2.351525747E2,1.374445739E-3,5.879573524E-2,0.000000000E0
2.356566480E2,1.206457894E-2,-8.139773458E-2,-9.621120058E-3
2.361607212E2,-8.857538924E-3,-8.078686893E-2,-1.221729559E-3
2.366647944E2,3.084867075E-2,-3.115410358E-2,1.572976820E-2
2.371688675E2,-7.635809947E-3,5.803215317E-3,-1.374445739E-3
2.376729408E2,2.596175298E-3,-2.748891478E-3,-4.581485991E-4
2.381770140E2,2.596175298E-3,6.108647794E-4,3.054323897E-4
2.386810874E2,-1.527161949E-4,2.138026757E-3,-6.108647794E-4
2.391851609E2,-6.108647794E-4,1.221729559E-3,-1.221729559E-3
2.396892347E2,-1.527161949E-4,7.635809598E-4,-7.635809598E-4
2.401933085E2,7.635809598E-4,-1.527161949E-4,0.000000000E0
2.406973825E2,-1.832594397E-3,6.108647794E-4,3.054323897E-4
2.412014566E2,4.581485991E-4,-9.162971983E-4,7.635809598E-4
2.417055310E2,3.054323897E-4,6.108647794E-4,-3.054323897E-4
2.422096055E2,3.054323897E-4,1.527161949E-4,-4.581485991E-4
2.427136802E2,4.581485991E-4,-4.581485991E-4,-6.108647794E-4
2.432177551E2,1.527161949E-4,4.581485991E-4,0.000000000E0
2.437218300E2,1.527161949E-4,7.635809598E-4,-9.162971983E-4
2.442259051E2,-3.054323897E-4,7.635809598E-4,6.108647794E-4
2.447299801E2,7.635809598E-4,3.054323897E-4,6.108647794E-4
2.452340553E2,7.635809598E-4,7.635809598E-4,-1.527161920E-3
2.457381306E2,1.527161949E-4,1.527161920E-3,-7.635809598E-4
2.462422059E2,3.054323897E-4,-1.527161949E-4,-0.000000000E0
2.467462813E2,3.054323897E-4,2.748891478E-3,-4.581485991E-4
2.472503568E2,-6.108647794E-4,4.581485991E-4,7.635809598E-4
2.477544323E2,-1.069013379E-3,1.985310577E-3,-1.985310577E-3
2.482585078E2,-3.054323897E-4,-1.527161949E-4,1.069013379E-3
2.487625833E2,9.162971983E-4,-9.162971983E-4,-1.832594397E-3
2.492666588E2,1.374445739E-3,-4.123337101E-3,1.374445739E-3
2.497707344E2,0.000000000E0,-6.414080039E-3,0.000000000E0
2.502748101E2,4.581485991E-4,-2.290742937E-3,-2.443459118E-3
2.507788857E2,-1.679878100E-3,-2.748891478E-3,1.527161949E-4
2.512829614E2,3.054323897E-4,-5.803215317E-3,-4.581485991E-4
2.517870371E2,1.679878100E-3,-7.483093534E-3,6.108647794E-4
2.522911131E2,1.069013379E-3,-6.719512399E-3,1.985310577E-3
2.527951891E2,7.635809598E-4,-6.719512399E-3,-1.221729559E-3
2.532992653E2,9.162971983E-4,-6.108647678E-3,-4.581485991E-4
2.538033420E2,-9.162971983E-4,4.581485875E-3,2.596175298E-3
2.543074195E2,1.679878100E-3,-2.596175298E-3,3.054323897E-4
2.548114979E2,-1.221729559E-3,-6.108647794E-4,-2.138026757E-3
2.553155768E2,4.581485991E-4,2.901607659E-3,4.276053514E-3
2.558196561E2,-0.000000000E0,3.054323897E-4,-7.788525894E-3
2.563237356E2,4.581485991E-4,-2.138026757E-3,6.261364091E-3
2.568278152E2,-3.054323897E-4,-1.679878100E-3,-4.123337101E-3
2.573318950E2,-4.581485991E-4,4.581485875E-3,1.221729559E-3
2.578359748E2,2.443459118E-3,-1.679878123E-2,3.817904973E-3
2.583400546E2,6.414080039E-3,-2.382372692E-2,4.276053514E-3
2.588441345E2,-1.832594397E-3,-6.414080039E-3,-1.069013379E-3
2.593482144E2,-1.527161920E-3,-3.665188793E-3,1.374445739E-3
2.598522943E2,1.527161920E-3,-2.290742937E-3,1.069013379E-3
2.603563743E2,3.054323897E-4,-1.221729559E-3,1.343902480E-2
2.608604544E2,-1.053741761E-2,-6.261364091E-3,1.908952370E-2
2.613645348E2,-1.404988952E-2,-1.237001177E-2,2.687804960E-2
2.618686154E2,-2.809977904E-2,-1.313359290E-2,2.336557768E-2
2.623726962E2,-3.665188700E-2,-3.512472380E-3,2.641990222E-2
2.628767771E2,-4.596757516E-2,6.108647794E-4,2.229656465E-2
2.633808581E2,-5.253437161E-2,-6.108647794E-4,2.672533318E-2
2.638849393E2,-5.879573524E-2,-2.748891478E-3,4.123337101E-3
2.643890210E2,-5.803215504E-2,-2.138026757E-3,-5.039634649E-3
2.648931033E2,-5.222893879E-2,-4.276053514E-3,-1.527161989E-2
2.653971863E2,-4.046979174E-2,-2.596175298E-3,-2.626718581E-2
2.659012698E2,-3.390299529E-2,-6.566796452E-3,-2.122755162E-2
2.664053535E2,-2.321286127E-2,-4.276053514E-3,-2.474002354E-2
2.669094372E2,-1.099556591E-2,-4.428769462E-3,-1.649334840E-2
2.674135210E2,-5.650499370E-3,-1.527161949E-4,-1.939495653E-2
2.679176049E2,3.054323897E-4,-7.635809598E-4,-7.788525894E-3
2.684216889E2,-0.000000000E0,-9.162971983E-4,7.635809598E-4
2.689257730E2,-1.374445739E-3,-2.748891478E-3,0.000000000E0
2.694298572E2,-3.512472380E-3,2.138026757E-3,-1.527161949E-4
2.699339415E2,-6.414080039E-3,4.886918236E-3,1.985310577E-3
2.704380257E2,-2.718348242E-2,3.420842811E-2,7.024944760E-3
2.709421098E2,-1.282816008E-2,5.345067009E-3,-1.221729559E-3
2.714461940E2,-1.863137633E-2,3.405570984E-2,1.527161920E-3
2.719502782E2,1.343902480E-2,9.315688163E-3,4.734201822E-3
2.724543624E2,4.581485991E-4,6.108647678E-3,-2.901607659E-3
2.729584465E2,-2.306014486E-2,2.489273995E-2,8.246674202E-3
2.734625306E2,1.420260593E-2,-1.618791744E-2,-8.704823442E-3
2.739666145E2,2.107483521E-2,-3.634645417E-2,-7.635809947E-3
2.744706986E2,-3.207040019E-3,1.863137633E-2,6.108647678E-3
2.749747827E2,6.719512399E-3,-1.069013379E-3,-7.635809598E-4
2.754788670E2,6.566796452E-3,-5.192350596E-3,-1.527161920E-3
2.759829515E2,3.207040019E-3,-3.359756200E-3,-6.108647794E-4
2.764870358E2,-2.596175298E-3,3.512472380E-3,2.901607659E-3
2.769911202E2,-3.970621154E-3,1.679878100E-3,-3.665188793E-3
2.774952048E2,6.108647794E-4,-1.069013379E-3,2.290742937E-3
2.779992892E2,-1.985310577E-3,2.901607659E-3,-1.832594397E-3
2.785033739E2,-3.512472380E-3,-9.773836471E-3,-1.221729559E-3
2.790074587E2,-6.108647794E-4,-9.162971983E-4,3.512472380E-3
2.795115436E2,-2.290742937E-3,1.527161949E-4,-4.428769462E-3
2.800156286E2,-9.162971983E-4,4.886918236E-3,3.512472380E-3
2.805197136E2,1.527161949E-4,1.221729559E-3,-7.635809598E-4
2.810237987E2,-0.000000000E0,-2.138026757E-3,3.970621154E-3
2.815278838E2,3.970621154E-3,-5.345067009E-3,-2.596175298E-3
2.820319689E2,-2.443459118E-3,-3.359756200E-3,3.207040019E-3
2.825360541E2,-1.985310577E-3,-1.527161949E-4,-2.138026757E-3
2.830401393E2,3.054323897E-4,3.054323839E-3,1.832594397E-3
2.835442244E2,2.138026757E-3,1.130099874E-2,-6.566796452E-3
2.840483094E2,-1.053741761E-2,1.328630932E-2,-4.581485991E-4
2.845523945E2,8.704823442E-3,-9.468403645E-3,-1.527161949E-4
2.850564795E2,-1.527161920E-3,-5.955931731E-3,2.290742937E-3
2.855605646E2,-3.207040019E-3,1.374445739E-3,-7.635809598E-4
2.860646499E2,6.108647794E-4,5.345067009E-3,-2.443459118E-3
2.865687355E2,4.581485991E-4,5.650499370E-3,0.000000000E0
2.870728219E2,-2.290742937E-3,-3.970621154E-3,-1.374445739E-3
2.875769086E2,3.054323897E-4,-7.635809598E-4,2.138026757E-3
2.880809954E2,3.054323897E-4,-3.054323839E-3,-9.162971983E-4
2.885850823E2,-0.000000000E0,9.162971983E-4,-9.162971983E-4
2.890891692E2,1.527161949E-4,1.527161949E-4,-6.108647794E-4
2.895932559E2,4.581485991E-4,-4.581485991E-4,-6.108647794E-4
2.900973427E2,1.069013379E-3,-1.374445739E-3,7.635809598E-4
2.906014294E2,-1.985310577E-3,1.985310577E-3,0.000000000E0
2.911055161E2,2.596175298E-3,7.483093534E-3,-3.359756200E-3
2.916096027E2,-0.000000000E0,2.290742937E-3,1.069013379E-3
2.921136892E2,-2.138026757E-3,-7.788525894E-3,-1.374445739E-3
2.926177757E2,3.054323897E-4,3.512472380E-3,1.527161949E-4
2.931218621E2,-1.527161949E-4,7.330377586E-3,-4.581485875E-3
2.936259486E2,3.665188793E-3,2.901607659E-3,-4.581485991E-4
2.941300350E2,7.788525894E-3,-7.635809947E-3,-4.428769462E-3
2.946341214E2,1.649334840E-2,5.650499370E-3,-6.108647678E-3
2.951382079E2,2.092211880E-2,8.857538924E-3,-5.650499370E-3
2.956422942E2,2.443459071E-2,5.803215317E-3,-3.054323839E-3
2.961463807E2,2.580903657E-2,6.719512399E-3,-9.162971983E-4
2.966504670E2,2.428187430E-2,-4.276053514E-3,6.108647794E-4
2.971545535E2,2.748891525E-2,1.313359290E-2,1.527161949E-4
2.976586400E2,2.626718581E-2,9.010255337E-3,-1.374445739E-3
2.981627265E2,2.428187430E-2,9.162971983E-4,1.527161949E-4
2.986668132E2,1.695149764E-2,-8.704823442E-3,8.399390616E-3
2.991708999E2,1.420260593E-2,7.177661173E-3,2.138026757E-3
2.996749865E2,8.399390616E-3,3.970621154E-3,4.581485875E-3
3.001790729E2,4.886918236E-3,-9.162971983E-4,7.635809598E-4
3.006831594E2,1.985310577E-3,7.635809598E-4,7.635809598E-4
3.011872459E2,-2.596175298E-3,-1.679878100E-3,2.901607659E-3
3.016913325E2,1.221729559E-3,3.665188793E-3,-3.512472380E-3
3.021954194E2,6.108647794E-4,5.345067009E-3,2.138026757E-3
3.026995064E2,-1.832594397E-3,-4.276053514E-3,-1.374445739E-3
3.032035936E2,1.527161949E-4,-4.428769462E-3,2.596175298E-3
3.037076810E2,7.635809598E-4,-1.374445739E-3,-1.221729559E-3
3.042117687E2,-3.054323897E-4,-1.527161949E-4,3.054323897E-4
3.047158565E2,9.162971983E-4,-1.679878100E-3,-4.581485991E-4
3.052199444E2,-7.635809598E-4,-4.123337101E-3,2.443459118E-3
3.057240326E2,9.162971983E-4,-2.138026757E-3,-2.443459118E-3
3.062281209E2,-4.581485991E-4,-3.207040019E-3,1.374445739E-3
3.067322094E2,4.581485991E-4,-1.069013379E-3,-9.162971983E-4
3.072362979E2,-0.000000000E0,-1.985310577E-3,6.108647794E-4
3.077403863E2,3.054323897E-4,7.635809598E-4,-1.832594397E-3
3.082444748E2,1.069013379E-3,-1.832594397E-3,-1.527161920E-3
3.087485632E2,1.374445739E-3,-2.748891478E-3,-2.748891478E-3
3.092526517E2,8.857538924E-3,1.221729559E-3,-7.024944760E-3
3.097567402E2,1.114828233E-2,2.901607659E-3,-2.138026757E-3
3.102608287E2,1.527161989E-2,2.443459118E-3,-6.414080039E-3
3.107649172E2,1.970038936E-2,2.138026757E-3,-4.428769462E-3
3.112690059E2,2.214384824E-2,4.886918236E-3,-4.581485875E-3
3.117730948E2,2.504545636E-2,2.290742937E-3,-6.566796452E-3
3.122771837E2,2.733619884E-2,4.123337101E-3,-1.527161920E-3
3.127812729E2,2.886336111E-2,5.650499370E-3,-3.665188793E-3
3.132853621E2,2.733619884E-2,4.734201822E-3,6.108647794E-4
3.137894517E2,2.703076601E-2,3.817904973E-3,-3.207040019E-3
3.142935415E2,2.748891525E-2,5.650499370E-3,3.207040019E-3
3.147976315E2,2.641990222E-2,5.497782957E-3,-9.162971983E-4
3.153017218E2,2.382372692E-2,2.901607659E-3,-6.108647794E-4
3.158058122E2,2.244928107E-2,5.803215317E-3,7.635809947E-3
3.163099029E2,1.725693047E-2,0.000000000E0,-1.527161920E-3
3.168139936E2,1.511890348E-2,-2.138026757E-3,5.345067009E-3
3.173180845E2,1.374445762E-2,-2.901607659E-3,3.970621154E-3
3.178221754E2,1.114828233E-2,3.054323897E-4,3.970621154E-3
3.183262666E2,8.399390616E-3,-1.832594397E-3,2.596175298E-3
3.188303580E2,6.108647678E-3,-1.527161949E-4,4.276053514E-3
3.193344498E2,3.207040019E-3,-4.581485991E-4,2.138026757E-3
3.198385423E2,2.138026757E-3,2.138026757E-3,1.985310577E-3
3.203426357E2,-1.679878100E-3,-2.748891478E-3,4.276053514E-3
3.208467298E2,-1.221729559E-3,-7.635809598E-4,-1.527161920E-3
3.213508243E2,-3.054323897E-4,2.138026757E-3,-7.635809598E-4
3.218549188E2,-1.527161920E-3,-3.665188793E-3,1.985310577E-3
3.223590136E2,-1.221729559E-3,-0.000000000E0,-1.527161949E-4
3.228631085E2,3.054323897E-4,-7.635809598E-4,4.581485991E-4
3.233672034E2,-2.290742937E-3,-1.145371422E-2,1.679878100E-3
3.238712984E2,-9.162971983E-4,-7.177661173E-3,0.000000000E0
3.243753934E2,9.162971983E-4,3.665188793E-3,2.290742937E-3
3.248794886E2,5.650499370E-3,8.399390616E-3,-1.985310577E-3
3.253835837E2,2.748891478E-3,1.832594397E-3,-1.374445739E-3
3.258876788E2,1.069013379E-3,-6.108647678E-3,6.108647794E-4
3.263917738E2,9.162971983E-4,-1.832594397E-3,4.581485991E-4
3.268958686E2,3.817904973E-3,-4.428769462E-3,1.069013379E-3
3.273999634E2,1.527161949E-4,-1.527161920E-3,6.108647794E-4
3.279040584E2,1.527161949E-4,1.679878100E-3,-2.748891478E-3
3.284081532E2,1.527161949E-4,-4.581485991E-4,-1.527161949E-4
3.289122480E2,4.581485991E-4,6.108647794E-4,3.054323897E-4
3.294163425E2,1.069013379E-3,-2.443459118E-3,3.054323897E-4
3.299204371E2,4.581485991E-4,-1.985310577E-3,1.069013379E-3
3.304245316E2,1.221729559E-3,7.635809598E-4,-1.985310577E-3
3.309286261E2,1.374445739E-3,-1.527161920E-3,-7.635809598E-4
3.314327208E2,1.069013379E-3,3.054323897E-4,1.527161949E-4
3.319368158E2,-0.000000000E0,4.581485991E-4,-6.108647794E-4
3.324409109E2,0.000000000E0,-4.581485991E-4,4.581485991E-4
3.329450061E2,6.108647794E-4,-2.596175298E-3,1.527161920E-3
3.334491015E2,1.527161920E-3,-1.679878100E-3,1.374445739E-3
3.339531969E2,-1.374445739E-3,9.162971983E-4,-1.679878100E-3
3.344572921E2,-4.581485991E-4,-1.069013379E-3,-7.635809598E-4
3.349613875E2,-6.108647794E-4,-3.054323897E-4,0.000000000E0
3.354654830E2,1.679878100E-3,-2.290742937E-3,3.054323897E-4
3.359695785E2,-1.527161949E-4,-2.443459118E-3,9.162971983E-4
3.364736741E2,-2.764163166E-2,1.985310577E-3,3.970621154E-3
3.369777696E2,-2.947422490E-2,4.321868345E-2,1.191186346E-2
3.374818651E2,1.267544460E-2,-1.298087649E-2,-5.192350596E-3
3.379859606E2,1.985310577E-3,-2.443459118E-3,-3.207040019E-3
3.384900559E2,3.054323897E-4,-2.748891478E-3,-0.000000000E0
3.389941513E2,5.192350596E-3,-9.773836471E-3,-3.054323897E-4
3.394982467E2,2.962694131E-2,-2.367101051E-2,-3.512472380E-3
3.400023421E2,2.138026757E-3,8.704823442E-3,-2.748891478E-3
3.405064374E2,1.130099874E-2,2.703076601E-2,-4.276053514E-3
3.410105328E2,3.054323897E-4,-3.359756200E-3,4.581485991E-4
3.415146281E2,1.069013379E-3,-3.817904973E-3,7.635809598E-4
3.420187234E2,3.054323897E-4,-7.635809598E-4,-3.054323897E-4
3.425228190E2,3.054323897E-4,-1.221729559E-3,3.054323897E-4
3.430269147E2,4.581485991E-4,-7.635809598E-4,1.374445739E-3
3.435310106E2,1.069013379E-3,6.108647794E-4,-4.581485991E-4
3.440351066E2,0.000000000E0,3.054323897E-4,-6.108647794E-4
3.445392026E2,-7.635809947E-3,6.719512399E-3,1.374445739E-3
3.450432987E2,-1.527161920E-3,9.162971983E-4,3.054323897E-4
3.455473948E2,3.054323897E-4,1.527161949E-4,0.000000000E0
3.460514909E2,2.290742937E-3,-2.290742937E-3,-4.581485991E-4
3.465555871E2,3.207040019E-3,-4.123337101E-3,6.108647794E-4
3.470596832E2,1.832594397E-3,-7.635809598E-4,0.000000000E0
3.475637794E2,7.635809598E-4,6.108647794E-4,-1.069013379E-3
3.480678755E2,6.108647794E-4,-1.527161949E-4,-4.581485991E-4
3.485719716E2,0.000000000E0,-4.581485991E-4,-0.000000000E0
3.490760676E2,6.108647794E-4,4.581485991E-4,-6.108647794E-4
3.495801637E2,6.108647794E-4,-7.635809598E-4,0.000000000E0
3.500842597E2,1.527161949E-4,-1.832594397E-3,9.162971983E-4
3.505883556E2,1.069013379E-3,-4.581485991E-4,6.108647794E-4
3.510924516E2,9.162971983E-4,1.679878100E-3,-9.162971983E-4
3.515965474E2,1.527161949E-4,0.000000000E0,-4.581485991E-4
3.521006433E2,1.527161949E-4,4.581485991E-4,-1.527161949E-4
3.526047391E2,4.581485991E-4,-3.054323897E-4,1.527161949E-4
3.531088349E2,1.527161949E-4,-7.635809598E-4,3.054323897E-4
3.536129307E2,4.581485991E-4,-1.527161920E-3,9.162971983E-4
3.541170263E2,4.581485991E-4,1.527161949E-4,1.527161949E-4
3.546211222E2,1.527161949E-4,9.162971983E-4,-9.162971983E-4
3.551252181E2,3.054323897E-4,1.527161949E-4,-3.054323897E-4
3.556293141E2,3.054323897E-4,3.054323897E-4,1.527161949E-4
3.561334102E2,7.635809598E-4,-4.581485991E-4,0.000000000E0
3.566375063E2,3.054323897E-4,-1.527161920E-3,9.162971983E-4
3.571416026E2,6.108647794E-4,3.054323897E-4,4.581485991E-4
3.576456991E2,-1.527161949E-4,1.069013379E-3,-9.162971983E-4
3.581497957E2,1.527161949E-4,-1.527161949E-4,-0.000000000E0
3.586538922E2,1.374445739E-3,6.108647794E-4,-6.108647794E-4
3.591579888E2,-1.527161949E-4,-1.527161920E-3,9.162971983E-4
3.596620856E2,6.108647794E-4,6.108647794E-4,4.581485991E-4
3.601661826E2,1.527161949E-4,7.635809598E-4,3.054323897E-4
3.606702794E2,3.054323897E-4,7.635809598E-4,-1.221729559E-3
3.611743761E2,3.054323897E-4,2.138026757E-3,-7.635809598E-4
3.616784729E2,4.581485991E-4,-1.679878100E-3,4.581485991E-4
3.621825700E2,0.000000000E0,-1.527161949E-4,1.069013379E-3
3.626866675E2,7.635809598E-4,-1.679878100E-3,9.162971983E-4
3.631907656E2,0.000000000E0,4.581485991E-4,-6.108647794E-4
3.636948711E2,1.527161949E-4,4.581485991E-4,-4.581485991E-4
3.641989633E2,4.581485991E-4,-7.635809598E-4,1.527161949E-4
3.647030629E2,1.527161949E-4,4.581485991E-4,-3.054323897E-4
3.652071628E2,3.054323897E-4,-1.527161920E-3,9.162971983E-4
3.657112630E2,-0.000000000E0,-9.162971983E-4,1.527161920E-3
3.662153633E2,1.527161949E-4,1.527161920E-3,-1.374445739E-3
3.667194637E2,4.581485991E-4,1.069013379E-3,-7.635809598E-4
3.672235642E2,0.000000000E0,-6.108647794E-4,3.054323897E-4
3.677276647E2,-0.000000000E0,-0.000000000E0,0.000000000E0
3.682317653E2,3.054323897E-4,-3.054323897E-4,0.000000000E0
3.687358660E2,4.581485991E-4,-1.221729559E-3,1.221729559E-3
3.692399668E2,-6.108647794E-4,2.596175298E-3,-6.108647794E-4
3.697440676E2,4.886918236E-3,1.191186346E-2,-4.276053514E-3
3.702481682E2,2.046396956E-2,4.718930274E-2,-7.635809598E-4
3.707522689E2,4.123337101E-3,1.679878100E-3,5.803215317E-3
3.712563694E2,-9.162971983E-4,6.414080039E-3,-3.054323897E-4
3.717604699E2,4.581485991E-4,3.054323839E-3,-1.069013379E-3
3.722645704E2,3.054323897E-4,1.679878100E-3,-7.635809598E-4
3.727686711E2,6.108647794E-4,4.581485991E-4,-3.054323897E-4
3.732727718E2,7.635809598E-4,-4.581485991E-4,3.054323897E-4
3.737768726E2,-0.000000000E0,1.527161949E-4,-6.108647794E-4
3.742809734E2,-0.000000000E0,-1.069013379E-3,1.221729559E-3
3.747850742E2,-3.054323897E-4,0.000000000E0,9.162971983E-4
3.752891751E2,4.581485991E-4,1.069013379E-3,-3.054323897E-4
3.757932762E2,1.527161949E-4,1.069013379E-3,-1.527161949E-4
3.762973773E2,3.054323897E-4,7.635809598E-4,1.221729559E-3
3.768014784E2,-4.581485991E-4,6.108647794E-4,5.650499370E-3
3.773055795E2,-1.221729559E-3,-1.221729559E-3,6.566796452E-3
3.778096807E2,-1.985310577E-3,1.985310577E-3,8.246674202E-3
3.783137819E2,-4.886918236E-3,-2.138026757E-3,1.557705179E-2
3.788178831E2,-8.857538924E-3,-2.138026757E-3,1.435532235E-2
3.793219843E2,-1.313359290E-2,-1.527161920E-3,1.542433538E-2
3.798260854E2,-1.771507785E-2,-4.581485875E-3,2.153298259E-2
3.803301866E2,-2.412915789E-2,-3.207040019E-3,2.138026804E-2
3.808342877E2,-2.764163166E-2,-3.359756200E-3,2.015853859E-2
3.813383888E2,-3.405570984E-2,-2.901607659E-3,2.107483521E-2
3.818424901E2,-4.184423760E-2,-4.734201822E-3,2.000582218E-2
3.823465915E2,-4.948004708E-2,-3.512472380E-3,1.511890348E-2
3.828506930E2,-5.436696485E-2,-2.138026757E-3,1.114828233E-2
3.833547946E2,-5.604684353E-2,-4.581485875E-3,4.123337101E-3
3.838588962E2,-5.925388262E-2,-6.108647678E-3,-4.123337101E-3
3.843629978E2,-5.803215504E-2,-6.414080039E-3,-1.267544460E-2
3.848670995E2,-5.375609919E-2,-6.108647678E-3,-1.802051067E-2
3.853712014E2,-5.009091273E-2,-1.725693047E-2,-2.535088919E-2
3.858753034E2,-4.337139800E-2,-1.893680729E-2,-2.428187430E-2
3.863794053E2,-3.023780696E-2,-5.345067009E-3,-3.023780696E-2
3.868835074E2,-2.336557768E-2,-9.621120058E-3,-2.367101051E-2
3.873876096E2,-1.496618707E-2,-5.039634649E-3,-2.718348242E-2
3.878917118E2,-6.719512399E-3,-1.007926930E-2,-1.771507785E-2
3.883958141E2,-3.054323897E-4,1.679878100E-3,-1.038470119E-2
3.888999164E2,-1.221729559E-3,-1.053741761E-2,-1.221729559E-3
3.894040187E2,4.581485991E-4,-3.207040019E-3,-1.527161949E-4
3.899081211E2,2.901607659E-3,1.832594397E-3,-9.162971983E-4
3.904122234E2,6.108647794E-4,-1.023198478E-2,6.108647794E-4
3.909163257E2,-0.000000000E0,-1.496618707E-2,0.000000000E0
3.914204279E2,1.527161920E-3,-1.007926930E-2,2.290742937E-3
3.919245301E2,2.290742937E-3,-7.788525894E-3,-1.679878100E-3
3.924286324E2,-0.000000000E0,-9.162971750E-3,-4.581485991E-4
3.929327347E2,1.985310577E-3,-1.023198478E-2,1.221729559E-3
3.934368370E2,1.374445739E-3,-1.374445762E-2,1.527161920E-3
3.939409394E2,9.162971983E-4,-4.123337101E-3,3.054323897E-4
3.944450416E2,3.054323897E-4,6.108647794E-4,-2.290742937E-3
3.949491438E2,3.054323897E-4,1.069013379E-3,1.985310577E-3
3.954532459E2,3.054323897E-4,-3.054323897E-4,-2.443459118E-3
3.959573480E2,-1.527161949E-4,-1.221729559E-3,1.374445739E-3
3.964614502E2,6.108647794E-4,-3.054323839E-3,4.581485991E-4
3.969655524E2,3.054323897E-4,-0.000000000E0,0.000000000E0
3.974696546E2,-6.108647794E-4,-3.054323897E-4,-9.162971983E-4
3.979737568E2,3.054323897E-4,1.069013379E-3,-1.679878100E-3
3.984778716E2,6.108647794E-4,4.581485991E-4,1.374445739E-3
3.989819615E2,-4.581485991E-4,-4.581485991E-4,-1.832594397E-3
3.994860639E2,-3.054323897E-4,1.374445739E-3,2.138026757E-3
3.999901667E2,-9.162971983E-4,-3.207040019E-3,-1.527161949E-4
4.004942685E2,1.374445739E-3,2.290742937E-3,1.221729559E-3
4.009983708E2,-0.000000000E0,-1.527161949E-4,-3.359756200E-3
4.015024731E2,-1.527161949E-4,9.162971983E-4,-1.527161949E-4
4.020065756E2,9.162971983E-4,-1.069013379E-3,-2.901607659E-3
4.025106782E2,2.443459118E-3,-1.527161920E-3,-1.527161920E-3
4.030147814E2,6.872228812E-3,-7.635809598E-4,-4.581485875E-3
4.035188854E2,1.160643063E-2,7.177661173E-3,-6.108647794E-4
4.040229904E2,1.145371422E-2,1.267544460E-2,-7.941242307E-3
4.045270960E2,1.618791744E-2,1.175914705E-2,-5.192350596E-3
4.050312018E2,1.924224012E-2,1.175914705E-2,-4.581485875E-3
4.055353078E2,2.122755162E-2,1.313359290E-2,-3.054323839E-3
4.060394138E2,2.138026804E-2,1.160643063E-2,1.527161949E-4
4.065435198E2,2.076940238E-2,1.374445762E-2,-3.970621154E-3
4.070476257E2,2.107483521E-2,1.404988952E-2,2.748891478E-3
4.075517317E2,2.076940238E-2,1.374445762E-2,-2.901607659E-3
4.080558378E2,1.771507785E-2,3.817904973E-3,5.497782957E-3
4.085599441E2,1.298087649E-2,-2.138026757E-3,2.748891478E-3
4.090640504E2,9.926552884E-3,3.970621154E-3,5.497782957E-3
4.095681567E2,4.734201822E-3,-9.162971983E-4,4.276053514E-3
4.100722630E2,3.054323897E-4,-6.108647794E-4,3.817904973E-3
4.105763692E2,-5.039634649E-3,-1.985310577E-3,5.039634649E-3
4.110804754E2,-8.399390616E-3,-3.054323897E-4,1.221729559E-3
4.115845816E2,-1.298087649E-2,-4.276053514E-3,8.552107029E-3
4.120886878E2,-1.710421406E-2,-1.985310577E-3,2.138026757E-3
4.125927939E2,-2.107483521E-2,-3.359756200E-3,3.665188793E-3
4.130968999E2,-2.092211880E-2,-3.359756200E-3,3.817904973E-3
4.136010059E2,-2.199113183E-2,-1.237001177E-2,1.527161920E-3
4.141051117E2,-2.015853859E-2,-1.420260593E-2,2.138026757E-3
4.146092175E2,-2.260199748E-2,-1.527161949E-4,1.527161949E-4
4.151133232E2,-2.076940238E-2,-5.650499370E-3,-1.679878100E-3
4.156174291E2,-1.939495653E-2,-4.886918236E-3,3.207040019E-3
4.161215349E2,-1.985310577E-2,-7.177661173E-3,3.665188793E-3
4.166256407E2,-1.954767294E-2,-1.572976820E-2,-2.443459118E-3
4.171297465E2,-1.954767294E-2,1.832594397E-3,5.345067009E-3
4.176338522E2,-1.771507785E-2,-1.069013379E-3,-7.635809598E-4
4.181379580E2,-1.863137633E-2,-2.443459118E-3,3.970621154E-3
4.186420638E2,-1.832594350E-2,3.054323839E-3,1.527161949E-4
4.191461697E2,-1.679878123E-2,-3.054323839E-3,-4.581485991E-4
4.196502755E2,-1.664606482E-2,-4.581485875E-3,-1.679878100E-3
4.201543809E2,-1.404988952E-2,-9.162971983E-4,-9.162971983E-4
4.206584867E2,-1.069013402E-2,-7.635809598E-4,-3.512472380E-3
4.211625925E2,-7.330377586E-3,-4.581485875E-3,1.527161920E-3
4.216666982E2,-7.483093534E-3,7.635809598E-4,-4.886918236E-3
4.221708041E2,-7.635809947E-3,6.108647794E-4,-3.207040019E-3
4.226749103E2,-3.512472380E-3,-1.527161920E-3,-4.276053514E-3
4.231790166E2,-1.832594397E-3,1.069013379E-3,-6.108647794E-4
4.236831231E2,-2.443459118E-3,-2.596175298E-3,-2.596175298E-3
4.241872297E2,7.635809598E-4,1.374445739E-3,-1.221729559E-3
4.246913365E2,6.108647794E-4,3.054323897E-4,1.527161920E-3
4.251954434E2,-3.054323897E-4,-7.635809598E-4,0.000000000E0
4.256995505E2,-1.527161949E-4,1.985310577E-3,-3.207040019E-3
4.262036578E2,-1.221729559E-3,-9.162971983E-4,1.679878100E-3
4.267077651E2,1.527161949E-4,-1.374445739E-3,-4.581485991E-4
4.272118725E2,4.581485991E-4,1.527161949E-4,9.162971983E-4
4.277159799E2,9.162971983E-4,-7.635809598E-4,7.635809598E-4
4.282200873E2,-1.527161949E-4,2.748891478E-3,-6.108647794E-4
4.287241946E2,-1.527161949E-4,3.512472380E-3,-2.290742937E-3
4.292283020E2,-4.581485991E-4,1.679878100E-3,1.527161949E-4
4.297324095E2,1.374445739E-3,-1.374445739E-3,-0.000000000E0
4.302365171E2,-0.000000000E0,6.108647794E-4,-1.527161949E-4
4.307406248E2,9.162971983E-4,-1.221729559E-3,1.221729559E-3
4.312447327E2,1.527161949E-4,3.054323897E-4,1.679878100E-3
4.317488407E2,-4.581485991E-4,2.138026757E-3,-1.221729559E-3
4.322529490E2,-7.635809598E-4,1.527161949E-4,-1.069013379E-3
4.327570575E2,-6.108647794E-4,1.527161920E-3,-9.162971983E-4
4.332611662E2,-9.162971983E-4,1.527161949E-4,-0.000000000E0
4.337652754E2,-1.069013379E-3,-4.581485991E-4,6.108647794E-4
4.342693848E2,-4.581485991E-4,-1.221729559E-3,1.221729559E-3
4.347734944E2,-7.635809598E-4,1.221729559E-3,-7.635809598E-4
4.352776043E2,-1.069013379E-3,6.108647794E-4,-4.581485991E-4
4.357817145E2,-1.527161920E-3,-6.108647794E-4,1.527161949E-4
4.362858248E2,-9.162971983E-4,0.000000000E0,1.527161949E-4
4.367899353E2,-9.162971983E-4,-1.527161949E-4,3.054323897E-4
4.372940459E2,-9.162971983E-4,-1.221729559E-3,1.221729559E-3
4.377981568E2,-9.162971983E-4,9.162971983E-4,-7.635809598E-4
4.383022680E2,-6.108647794E-4,-1.527161949E-4,-7.635809598E-4
4.388063795E2,-1.069013379E-3,0.000000000E0,-3.054323897E-4
4.393104915E2,-6.108647794E-4,-9.162971983E-4,-1.527161949E-4
4.398146036E2,-9.162971983E-4,-1.221729559E-3,9.162971983E-4
4.403187162E2,1.527161949E-4,-1.985310577E-3,1.374445739E-3
4.408228291E2,-9.162971983E-4,3.054323897E-4,-1.221729559E-3
4.413269422E2,-1.069013379E-3,-9.162971983E-4,-1.069013379E-3
4.418310555E2,-1.527161949E-4,1.527161920E-3,-6.108647794E-4
4.423351687E2,-3.054323897E-4,-4.581485991E-4,-4.581485991E-4
4.428392819E2,-0.000000000E0,-1.221729559E-3,9.162971983E-4
4.433433950E2,4.581485991E-4,5.955931731E-3,-1.527161949E-4
4.438475080E2,-1.527161949E-4,1.985310577E-3,-1.221729559E-3
4.443516210E2,0.000000000E0,2.596175298E-3,-4.581485991E-4
4.448557340E2,-3.054323897E-4,1.069013379E-3,-1.527161949E-4
4.453598469E2,-1.527161949E-4,-6.719512399E-3,6.108647794E-4
4.458639598E2,2.138026757E-3,-2.397644334E-2,2.443459118E-3
4.463680726E2,-2.596175298E-3,4.214967042E-2,4.123337101E-3
4.468721859E2,-1.985310577E-3,1.069013402E-2,-4.581485875E-3
4.473762977E2,-7.635809598E-4,-1.069013379E-3,-1.527161949E-4
4.478804100E2,-3.054323897E-4,6.108647794E-4,-6.108647794E-4
4.483845222E2,1.527161949E-4,7.635809598E-4,-6.108647794E-4
4.488886344E2,3.054323897E-4,6.108647794E-4,-0.000000000E0
4.493927466E2,3.054323897E-4,-1.527161949E-4,9.162971983E-4
4.498968587E2,6.108647794E-4,4.581485991E-4,1.527161949E-4
4.504009709E2,1.527161949E-4,4.581485991E-4,-1.985310577E-3
4.509050831E2,9.162971983E-4,1.527161949E-4,-9.162971983E-4
4.514091953E2,3.054323897E-4,1.527161949E-4,-0.000000000E0
4.519133075E2,4.581485991E-4,-6.108647794E-4,1.527161949E-4
4.524174196E2,-3.054323897E-4,-1.221729559E-3,1.221729559E-3
4.529215317E2,6.108647794E-4,-1.527161949E-4,7.635809598E-4
4.534256437E2,3.054323897E-4,1.069013379E-3,-1.221729559E-3
4.539297557E2,3.054323897E-4,-4.581485991E-4,-1.527161949E-4
4.544338676E2,3.054323897E-4,4.581485991E-4,-4.581485991E-4
4.549379796E2,3.054323897E-4,-1.527161949E-4,-1.527161949E-4
4.554420915E2,-1.527161949E-4,-0.000000000E0,1.527161949E-4
4.559462034E2,3.054323897E-4,-9.162971983E-4,4.581485991E-4
4.564503154E2,3.054323897E-4,6.108647794E-4,-3.054323897E-4
4.569544273E2,4.581485991E-4,3.054323897E-4,-4.581485991E-4
4.574585393E2,3.054323897E-4,3.054323897E-4,-3.054323897E-4
4.579626512E2,4.581485991E-4,-3.054323897E-4,0.000000000E0
4.584667630E2,-4.581485991E-4,-4.581485991E-4,4.581485991E-4
4.589708748E2,4.581485991E-4,-6.108647794E-4,3.054323897E-4
4.594749866E2,6.108647794E-4,1.527161949E-4,4.581485991E-4
4.599790982E2,6.108647794E-4,4.581485991E-4,-1.069013379E-3
4.604832098E2,-1.527161949E-4,-1.527161949E-4,-4.581485991E-4
4.609873214E2,7.635809598E-4,4.581485991E-4,-4.581485991E-4
4.614914330E2,4.581485991E-4,-4.581485991E-4,3.054323897E-4
4.619955447E2,0.000000000E0,-7.635809598E-4,9.162971983E-4
4.624996567E2,6.108647794E-4,7.635809598E-4,0.000000000E0
4.630037689E2,3.054323897E-4,1.527161949E-4,-1.069013379E-3
4.635078812E2,1.527161949E-4,-1.527161949E-4,-0.000000000E0
4.640119938E2,0.000000000E0,-1.527161949E-4,-3.054323897E-4
4.645161067E2,3.054323897E-4,4.581485991E-4,1.527161949E-4
4.650202196E2,3.054323897E-4,-3.054323897E-4,4.581485991E-4
4.655243327E2,6.108647794E-4,-1.527161949E-4,3.054323897E-4
4.660284458E2,1.527161949E-4,1.527161949E-4,-7.635809598E-4
4.665325589E2,1.527161949E-4,1.527161949E-4,-6.108647794E-4
4.670366720E2,4.581485991E-4,3.054323897E-4,0.000000000E0
4.675407850E2,1.527161949E-4,-4.581485991E-4,-3.054323897E-4
4.680448981E2,0.000000000E0,-1.527161949E-4,3.054323897E-4
4.685490111E2,3.054323897E-4,-1.527161949E-4,4.581485991E-4
4.690531242E2,7.635809598E-4,6.108647794E-4,1.527161949E-4
4.695572371E2,3.054323897E-4,-1.527161949E-4,-7.635809598E-4
4.700613499E2,3.054323897E-4,0.000000000E0,-4.581485991E-4
4.705654627E2,3.054323897E-4,0.000000000E0,-1.527161949E-4
4.710695754E2,3.054323897E-4,-1.069013379E-3,-4.581485991E-4
4.715736881E2,-1.527161949E-4,-1.527161949E-4,1.069013379E-3
4.720778007E2,6.108647794E-4,6.108647794E-4,-3.054323897E-4
4.725819134E2,1.527161920E-3,5.039634649E-3,-3.054323839E-3
4.730860260E2,7.941242307E-3,2.199113183E-2,-5.039634649E-3
4.735901386E2,3.665188793E-3,2.794706449E-2,7.635809598E-4
4.740942513E2,-2.443459118E-3,1.023198478E-2,6.108647794E-4
4.745983639E2,-4.581485991E-4,-0.000000000E0,7.635809598E-4
4.751024765E2,-1.679878100E-3,3.207040019E-3,-2.138026757E-3
4.756065891E2,-1.832594397E-3,9.162971983E-4,-3.054323897E-4
4.761107018E2,-2.443459118E-3,-7.635809598E-4,4.581485991E-4
4.766148144E2,-3.054323839E-3,-1.221729559E-3,3.054323897E-4
4.771189271E2,-3.512472380E-3,-6.108647794E-4,9.162971983E-4
4.776230398E2,-3.817904973E-3,3.054323897E-4,-7.635809598E-4
4.781271525E2,-3.512472380E-3,-9.162971983E-4,-6.108647794E-4
4.786312654E2,-4.428769462E-3,-3.054323897E-4,-1.374445739E-3
4.791353782E2,-5.192350596E-3,-4.581485991E-4,3.054323897E-4
4.796394910E2,-5.497782957E-3,-4.581485991E-4,-0.000000000E0
4.801436044E2,-5.955931731E-3,-1.069013379E-3,9.162971983E-4
4.806477173E2,-6.108647678E-3,2.138026757E-3,-1.374445739E-3
4.811518302E2,-5.650499370E-3,-1.985310577E-3,-1.832594397E-3
4.816559434E2,-4.581485875E-3,-6.719512399E-3,2.290742937E-3
4.821600566E2,-3.970621154E-3,-5.192350596E-3,-2.290742937E-3
4.826641700E2,-3.512472380E-3,-3.817904973E-3,1.527161920E-3
4.831682835E2,4.581485991E-4,-4.581485875E-3,9.162971983E-4
4.836723971E2,2.443459118E-3,-5.650499370E-3,-9.162971983E-4
4.841765110E2,3.054323897E-4,1.985310577E-3,2.748891478E-3
4.846806253E2,6.108647794E-4,-4.428769462E-3,-1.679878100E-3
4.851847398E2,4.581485991E-4,2.443459118E-3,-4.123337101E-3
4.856888545E2,-3.665188793E-3,-4.276053514E-3,1.023198478E-2
4.861929693E2,-7.483093534E-3,-1.542433538E-2,-6.566796452E-3
4.866970842E2,-9.162971750E-3,-9.621120058E-3,3.359756200E-3
4.872011993E2,-7.788525894E-3,-1.053741761E-2,-1.221729559E-3
4.877053143E2,-5.039634649E-3,-9.621120058E-3,1.679878100E-3
4.882094293E2,-6.108647794E-4,1.832594397E-3,-7.635809598E-4
4.887135443E2,3.207040019E-3,-3.665188793E-3,-2.443459118E-3
4.892176592E2,-2.443459118E-3,6.108647794E-4,4.123337101E-3
4.897217741E2,-1.221729559E-3,-1.221729559E-3,-1.832594397E-3
4.902258890E2,4.581485875E-3,2.596175298E-3,3.054323897E-4
4.907300041E2,-1.527161920E-3,-3.970621154E-3,1.679878100E-3
4.912341198E2,1.679878100E-3,-1.771507785E-2,-1.527161920E-3
4.917382364E2,-6.108647678E-3,-3.298669681E-2,9.621120058E-3
4.922423536E2,-3.359756200E-3,-3.298669681E-2,-5.803215317E-3
4.927464712E2,1.069013379E-3,-4.428769462E-3,6.414080039E-3
4.932505888E2,4.276053514E-3,6.108647678E-3,-6.414080039E-3
4.937547066E2,1.175914705E-2,1.832594397E-3,4.581485875E-3
4.942588245E2,1.237001177E-2,7.635809598E-4,-1.832594397E-3
4.947629423E2,1.679878123E-2,1.160643063E-2,-6.108647794E-4
4.952670602E2,1.404988952E-2,1.038470119E-2,7.635809598E-4
4.957711780E2,1.496618707E-2,1.007926930E-2,-3.512472380E-3
4.962752958E2,6.719512399E-3,5.803215317E-3,-9.162971983E-4
4.967794135E2,5.345067009E-3,7.330377586E-3,-5.955931731E-3
4.972835310E2,4.581485991E-4,7.941242307E-3,2.138026757E-3
4.977876486E2,-3.054323839E-3,3.207040019E-3,-3.054323839E-3
4.982917662E2,1.221729559E-3,9.315688163E-3,2.138026757E-3
4.987958835E2,-1.527161920E-3,6.872228812E-3,-2.748891478E-3
4.993000008E2,3.054323897E-4,9.468403645E-3,3.054323897E-4
4.998041178E2,-7.635809598E-4,4.581485875E-3,-6.108647794E-4
5.003082346E2,-4.581485991E-4,1.832594397E-3,-1.679878100E-3
5.008123514E2,9.162971983E-4,-2.138026757E-3,1.985310577E-3
5.013164683E2,1.038470119E-1,-9.010255337E-3,3.207040206E-2
5.018205852E2,-2.412915789E-2,-2.061668597E-2,8.185587823E-2
5.023247023E2,-9.926552884E-3,-4.642572254E-2,3.863719851E-2
5.028288197E2,6.872228812E-3,-6.108647794E-4,2.641990222E-2
5.033329372E2,-8.093958721E-3,-7.483093534E-3,1.081230640E-1
5.038370548E2,1.893680729E-2,6.108647678E-3,-2.629773021E-1
5.043411725E2,-7.024944760E-3,3.283398226E-2,3.405570984E-2
5.048452902E2,-8.857538924E-3,3.665188793E-3,-6.139190868E-2
5.053494080E2,-1.374445762E-2,-2.046396956E-2,-3.817904973E-3
5.058535260E2,1.374445739E-3,8.399390616E-3,6.719512399E-3
5.063576440E2,2.138026757E-3,4.581485875E-3,1.221729559E-3
5.068617621E2,7.635809598E-4,-1.832594397E-3,-7.635809598E-4
5.073658802E2,3.054323897E-4,-1.985310577E-3,6.108647794E-4
5.078699984E2,-7.635809598E-4,1.679878100E-3,-1.221729559E-3
5.083741166E2,-1.221729559E-3,4.886918236E-3,-1.069013379E-3
5.088782350E2,-1.069013379E-3,9.010255337E-3,-6.108647794E-4
5.093823536E2,-1.527161949E-4,3.207040019E-3,1.679878100E-3
5.098864724E2,-4.734201822E-3,1.038470119E-2,-1.679878100E-3
5.103905916E2,-1.985310577E-3,9.162971983E-4,-2.138026757E-3
5.108947111E2,-6.108647794E-4,3.512472380E-3,-1.832594397E-3
5.113988309E2,-4.428769462E-3,3.817904973E-3,-1.527161949E-4
5.119029510E2,-2.596175298E-3,4.428769462E-3,-1.221729559E-3
5.124070716E2,-2.748891478E-3,1.679878100E-3,6.566796452E-3
5.129111927E2,-3.054323897E-4,-3.665188793E-3,-3.970621154E-3
5.134153140E2,1.359174121E-2,-1.221729559E-3,1.527161920E-3
5.139194357E2,4.123337101E-3,4.581485875E-3,-5.650499370E-3
5.144235574E2,6.108647678E-3,5.039634649E-3,4.123337101E-3
5.149276793E2,1.343902480E-2,-3.970621154E-3,-1.832594397E-3
5.154318014E2,5.192350596E-3,-1.985310577E-3,5.039634649E-3
5.159359237E2,1.023198478E-2,2.596175298E-3,-3.054323839E-3
5.164400461E2,4.428769462E-3,4.276053514E-3,-5.497782957E-3
5.169441685E2,6.414080039E-3,1.985310577E-3,2.596175298E-3
5.174482908E2,8.857538924E-3,-6.108647794E-4,-1.527161920E-3
5.179524131E2,5.803215317E-3,3.665188793E-3,7.635809598E-4
5.184565354E2,3.817904973E-3,-3.054323897E-4,-3.970621154E-3
5.189606578E2,1.313359290E-2,4.581485991E-4,9.926552884E-3
5.194647803E2,1.679878100E-3,-9.162971983E-4,-2.138026757E-3
5.199689027E2,7.024944760E-3,6.872228812E-3,-2.901607659E-3
5.204730251E2,7.635809947E-3,5.650499370E-3,-1.527161949E-4
5.209771475E2,-3.054323897E-4,1.145371422E-2,-3.665188793E-3
5.214812699E2,6.261364091E-3,-2.596175298E-3,6.108647794E-4
5.219853925E2,-1.527161949E-4,4.581485991E-4,-3.512472380E-3
5.224895153E2,-3.054323897E-4,1.542433538E-2,-3.054323897E-4
5.229936383E2,7.635809598E-4,5.650499370E-3,-1.298087649E-2
5.234977615E2,-6.108647794E-4,7.941242307E-3,-1.084284950E-2
5.240018848E2,2.061668597E-2,4.276053514E-3,-2.489273995E-2
5.245060080E2,2.855792828E-2,6.719512399E-3,-1.481347065E-2
5.250101318E2,3.375028074E-2,1.496618707E-2,-2.382372692E-2
5.255142562E2,4.520399496E-2,1.863137633E-2,-2.397644334E-2
5.260183815E2,5.726857483E-2,1.664606482E-2,-1.985310577E-2
5.265225078E2,6.230820715E-2,2.397644334E-2,-1.527161989E-2
5.270266348E2,6.520981342E-2,2.611446939E-2,-7.635809947E-3
5.275307621E2,7.528908551E-2,2.672533318E-2,-7.483093534E-3
5.280348895E2,6.490438432E-2,2.199113183E-2,3.970621154E-3
5.285390168E2,7.589995116E-2,3.161225095E-2,-2.443459118E-3
5.290431442E2,6.688969582E-2,1.878409274E-2,5.650499370E-3
5.295472715E2,7.712167501E-2,2.458730713E-2,-4.581485991E-4
5.300513988E2,6.887500733E-2,1.252272818E-2,3.665188793E-3
5.305555261E2,7.299833745E-2,2.229656465E-2,1.221729559E-3
5.310596533E2,7.131846249E-2,1.374445762E-2,1.084284950E-2
5.315637803E2,6.185005978E-2,1.511890348E-2,2.199113183E-2
5.320679071E2,5.146535859E-2,7.941242307E-3,2.260199748E-2
5.325720338E2,5.024362728E-2,1.710421406E-2,1.466075517E-2
5.330761603E2,3.054323979E-2,8.093958721E-3,1.557705179E-2
5.335802867E2,3.115410358E-2,-1.832594397E-3,2.321286127E-2
5.340844132E2,1.420260593E-2,4.428769462E-3,2.092211880E-2
5.345885396E2,-9.315688163E-3,3.207040019E-3,1.328630932E-2
5.350926658E2,6.108647678E-3,-1.527161920E-3,1.572976820E-2
5.355967917E2,-3.339903057E-1,3.573558927E-1,8.063415438E-2
5.361009175E2,1.237001177E-2,7.177661173E-3,-2.229656465E-2
5.366050432E2,4.780016840E-2,-1.038470119E-1,9.621120058E-3
5.371091687E2,9.147699922E-2,-1.168278903E-1,-1.221729559E-3
5.376132941E2,2.290742937E-3,-7.528908551E-2,1.267544460E-2
5.381174193E2,-6.398808211E-2,-6.566796452E-3,2.031125315E-2
5.386215446E2,-4.948004708E-2,-1.099556591E-2,1.023198478E-2
5.391256696E2,-8.246674389E-2,-3.207040019E-3,7.177661173E-3
5.396297943E2,-7.834340632E-2,4.581485991E-4,3.817904973E-3
5.401339191E2,-6.765327603E-2,-7.024944760E-3,-7.330377586E-3
5.406380436E2,-6.337722391E-2,-8.857538924E-3,-2.901607659E-3
5.411421681E2,-6.841685623E-2,-5.955931731E-3,1.069013379E-3
5.416462927E2,-5.467239767E-2,-1.145371422E-2,-8.399390616E-3
5.421504173E2,-6.597339362E-2,-1.832594397E-3,-3.207040019E-3
5.426545419E2,-5.619955808E-2,-4.581485991E-4,-9.162971750E-3
5.431586666E2,-5.833758786E-2,-7.483093534E-3,-8.552107029E-3
5.436627914E2,-6.062832847E-2,-1.924224012E-2,-7.635809947E-3
5.441669163E2,-5.054906011E-2,-1.679878123E-2,-1.618791744E-2
5.446710415E2,-4.352411628E-2,-1.206457894E-2,-1.618791744E-2
5.451751671E2,-3.772090003E-2,-1.282816008E-2,-1.557705179E-2
5.456792935E2,-3.054323979E-2,-8.704823442E-3,-1.588248461E-2
5.461834204E2,-2.641990222E-2,-1.160643063E-2,-1.466075517E-2
5.466875479E2,-2.229656465E-2,-1.160643063E-2,-1.527161989E-2
5.471916758E2,-1.450803876E-2,-5.803215317E-3,-1.252272818E-2
5.476958041E2,-1.237001177E-2,-1.053741761E-2,-1.343902480E-2
5.481999327E2,-7.330377586E-3,-7.024944760E-3,-1.069013402E-2
5.487040612E2,-9.162971983E-4,-3.207040019E-3,-9.162971750E-3
5.492081901E2,-6.719512399E-3,-6.261364091E-3,-1.221729559E-3
5.497123188E2,4.581485875E-3,-1.328630932E-2,-6.872228812E-3
5.502164475E2,2.596175298E-3,-5.192350596E-3,2.443459118E-3
5.507205760E2,-1.527161920E-3,-3.054323897E-4,-3.817904973E-3
5.512247044E2,-1.069013379E-3,-1.069013379E-3,1.374445739E-3
5.517288326E2,-1.527161920E-3,-2.138026757E-3,-3.665188793E-3
5.522329606E2,4.581485991E-4,-1.832594397E-3,2.443459118E-3
5.527370885E2,-1.527161949E-4,-3.359756200E-3,1.985310577E-3
5.532412164E2,7.635809598E-4,-1.069013379E-3,-1.221729559E-3
5.537453442E2,1.069013379E-3,9.162971983E-4,3.054323897E-4
5.542494720E2,-1.069013379E-3,-9.162971983E-4,-9.162971983E-4
5.547535997E2,7.635809598E-4,-0.000000000E0,-0.000000000E0
5.552577272E2,-0.000000000E0,1.527161949E-4,-6.108647794E-4
5.557618547E2,5.497782957E-3,-2.901607659E-3,9.162971983E-4
5.562659821E2,6.719512399E-3,-5.955931731E-3,1.221729559E-3
5.567701094E2,5.955931731E-3,-3.359756200E-3,1.069013379E-3
5.572742369E2,4.581485991E-4,-4.123337101E-3,-2.901607659E-3
5.577783643E2,1.374445739E-3,-3.054323839E-3,1.527161949E-4
5.582824917E2,2.596175298E-3,-9.162971983E-4,-3.054323897E-4
5.587866190E2,1.679878100E-3,3.054323897E-4,-3.054323897E-4
5.592907461E2,2.290742937E-3,-4.581485991E-4,7.635809598E-4
5.597948731E2,2.748891478E-3,-3.054323897E-4,1.069013379E-3
5.602990000E2,1.527161920E-3,6.108647794E-4,-7.635809598E-4
5.608031268E2,1.679878100E-3,4.581485991E-4,-1.527161920E-3
5.613072534E2,9.162971983E-4,-7.635809598E-4,4.581485991E-4
5.618113800E2,9.162971983E-4,-1.221729559E-3,-4.581485991E-4
5.623155064E2,1.832594397E-3,1.527161949E-4,-3.054323897E-4
5.628196327E2,-0.000000000E0,-1.679878100E-3,1.527161949E-4
5.633237589E2,7.635809598E-4,-2.290742937E-3,-0.000000000E0
5.638278849E2,2.596175298E-3,2.901607659E-3,-1.069013379E-3
5.643320109E2,2.504545636E-2,1.939495653E-2,-5.039634649E-3
5.648361369E2,5.345067009E-3,-8.093958721E-3,5.192350596E-3
5.653402629E2,1.527161920E-3,5.192350596E-3,-1.374445739E-3
5.658443887E2,3.054323897E-4,1.679878100E-3,3.054323897E-4
5.663485144E2,1.069013379E-3,-0.000000000E0,1.069013379E-3
5.668526401E2,4.581485991E-4,1.221729559E-3,-6.108647794E-4
5.673567655E2,4.581485991E-4,1.527161949E-4,-9.162971983E-4
5.678608909E2,-0.000000000E0,3.054323897E-4,-3.054323897E-4
5.683650162E2,4.581485991E-4,4.581485991E-4,-1.527161949E-4
5.688691415E2,-1.527161949E-4,1.221729559E-3,0.000000000E0
5.693732667E2,4.581485991E-4,-1.374445739E-3,7.635809598E-4
5.698773919E2,-1.527161949E-4,9.162971983E-4,6.108647794E-4
5.703815169E2,1.695149764E-2,-4.276053514E-3,-2.596175298E-3
5.708856417E2,-9.010255337E-3,-7.483093534E-3,3.054323839E-3
5.713897665E2,-1.710421406E-2,1.221729536E-2,9.162971983E-4
5.718938911E2,2.199113183E-2,-1.404988952E-2,1.847865991E-2
5.723980156E2,-1.527161949E-4,1.221729536E-2,7.483093534E-3
5.729021401E2,-5.192350596E-3,6.261364091E-3,1.832594397E-3
5.734062646E2,-2.748891478E-3,3.970621154E-3,-1.527161949E-4
5.739103891E2,-8.093958721E-3,7.941242307E-3,-2.290742937E-3
5.744145136E2,2.748891478E-3,-1.832594397E-3,-4.581485991E-4
5.749186381E2,1.527161949E-4,-7.635809598E-4,4.581485991E-4
5.754227626E2,9.162971983E-4,-1.985310577E-3,-1.832594397E-3
5.759268870E2,-7.483093534E-3,6.261364091E-3,1.221729559E-3
5.764310113E2,-5.803215317E-3,7.330377586E-3,-6.108647794E-4
5.769351355E2,-2.443459118E-3,2.748891478E-3,-1.679878100E-3
5.774392597E2,-2.748891478E-3,2.443459118E-3,-7.635809598E-4
5.779433838E2,0.000000000E0,4.581485991E-4,-6.108647794E-4
5.784475079E2,1.527161949E-4,-3.054323897E-4,-0.000000000E0
5.789516319E2,6.108647794E-4,-1.221729559E-3,1.069013379E-3
5.794557560E2,-0.000000000E0,7.635809598E-4,7.635809598E-4
5.799598800E2,-6.108647794E-4,1.679878100E-3,-1.679878100E-3
5.804640040E2,-2.290742937E-3,3.359756200E-3,-7.635809598E-4
5.809681279E2,1.069013379E-3,-9.162971983E-4,-3.054323897E-4
5.814722518E2,1.221729559E-3,-1.069013379E-3,-1.527161949E-4
5.819763758E2,-0.000000000E0,1.527161949E-4,-6.108647794E-4
5.824804999E2,1.985310577E-3,-1.679878100E-3,6.108647794E-4
5.829846241E2,-6.108647794E-4,1.069013379E-3,6.108647794E-4
5.834887485E2,-0.000000000E0,6.108647794E-4,-1.527161920E-3
5.839928730E2,1.527161949E-4,3.054323897E-4,-7.635809598E-4
5.844969975E2,-9.162971983E-4,7.635809598E-4,-3.054323897E-4
5.850011220E2,3.817904973E-3,-2.748891478E-3,-7.635809598E-4
5.855052466E2,7.177661173E-3,-9.926552884E-3,-1.237001177E-2
5.860093711E2,1.679878100E-3,-4.581485991E-4,-1.527161920E-3
5.865134957E2,0.000000000E0,7.635809598E-4,-1.374445739E-3
5.870176203E2,-0.000000000E0,1.374445739E-3,-1.069013379E-3
5.875217449E2,-1.527161949E-4,3.054323897E-4,-3.054323897E-4
5.880258695E2,1.527161949E-4,6.108647794E-4,-3.054323897E-4
5.885299940E2,1.527161949E-4,-7.635809598E-4,1.527161949E-4
5.890341185E2,2.901607659E-3,-2.138026757E-3,-0.000000000E0
5.895382429E2,3.054323897E-4,4.581485991E-4,-1.527161949E-4
5.900423673E2,-6.108647794E-4,1.679878100E-3,-7.635809598E-4
5.905464916E2,-1.832594397E-3,3.054323897E-4,-1.069013379E-3
5.910506160E2,4.734201822E-3,-3.359756200E-3,1.069013379E-3
5.915547403E2,3.054323897E-4,1.756236330E-2,-2.138026757E-3
5.920588645E2,-9.468403645E-3,4.444041103E-2,-1.985310577E-3
5.925629888E2,-8.552107029E-3,4.596757516E-2,1.832594397E-3
5.930671130E2,-4.581485991E-4,1.084284950E-2,1.527161949E-4
5.935712372E2,7.635809598E-4,3.817904973E-3,-9.162971983E-4
5.940753615E2,2.596175298E-3,-0.000000000E0,-3.054323897E-4
5.945794857E2,1.832594397E-3,2.596175298E-3,-1.527161949E-4
5.950836100E2,3.207040019E-3,7.635809598E-4,3.054323897E-4
5.955877342E2,3.207040019E-3,1.679878100E-3,-3.054323897E-4
5.960918582E2,4.734201822E-3,-1.527161949E-4,1.374445739E-3
5.965959823E2,5.192350596E-3,1.527161920E-3,1.221729559E-3
5.971001063E2,5.955931731E-3,2.290742937E-3,-1.679878100E-3
5.976042303E2,6.414080039E-3,3.207040019E-3,-3.054323897E-4
5.981083543E2,8.552107029E-3,1.221729559E-3,1.832594397E-3
5.986124783E2,1.023198478E-2,1.374445739E-3,-3.054323897E-4
5.991166024E2,9.315688163E-3,2.596175298E-3,2.138026757E-3
5.996207261E2,1.145371422E-2,2.748891478E-3,1.832594397E-3
6.001248500E2,1.160643063E-2,3.970621154E-3,4.581485991E-4
6.006289739E2,1.237001177E-2,5.039634649E-3,-4.581485991E-4
6.011330977E2,1.466075517E-2,-1.221729559E-3,1.069013379E-3
6.016372216E2,1.542433538E-2,-3.207040019E-3,9.162971983E-4
6.021413457E2,1.588248461E-2,-5.650499370E-3,4.734201822E-3
6.026454700E2,1.740964688E-2,-7.024944760E-3,9.162971983E-4
6.031495945E2,1.786779426E-2,-5.345067009E-3,4.581485875E-3
6.036537191E2,1.863137633E-2,-6.566796452E-3,1.527161920E-3
6.041578440E2,1.832594350E-2,-5.039634649E-3,-1.527161949E-4
6.046619690E2,1.878409274E-2,-6.414080039E-3,3.512472380E-3
6.051660942E2,1.618791744E-2,-7.635809947E-3,1.527161949E-4
6.056702196E2,1.466075517E-2,-1.175914705E-2,9.162971983E-4
6.061743451E2,1.191186346E-2,-6.108647678E-3,-6.108647794E-4
6.066784707E2,8.552107029E-3,-9.773836471E-3,1.527161949E-4
6.071825963E2,6.108647678E-3,-4.428769462E-3,-9.162971983E-4
6.076867219E2,2.596175298E-3,-1.374445739E-3,1.527161920E-3
6.081908475E2,-2.596175298E-3,-2.596175298E-3,5.039634649E-3
6.086949733E2,-4.276053514E-3,3.054323839E-3,1.572976820E-2
6.091990990E2,-1.557705179E-2,2.596175298E-3,2.382372692E-2
6.097032250E2,-2.764163166E-2,9.010255337E-3,1.985310577E-2
6.102073516E2,-3.619373962E-2,-1.298087649E-2,2.458730713E-2
6.107114793E2,-4.795288667E-2,-9.010255337E-3,2.886336111E-2
6.112156076E2,-6.047561392E-2,-6.414080039E-3,1.786779426E-2
6.117197364E2,-7.147117704E-2,-0.000000000E0,2.229656465E-2
6.122238653E2,-7.513637096E-2,4.886918236E-3,7.635809947E-3
6.127279945E2,-7.681624591E-2,3.970621154E-3,7.635809598E-4
6.132321236E2,-7.391463965E-2,-5.803215317E-3,-4.123337101E-3
6.137362528E2,-7.605266571E-2,-5.650499370E-3,-4.276053514E-3
6.142403822E2,-7.574722916E-2,-6.566796452E-3,-3.665188793E-3
6.147445115E2,-7.773254067E-2,-4.428769462E-3,-2.596175298E-3
6.152486407E2,-7.437278330E-2,-7.788525894E-3,-2.138026757E-3
6.157527698E2,-7.528908551E-2,2.290742937E-3,-4.276053514E-3
6.162568988E2,-7.467821985E-2,-3.970621154E-3,-4.428769462E-3
6.167610277E2,-7.849612087E-2,-5.192350596E-3,-9.162971983E-4
6.172651565E2,-7.086031139E-2,-9.162971750E-3,-1.786779426E-2
6.177692854E2,-6.383536756E-2,-5.650499370E-3,-2.153298259E-2
6.182734142E2,-4.963276163E-2,-1.527161949E-4,-3.512472659E-2
6.187775429E2,-4.077522457E-2,-7.177661173E-3,-2.321286127E-2
6.192816715E2,-2.703076601E-2,-5.497782957E-3,-3.512472659E-2
6.197858000E2,-1.817322709E-2,-3.512472380E-3,-1.939495653E-2
6.202899282E2,-4.276053514E-3,-4.581485991E-4,-2.764163166E-2
6.207940562E2,-3.054323897E-4,3.665188793E-3,-7.788525894E-3
6.212981841E2,4.581485991E-4,-6.566796452E-3,-2.901607659E-3
6.218023119E2,-2.290742937E-3,-2.901607659E-3,3.817904973E-3
6.223064398E2,1.985310577E-3,-0.000000000E0,-5.345067009E-3
6.228105676E2,3.054323897E-4,1.069013379E-3,3.817904973E-3
6.233146955E2,-4.581485991E-4,-9.162971983E-4,-4.581485875E-3
6.238188233E2,7.635809598E-4,2.901607659E-3,3.970621154E-3
6.243229510E2,-3.054323897E-4,2.901607659E-3,-2.901607659E-3
6.248270787E2,4.581485991E-4,2.138026757E-3,1.221729559E-3
6.253312063E2,-1.069013379E-3,3.054323897E-4,9.162971983E-4
6.258353340E2,1.069013379E-3,3.970621154E-3,-1.832594397E-3
6.263394616E2,6.108647794E-4,2.290742937E-3,1.374445739E-3
6.268435891E2,-4.581485991E-4,-4.581485991E-4,-4.581485991E-4
6.273477165E2,7.635809598E-4,-3.359756200E-3,-9.162971983E-4
6.278518438E2,-3.054323897E-4,2.596175298E-3,1.221729559E-3
6.283559709E2,3.054323897E-4,1.527161949E-4,-2.901607659E-3
6.288600980E2,1.069013379E-3,1.069013379E-3,3.970621154E-3
6.293642251E2,-2.596175298E-3,-6.872228812E-3,-2.443459118E-3
6.298683523E2,2.443459118E-3,3.512472380E-3,1.527161920E-3
6.303724796E2,9.162971983E-4,2.138026757E-3,-1.527161949E-4
6.308766068E2,-1.527161949E-4,-2.290742937E-3,-2.443459118E-3
6.313807340E2,7.635809598E-4,3.054323839E-3,1.679878100E-3
6.318848613E2,-6.108647794E-4,-6.566796452E-3,3.054323897E-4
6.323889886E2,-4.581485991E-4,6.261364091E-3,5.039634649E-3
6.328931160E2,-7.177661173E-3,1.679878100E-3,1.160643063E-2
6.333972437E2,-1.634063199E-2,5.039634649E-3,2.580903657E-2
6.339013722E2,-2.626718581E-2,4.123337101E-3,1.878409274E-2
6.344054994E2,-3.512472659E-2,7.635809947E-3,2.046396956E-2
6.349096273E2,-4.306596518E-2,7.635809598E-4,1.893680729E-2
6.354137552E2,-5.314523727E-2,4.276053514E-3,7.941242307E-3
6.359178832E2,-5.619955808E-2,2.138026757E-3,6.108647794E-4
6.364220110E2,-5.451968312E-2,7.635809598E-4,-4.734201822E-3
6.369261388E2,-5.558869615E-2,6.261364091E-3,-7.330377586E-3
6.374302667E2,-4.993819445E-2,-1.221729559E-3,-2.076940238E-2
6.379343946E2,-4.092793912E-2,5.497782957E-3,-2.474002354E-2
6.384385224E2,-3.145953640E-2,-3.054323839E-3,-2.260199748E-2
6.389426503E2,-2.275471389E-2,-1.679878100E-3,-2.122755162E-2
6.394467782E2,-1.359174121E-2,-3.817904973E-3,-2.535088919E-2
6.399509061E2,-2.596175298E-3,1.221729559E-3,-1.817322709E-2
6.404550342E2,4.581485875E-3,-2.138026757E-3,-2.107483521E-2
6.409591624E2,1.710421406E-2,2.138026757E-3,-2.260199748E-2
6.414632906E2,2.443459071E-2,4.123337101E-3,-1.618791744E-2
6.419674191E2,3.497200832E-2,5.955931731E-3,-2.107483521E-2
6.424715485E2,4.245510325E-2,1.206457894E-2,-1.481347065E-2
6.429756787E2,5.253437161E-2,9.162971750E-3,-1.282816008E-2
6.434798095E2,5.482511222E-2,1.298087649E-2,9.162971983E-4
6.439839407E2,5.818486959E-2,3.512472380E-3,2.290742937E-3
6.444880721E2,5.528326333E-2,4.734201822E-3,3.207040019E-3
6.449922037E2,5.482511222E-2,8.552107029E-3,3.207040019E-3
6.454963353E2,5.421425030E-2,8.857538924E-3,4.428769462E-3
6.460004671E2,5.314523727E-2,9.468403645E-3,4.734201822E-3
6.465045990E2,5.345066637E-2,1.130099874E-2,4.734201822E-3
6.470087309E2,4.871646687E-2,1.237001177E-2,1.588248461E-2
6.475128626E2,4.276053607E-2,6.872228812E-3,1.527161989E-2
6.480169944E2,3.375028074E-2,1.679878100E-3,2.672533318E-2
6.485211262E2,2.550360374E-2,-4.581485875E-3,1.832594350E-2
6.490252579E2,1.893680729E-2,-6.414080039E-3,2.275471389E-2
6.495293897E2,9.010255337E-3,-1.023198478E-2,2.015853859E-2
6.500335214E2,3.054323839E-3,-1.221729536E-2,1.237001177E-2
6.505376532E2,-2.596175298E-3,-1.588248461E-2,7.330377586E-3
6.510417848E2,-1.069013379E-3,-7.941242307E-3,-2.138026757E-3
6.515459163E2,3.817904973E-3,-9.468403645E-3,-3.054323897E-4
6.520500478E2,7.177661173E-3,-5.803215317E-3,1.374445739E-3
6.525541791E2,1.374445739E-3,-5.345067009E-3,-1.069013379E-3
6.530583103E2,-9.162971983E-4,-7.024944760E-3,1.527161920E-3
6.535624414E2,1.832594397E-3,9.162971983E-4,1.527161949E-4
6.540665726E2,-7.635809598E-4,-1.221729559E-3,3.817904973E-3
6.545707036E2,-2.290742937E-3,3.512472380E-3,-3.359756200E-3
6.550748347E2,0.000000000E0,3.207040019E-3,1.679878100E-3
6.555789655E2,2.443459118E-3,-2.290742937E-3,-1.985310577E-3
6.560830963E2,-1.832594397E-3,-2.443459118E-3,3.207040019E-3
6.565872271E2,1.069013379E-3,-4.276053514E-3,-2.138026757E-3
6.570913578E2,1.069013379E-3,4.581485991E-4,1.374445739E-3
6.575954884E2,4.581485991E-4,1.069013379E-3,1.832594397E-3
6.580996189E2,-1.985310577E-3,-2.138026757E-3,-3.512472380E-3
6.586037494E2,1.985310577E-3,1.679878100E-3,-1.069013379E-3
6.591078800E2,1.527161949E-4,3.054323897E-4,2.443459118E-3
6.596120107E2,-6.108647794E-4,-4.734201822E-3,-2.748891478E-3
6.601161427E2,9.162971983E-4,-2.748891478E-3,2.748891478E-3
6.606202761E2,9.162971983E-4,-3.054323897E-4,-1.221729559E-3
6.611244112E2,-3.054323897E-4,5.803215317E-3,-1.527161949E-4
6.616285482E2,-1.527161949E-4,-1.527161949E-4,-2.138026757E-3
6.621326870E2,-4.581485991E-4,-0.000000000E0,1.069013379E-3
6.626368280E2,-7.635809598E-4,-2.290742937E-3,1.527161949E-4
6.631409708E2,7.635809598E-4,-1.527161920E-3,1.221729559E-3
6.636451158E2,-6.108647794E-4,1.374445739E-3,-3.054323897E-4
6.641492626E2,1.527161949E-4,3.665188793E-3,-7.635809598E-4
6.646534108E2,6.108647794E-4,-0.000000000E0,2.596175298E-3
6.651575604E2,-7.635809598E-4,-2.138026757E-3,-2.138026757E-3
6.656617107E2,1.527161949E-4,-4.581485875E-3,1.374445739E-3
6.661658617E2,-6.108647794E-4,-1.069013379E-3,6.108647794E-4
6.666700131E2,1.527161949E-4,3.054323897E-4,-4.581485991E-4
6.671741647E2,6.108647794E-4,4.581485991E-4,-1.221729559E-3
6.676783164E2,1.527161949E-4,0.000000000E0,0.000000000E0
6.681824681E2,6.108647794E-4,-1.527161949E-4,-1.527161949E-4
6.686866198E2,-1.527161949E-4,-1.221729559E-3,-1.527161949E-4
6.691907714E2,-1.527161949E-4,-1.985310577E-3,7.635809598E-4
6.696949227E2,-1.527161949E-4,7.635809598E-4,6.108647794E-4
6.701990737E2,6.108647794E-4,-0.000000000E0,-9.162971983E-4
6.707032243E2,3.054323897E-4,3.054323897E-4,-4.581485991E-4
6.712073746E2,-4.581485991E-4,-1.679878100E-3,3.054323897E-4
6.717115246E2,-4.581485991E-4,-2.290742937E-3,7.635809598E-4
6.722156743E2,-3.054323897E-4,-1.527161949E-4,7.635809598E-4
6.727198236E2,-1.527161949E-4,1.679878100E-3,-1.374445739E-3
6.732239725E2,2.596175298E-3,-6.108647678E-3,-3.970621154E-3
6.737281210E2,1.679878100E-3,-2.000582218E-2,2.290742937E-3
6.742322691E2,7.635809598E-4,1.527161949E-4,-9.162971983E-4
6.747364169E2,0.000000000E0,1.527161949E-4,1.832594397E-3
6.752405642E2,-1.527161949E-4,1.527161949E-4,2.138026757E-3
6.757447113E2,-1.069013379E-3,1.985310577E-3,-6.108647794E-4
6.762488580E2,1.221729559E-3,-2.138026757E-3,-1.374445739E-3
6.767530044E2,6.108647794E-4,2.443459118E-3,-9.162971983E-4
6.772571504E2,-4.581485991E-4,2.367101051E-2,-3.054323897E-4
6.777612959E2,-7.635809598E-4,-1.527161949E-4,-6.108647794E-4
6.782654411E2,-1.679878100E-3,-2.748891478E-3,4.581485991E-4
6.787695859E2,1.374445739E-3,-1.069013379E-3,6.108647794E-4
6.792737304E2,2.382372692E-2,-8.857538924E-3,-1.221729559E-3
6.797778746E2,-1.237001177E-2,7.330377586E-3,-1.679878100E-3
6.802820185E2,-1.527161920E-3,6.108647794E-4,-3.054323897E-4
6.807861621E2,1.527161920E-3,-3.054323897E-4,-4.581485991E-4
6.812903055E2,9.162971983E-4,-1.221729559E-3,9.162971983E-4
6.817944484E2,4.581485991E-4,1.527161920E-3,7.635809598E-4
6.822985911E2,-9.162971983E-4,2.290742937E-3,-1.069013379E-3
6.828027334E2,-9.162971983E-4,7.635809598E-4,-0.000000000E0
6.833068755E2,1.527161949E-4,1.527161949E-4,-4.581485991E-4
6.838110174E2,-1.527161949E-4,-3.054323897E-4,-6.108647794E-4
6.843151590E2,1.527161949E-4,-7.635809598E-4,-6.108647794E-4
6.848193004E2,4.581485991E-4,-6.108647794E-4,-3.054323897E-4
6.853234416E2,-4.581485991E-4,9.162971983E-4,6.108647794E-4
6.858275827E2,2.672533318E-2,-1.313359290E-2,7.941242307E-3
6.863317237E2,4.444041103E-2,-2.260199748E-2,9.468403645E-3
6.868358643E2,-2.672533318E-2,1.740964688E-2,-9.926552884E-3
6.873400050E2,-8.704823442E-3,5.650499370E-3,-3.207040019E-3
6.878441454E2,-2.290742937E-3,1.527161949E-4,-0.000000000E0
6.883482858E2,0.000000000E0,-6.108647794E-4,1.527161949E-4
6.888524260E2,1.527161949E-4,1.527161949E-4,-2.290742937E-3
6.893565662E2,1.527161949E-4,9.162971983E-4,-3.817904973E-3
6.898607064E2,7.635809598E-4,-3.054323897E-4,6.108647794E-4
6.903648465E2,-1.527161949E-4,-1.527161949E-4,-9.162971983E-4
6.908689868E2,-4.581485991E-4,-1.069013379E-3,6.108647794E-4
6.913731271E2,-0.000000000E0,-4.581485991E-4,6.108647794E-4
6.918772674E2,-4.581485991E-4,7.635809598E-4,-3.054323897E-4
6.923814077E2,3.054323897E-4,1.527161949E-4,-7.635809598E-4
6.928855478E2,1.527161949E-4,0.000000000E0,-4.581485991E-4
6.933896879E2,1.527161949E-4,4.581485991E-4,-3.054323897E-4
6.938938279E2,-6.108647794E-4,-9.162971983E-4,4.581485991E-4
6.943979678E2,-1.527161949E-4,-1.527161949E-4,1.679878100E-3
6.949021076E2,6.108647794E-4,7.635809598E-4,-1.374445739E-3
6.954062472E2,1.527161949E-4,4.581485991E-4,-9.162971983E-4
6.959103918E2,-1.527161949E-4,-1.527161949E-4,-4.581485991E-4
6.964145257E2,4.581485991E-4,4.581485991E-4,-3.054323897E-4
6.969186648E2,-7.635809598E-4,-1.069013379E-3,4.581485991E-4
6.974228037E2,4.581485991E-4,-3.054323897E-4,4.581485991E-4
6.979269426E2,7.635809598E-4,7.635809598E-4,-7.635809598E-4
6.984310814E2,4.581485991E-4,1.527161949E-4,-1.069013379E-3
6.989352202E2,1.527161949E-4,3.054323897E-4,-1.527161949E-4
6.994393590E2,1.527161949E-4,1.527161949E-4,-0.000000000E0
6.999434977E2,-0.000000000E0,-3.054323897E-4,-1.527161949E-4
7.004476364E2,-1.527161949E-4,-9.162971983E-4,1.069013379E-3
7.009517750E2,6.108647794E-4,3.054323897E-4,3.054323897E-4
7.014559136E2,3.054323897E-4,6.108647794E-4,-1.374445739E-3
7.019600522E2,3.054323897E-4,0.000000000E0,-7.635809598E-4
7.024641909E2,4.581485991E-4,1.527161949E-4,-6.108647794E-4
7.029683297E2,0.000000000E0,-1.527161949E-4,0.000000000E0
7.034724686E2,0.000000000E0,-9.162971983E-4,7.635809598E-4
7.039766074E2,4.581485991E-4,-3.054323897E-4,1.374445739E-3
7.044807463E2,4.581485991E-4,7.635809598E-4,-7.635809598E-4
7.049848852E2,-1.527161949E-4,1.527161949E-4,-1.374445739E-3
7.054890241E2,3.054323897E-4,-1.527161949E-4,-3.054323897E-4
7.059931629E2,-1.527161949E-4,2.748891478E-3,-7.635809598E-4
7.064973017E2,-1.527161949E-4,1.374445762E-2,-1.221729559E-3
7.070014405E2,-7.788525894E-3,4.001164436E-2,2.290742937E-3
7.075055792E2,-4.428769462E-3,2.046396956E-2,-1.985310577E-3
7.080097179E2,4.581485991E-4,-3.054323897E-4,-0.000000000E0
7.085138565E2,0.000000000E0,4.581485991E-4,-3.054323897E-4
7.090179950E2,1.527161949E-4,3.054323897E-4,-7.635809598E-4
7.095221334E2,0.000000000E0,1.985310577E-3,-7.635809598E-4
7.100262718E2,-0.000000000E0,-6.108647794E-4,9.162971983E-4
7.105304101E2,7.635809598E-4,-6.108647794E-4,6.108647794E-4
7.110345484E2,3.054323897E-4,4.581485991E-4,-9.162971983E-4
7.115386866E2,-4.581485991E-4,1.679878100E-3,-1.221729559E-3
7.120428247E2,1.527161949E-4,1.221729559E-3,-1.069013379E-3
7.125469628E2,-1.527161949E-4,1.069013379E-3,0.000000000E0
7.130511008E2,-9.162971983E-4,6.108647794E-4,1.832594397E-3
7.135552387E2,-1.527161949E-4,1.527161949E-4,2.748891478E-3
7.140593766E2,-1.679878100E-3,4.581485991E-4,2.138026757E-3
7.145635144E2,-2.901607659E-3,3.054323839E-3,2.901607659E-3
7.150676521E2,-2.901607659E-3,-2.138026757E-3,4.734201822E-3
7.155717899E2,-4.581485875E-3,-3.665188793E-3,8.857538924E-3
7.160759274E2,-5.497782957E-3,-8.704823442E-3,3.817904973E-3
7.165800649E2,-7.788525894E-3,-7.330377586E-3,8.552107029E-3
7.170842022E2,-9.315688163E-3,-1.389717404E-2,3.817904973E-3
7.175883395E2,-1.023198478E-2,-8.857538924E-3,-1.832594397E-3
7.180924768E2,-1.023198478E-2,-9.468403645E-3,1.832594397E-3
7.185966139E2,-1.023198478E-2,-9.621120058E-3,1.527161949E-4
7.191007510E2,-1.282816008E-2,-9.162971750E-3,-3.054323897E-4
7.196048884E2,-9.926552884E-3,-1.343902480E-2,5.039634649E-3
7.201090254E2,-1.145371422E-2,-8.246674202E-3,-1.985310577E-3
7.206131622E2,-1.267544460E-2,-1.496618707E-2,1.527161949E-4
7.211172990E2,-1.191186346E-2,-9.162971750E-3,-1.985310577E-3
7.216214360E2,-1.191186346E-2,-3.817904973E-3,2.748891478E-3
7.221255730E2,-1.221729536E-2,-1.527161949E-4,-4.734201822E-3
7.226297103E2,-1.481347065E-2,7.483093534E-3,2.901607659E-3
7.231338482E2,-1.511890348E-2,8.857538924E-3,-1.527161920E-3
7.236379869E2,-1.313359290E-2,6.566796452E-3,1.985310577E-3
7.241421264E2,-1.603520103E-2,8.246674202E-3,-4.734201822E-3
7.246462671E2,-1.618791744E-2,9.162971750E-3,-3.054323897E-4
7.251504083E2,-1.634063199E-2,8.093958721E-3,-1.679878100E-3
7.256545499E2,-1.710421406E-2,4.581485875E-3,3.054323897E-4
7.261586918E2,-1.649334840E-2,7.024944760E-3,-5.955931731E-3
7.266628344E2,-1.649334840E-2,-3.817904973E-3,3.817904973E-3
7.271669780E2,-1.603520103E-2,-1.832594397E-3,-2.138026757E-3
7.276711228E2,-1.649334840E-2,-4.428769462E-3,1.221729559E-3
7.281752687E2,-1.603520103E-2,-1.374445739E-3,-9.162971983E-4
7.286794157E2,-1.664606482E-2,-3.207040019E-3,1.527161949E-4
7.291835634E2,-1.420260593E-2,-4.123337101E-3,-3.359756200E-3
7.296877116E2,-1.893680729E-2,-3.054323897E-4,3.054323897E-4
7.301918603E2,-1.710421406E-2,4.581485875E-3,-1.985310577E-3
7.306960092E2,-1.863137633E-2,1.237001177E-2,-1.069013379E-3
7.312001583E2,-1.985310577E-2,1.114828233E-2,-3.512472380E-3
7.317043076E2,-1.802051067E-2,-2.138026757E-3,3.512472380E-3
7.322084568E2,-1.740964688E-2,1.985310577E-3,-3.207040019E-3
7.327126060E2,-1.847865991E-2,9.468403645E-3,-1.527161949E-4
7.332167550E2,-2.000582218E-2,1.282816008E-2,-3.512472380E-3
7.337209040E2,-1.572976820E-2,-0.000000000E0,-2.748891478E-3
7.342250528E2,-1.786779426E-2,-5.345067009E-3,3.054323897E-4
7.347292015E2,-1.832594350E-2,-1.832594397E-3,-1.527161920E-3
7.352333502E2,-1.450803876E-2,-4.276053514E-3,-2.596175298E-3
7.357374989E2,-1.893680729E-2,3.970621154E-3,3.054323897E-4
7.362416475E2,-1.893680729E-2,-5.497782957E-3,-1.832594397E-3
7.367457960E2,-1.572976820E-2,-2.596175298E-3,-3.359756200E-3
7.372499444E2,-1.771507785E-2,-2.596175298E-3,2.443459118E-3
7.377540925E2,-1.908952370E-2,-3.207040019E-3,-3.359756200E-3
7.382582405E2,-1.786779426E-2,-4.123337101E-3,1.069013379E-3
7.387623883E2,-1.634063199E-2,-7.635809598E-4,-5.650499370E-3
7.392665358E2,-1.481347065E-2,-1.527161989E-2,-6.414080039E-3
7.397706832E2,-8.857538924E-3,-1.786779426E-2,-1.313359290E-2
7.402748306E2,-2.443459118E-3,-1.206457894E-2,-1.175914705E-2
7.407789778E2,1.069013379E-3,2.443459118E-3,-2.290742937E-3
7.412831249E2,-4.581485991E-4,7.635809598E-4,3.054323897E-4
7.417872717E2,4.581485991E-4,-1.985310577E-3,1.527161949E-4
7.422914183E2,1.374445739E-3,3.359756200E-3,3.054323897E-4
7.427955646E2,6.108647794E-4,6.108647678E-3,-1.527161920E-3
7.432997107E2,1.527161949E-4,-4.886918236E-3,1.069013379E-3
7.438038565E2,1.221729559E-3,-1.466075517E-2,1.527161949E-4
7.443080021E2,1.527161920E-3,-1.389717404E-2,2.748891478E-3
7.448121474E2,-1.527161949E-4,-1.023198478E-2,2.443459118E-3
7.453162926E2,2.138026757E-3,1.832594397E-3,-1.832594397E-3
7.458204374E2,9.162971983E-4,1.527161920E-3,1.527161949E-4
7.463245821E2,4.276053514E-3,1.679878100E-3,-3.970621154E-3
7.468287267E2,-3.054323839E-3,-2.290742937E-3,1.985310577E-3
7.473328714E2,-5.039634649E-3,-1.450803876E-2,3.207040019E-3
7.478370166E2,5.497782957E-3,-1.175914705E-2,-3.359756200E-3
7.483411621E2,-4.123337101E-3,-1.267544460E-2,9.773836471E-3
7.488453077E2,8.246674202E-3,8.857538924E-3,-1.053741761E-2
7.493494535E2,3.054323897E-4,6.566796452E-3,6.872228812E-3
7.498535993E2,-6.108647794E-4,-2.901607659E-3,-6.872228812E-3
7.503577450E2,-2.748891478E-3,-3.817904973E-3,6.414080039E-3
7.508618905E2,-1.679878100E-3,-3.817904973E-3,-2.290742937E-3
7.513660360E2,1.679878100E-3,9.162971983E-4,2.596175298E-3
7.518701814E2,1.221729559E-3,1.985310577E-3,-1.679878100E-3
7.523743267E2,-4.581485991E-4,-3.054323897E-4,-7.635809598E-4
7.528784718E2,-4.581485991E-4,-6.108647794E-4,1.221729559E-3
7.533826167E2,1.985310577E-3,-7.635809598E-4,-9.162971983E-4
7.538867614E2,4.581485991E-4,1.527161949E-4,1.527161920E-3
7.543909060E2,1.832594397E-3,3.512472380E-3,1.527161949E-4
7.548950505E2,4.581485991E-4,1.069013379E-3,-3.359756200E-3
7.553991949E2,4.581485991E-4,-7.635809598E-4,-1.527161920E-3
7.559033392E2,-2.748891478E-3,-4.276053514E-3,2.596175298E-3
7.564074833E2,2.443459118E-3,-2.290742937E-3,3.054323897E-4
7.569116273E2,1.160643063E-2,9.010255337E-3,-4.581485875E-3
7.574157712E2,5.803215317E-3,1.588248461E-2,9.162971983E-4
7.579199149E2,6.872228812E-3,1.542433538E-2,1.374445739E-3
7.584240584E2,5.650499370E-3,6.108647678E-3,-4.428769462E-3
7.589282019E2,5.955931731E-3,-8.552107029E-3,3.359756200E-3
7.594323453E2,8.093958721E-3,-1.175914705E-2,-6.108647794E-4
7.599364887E2,9.621120058E-3,-1.023198478E-2,5.497782957E-3
7.604406321E2,6.719512399E-3,-5.345067009E-3,-2.748891478E-3
7.609447755E2,1.023198478E-2,2.596175298E-3,-1.069013379E-3
7.614489188E2,6.261364091E-3,3.054323839E-3,-1.527161949E-4
7.619530625E2,-3.207040019E-3,-3.054323839E-3,-3.207040019E-3
7.624572062E2,1.374445739E-3,1.527161920E-3,-3.054323897E-4
7.629613499E2,6.108647794E-4,-1.221729559E-3,3.054323897E-4
7.634654935E2,-1.221729559E-3,-1.374445739E-3,-1.527161920E-3
7.639696373E2,3.054323897E-4,-1.527161949E-4,1.679878100E-3
7.644737811E2,-1.527161949E-4,-1.221729559E-3,1.832594397E-3
7.649779249E2,1.374445739E-3,1.832594397E-3,-6.108647794E-4
7.654820688E2,-6.108647794E-4,-9.162971983E-4,-1.374445739E-3
7.659862128E2,7.635809598E-4,1.069013379E-3,7.635809598E-4
7.664903567E2,7.635809598E-4,-1.374445739E-3,-6.108647794E-4
7.669945006E2,-9.162971983E-4,-1.527161949E-4,1.374445739E-3
7.674986443E2,-4.581485991E-4,-9.162971983E-4,0.000000000E0
7.680027880E2,4.581485991E-4,1.374445739E-3,1.527161949E-4
7.685069315E2,7.635809598E-4,-9.162971983E-4,-1.221729559E-3
7.690110751E2,6.108647794E-4,4.581485991E-4,3.054323897E-4
7.695152186E2,1.221729559E-3,1.527161949E-4,-4.581485991E-4
7.700193620E2,-3.054323897E-4,-3.054323897E-4,-1.985310577E-3
7.705235054E2,-1.069013379E-3,-9.162971983E-4,2.443459118E-3
7.710276486E2,-3.054323897E-4,-2.138026757E-3,1.679878100E-3
7.715317918E2,9.162971983E-4,-4.581485991E-4,-1.679878100E-3
7.720359348E2,-7.635809598E-4,-3.512472380E-3,1.221729559E-3
7.725400778E2,1.527161949E-4,-3.054323897E-4,-1.527161920E-3
7.730442210E2,-6.108647794E-4,-9.162971983E-4,1.527161949E-4
7.735483647E2,-4.581485991E-4,-2.901607659E-3,4.581485991E-4
7.740525089E2,-7.635809598E-4,-3.665188793E-3,-2.901607659E-3
7.745566532E2,3.054323897E-4,1.374445739E-3,1.374445739E-3
7.750607975E2,1.374445739E-3,2.290742937E-3,-6.108647794E-4
7.755649420E2,-2.596175298E-3,-4.581485991E-4,-2.901607659E-3
7.760690864E2,1.527161949E-4,-1.527161920E-3,4.581485875E-3
7.765732309E2,-4.581485991E-4,-1.069013379E-3,1.527161949E-4
7.770773753E2,7.635809598E-4,-1.527161920E-3,1.679878100E-3
7.775815195E2,1.069013379E-3,1.985310577E-3,3.054323897E-4
7.780856635E2,-3.054323897E-4,2.290742937E-3,-1.985310577E-3
7.785898072E2,1.527161920E-3,-1.069013379E-3,-9.162971983E-4
7.790939506E2,-1.069013379E-3,-9.162971983E-4,-1.527161949E-4
7.795980938E2,-3.054323897E-4,-6.108647794E-4,1.069013379E-3
7.801022370E2,1.527161949E-4,5.345067009E-3,6.108647794E-4
7.806063802E2,-3.054323897E-4,1.038470119E-2,-3.512472380E-3
7.811105232E2,-1.679878100E-3,1.038470119E-2,1.527161949E-4
7.816146661E2,-6.108647794E-4,6.566796452E-3,-6.108647794E-4
7.821188088E2,-9.162971983E-4,9.315688163E-3,1.221729559E-3
7.826229513E2,-1.832594397E-3,7.024944760E-3,-3.970621154E-3
7.831270938E2,-6.108647794E-4,8.857538924E-3,4.581485875E-3
7.836312364E2,3.054323897E-4,6.872228812E-3,-5.345067009E-3
7.841353789E2,-1.527161949E-4,3.054323897E-4,1.221729559E-3
7.846395215E2,-4.581485991E-4,-7.635809598E-4,-2.443459118E-3
7.851436640E2,4.581485991E-4,-4.581485991E-4,1.985310577E-3
7.856478065E2,-6.108647794E-4,-4.581485991E-4,-1.527161949E-4
7.861519489E2,-3.665188793E-3,-1.221729559E-3,-1.527161949E-4
7.866560912E2,-5.497782957E-3,-1.374445739E-3,3.054323897E-4
7.871602335E2,-5.345067009E-3,0.000000000E0,4.123337101E-3
7.876643757E2,-6.414080039E-3,-3.054323897E-4,-9.621120058E-3
7.881685179E2,-4.123337101E-3,7.635809598E-4,9.773836471E-3
7.886726601E2,-5.803215317E-3,-1.527161920E-3,-7.330377586E-3
7.891768022E2,-6.108647678E-3,-2.443459118E-3,3.817904973E-3
7.896809444E2,-6.261364091E-3,-5.039634649E-3,-1.069013379E-3
7.901850866E2,-3.512472380E-3,-5.650499370E-3,1.374445739E-3
7.906892288E2,-2.443459118E-3,-6.719512399E-3,0.000000000E0
7.911933711E2,-5.039634649E-3,-7.941242307E-3,-3.359756200E-3
7.916975132E2,-6.108647794E-4,-5.955931731E-3,4.581485875E-3
7.922016555E2,0.000000000E0,-7.024944760E-3,-4.734201822E-3
7.927057978E2,3.054323839E-3,-5.039634649E-3,5.955931731E-3
7.932099402E2,3.512472380E-3,-8.093958721E-3,-4.734201822E-3
7.937140828E2,6.414080039E-3,-2.474002354E-2,5.039634649E-3
7.942182255E2,6.414080039E-3,-1.328630932E-2,-1.221729559E-3
7.947223682E2,5.803215317E-3,1.634063199E-2,-6.108647794E-4
7.952265109E2,8.704823442E-3,-1.527161949E-4,-1.527161920E-3
7.957306537E2,6.108647678E-3,-4.581485991E-4,3.054323897E-4
7.962347967E2,6.719512399E-3,3.054323897E-4,7.635809598E-4
7.967389399E2,7.483093534E-3,1.985310577E-3,-1.527161949E-4
7.972430832E2,6.261364091E-3,-6.108647794E-4,-4.581485991E-4
7.977472266E2,7.941242307E-3,1.527161920E-3,2.290742937E-3
7.982513700E2,6.108647678E-3,3.665188793E-3,-1.985310577E-3
7.987555134E2,5.955931731E-3,1.374445739E-3,4.581485991E-4
7.992596569E2,5.039634649E-3,1.374445739E-3,4.581485991E-4
7.997638005E2,4.886918236E-3,-1.527161920E-3,-1.221729559E-3
8.002679443E2,5.803215317E-3,3.054323897E-4,1.527161920E-3
8.007720885E2,5.039634649E-3,1.985310577E-3,-1.221729559E-3
8.012762330E2,5.497782957E-3,1.985310577E-3,-3.054323897E-4
8.017803777E2,4.123337101E-3,-1.527161949E-4,-3.054323897E-4
8.022845224E2,3.512472380E-3,-6.108647794E-4,-3.054323897E-4
8.027886672E2,3.817904973E-3,-9.162971983E-4,1.069013379E-3
8.032928120E2,3.970621154E-3,9.162971983E-4,-4.581485991E-4
8.037969570E2,4.886918236E-3,1.069013379E-3,-1.069013379E-3
8.043011021E2,3.665188793E-3,1.374445739E-3,-6.108647794E-4
8.048052470E2,3.665188793E-3,3.054323897E-4,-9.162971983E-4
8.053093919E2,2.596175298E-3,-1.221729559E-3,4.581485991E-4
8.058135367E2,3.054323839E-3,-4.581485991E-4,1.221729559E-3
8.063176815E2,3.054323839E-3,6.108647794E-4,3.054323897E-4
8.068218263E2,2.748891478E-3,1.527161920E-3,-9.162971983E-4
8.073259711E2,2.138026757E-3,4.581485991E-4,-6.108647794E-4
8.078301157E2,2.290742937E-3,1.527161949E-4,-1.527161949E-4
8.083342602E2,1.679878100E-3,-7.635809598E-4,0.000000000E0
8.088384047E2,1.832594397E-3,-7.635809598E-4,3.054323897E-4
8.093425492E2,1.985310577E-3,0.000000000E0,1.527161949E-4
8.098466939E2,1.679878100E-3,1.374445739E-3,-1.374445739E-3
8.103508387E2,1.069013379E-3,6.108647794E-4,-0.000000000E0
8.108549833E2,1.221729559E-3,3.054323897E-4,-1.527161949E-4
8.113591278E2,6.108647794E-4,-1.069013379E-3,3.054323897E-4
8.118632722E2,3.054323897E-4,-1.679878100E-3,4.581485991E-4
8.123674164E2,4.581485991E-4,-4.581485991E-4,7.635809598E-4
8.128715606E2,7.635809598E-4,4.123337101E-3,-1.069013379E-3
8.133757050E2,3.665188793E-3,6.872228812E-3,7.635809598E-4
8.138798495E2,-1.221729559E-3,-5.345067009E-3,6.108647794E-4
8.143839944E2,0.000000000E0,-9.162971983E-4,-0.000000000E0
8.148881395E2,-6.108647794E-4,-1.374445739E-3,3.054323897E-4
8.153922849E2,-9.162971983E-4,-4.581485991E-4,7.635809598E-4
8.158964306E2,3.054323897E-4,1.069013379E-3,-1.221729559E-3
8.164005767E2,3.054323897E-4,1.527161949E-4,-3.054323897E-4
8.169047231E2,1.527161949E-4,1.527161949E-4,0.000000000E0
8.174088699E2,-1.527161949E-4,-0.000000000E0,1.527161949E-4
8.179130167E2,1.527161949E-4,-1.221729559E-3,6.108647794E-4
8.184171638E2,3.054323897E-4,1.527161949E-4,0.000000000E0
8.189213108E2,3.054323897E-4,4.581485991E-4,-1.069013379E-3
8.194254580E2,6.108647794E-4,4.581485991E-4,-1.527161949E-4
8.199296054E2,4.581485991E-4,-0.000000000E0,-1.527161949E-4
8.204337529E2,-6.108647794E-4,-7.635809598E-4,3.054323897E-4
8.209379005E2,3.054323897E-4,-4.581485991E-4,4.581485991E-4
8.214420484E2,1.527161949E-4,3.054323897E-4,0.000000000E0
8.219461966E2,4.581485991E-4,3.054323897E-4,-7.635809598E-4
8.224503450E2,1.527161949E-4,-0.000000000E0,-3.054323897E-4
8.229544937E2,1.527161949E-4,-0.000000000E0,-0.000000000E0
8.234586425E2,-3.054323897E-4,-3.054323897E-4,0.000000000E0
8.239627915E2,-0.000000000E0,-7.635809598E-4,4.581485991E-4
8.244669448E2,-4.581485991E-4,3.054323897E-4,1.527161920E-3
8.249710902E2,3.054323897E-4,6.108647794E-4,-1.069013379E-3
8.254752399E2,1.527161949E-4,-1.527161949E-4,-9.162971983E-4
8.259793899E2,4.581485991E-4,1.527161949E-4,0.000000000E0
8.264835404E2,-1.527161949E-4,-3.054323897E-4,-1.527161949E-4
8.269876912E2,-3.054323897E-4,-7.635809598E-4,3.054323897E-4
8.274918422E2,1.527161949E-4,-1.527161949E-4,4.581485991E-4
8.279959932E2,3.054323897E-4,4.581485991E-4,-9.162971983E-4
8.285001445E2,3.054323897E-4,3.054323897E-4,-6.108647794E-4
8.290042960E2,3.054323897E-4,0.000000000E0,-1.527161949E-4
8.295084477E2,3.054323897E-4,1.527161949E-4,-1.527161949E-4
8.300125994E2,-4.581485991E-4,-4.581485991E-4,1.527161949E-4
8.305167513E2,1.527161949E-4,-3.054323897E-4,7.635809598E-4
8.310209033E2,3.054323897E-4,0.000000000E0,1.527161949E-4
8.315250556E2,1.527161949E-4,3.054323897E-4,-7.635809598E-4
8.320292082E2,3.054323897E-4,3.054323897E-4,-6.108647794E-4
8.325333612E2,1.527161949E-4,0.000000000E0,-1.527161949E-4
8.330375144E2,3.054323897E-4,3.054323897E-4,-1.527161949E-4
8.335416681E2,-3.054323897E-4,-7.635809598E-4,1.527161949E-4
8.340458221E2,-1.527161949E-4,-6.108647794E-4,7.635809598E-4
8.345499765E2,1.527161949E-4,4.581485991E-4,-4.581485991E-4
8.350541313E2,4.581485991E-4,6.108647794E-4,-6.108647794E-4
8.355582864E2,3.054323897E-4,3.054323897E-4,-3.054323897E-4
8.360624418E2,2.748891478E-3,6.414080039E-3,-1.985310577E-3
8.365665975E2,2.138026757E-3,2.260199748E-2,7.635809598E-4
8.370707534E2,-9.162971983E-4,1.832594397E-3,1.679878100E-3
8.375749095E2,-9.162971983E-4,3.817904973E-3,4.581485991E-4
8.380790659E2,6.108647794E-4,1.374445739E-3,-6.108647794E-4
8.385832224E2,9.162971983E-4,1.069013379E-3,-3.054323897E-4
8.390873791E2,1.221729559E-3,1.221729559E-3,-3.054323897E-4
8.395915355E2,1.527161920E-3,1.221729559E-3,1.527161949E-4
8.400956921E2,2.138026757E-3,7.635809598E-4,-0.000000000E0
8.405998487E2,1.832594397E-3,1.832594397E-3,-0.000000000E0
8.411040054E2,2.290742937E-3,1.221729559E-3,4.581485991E-4
8.416081621E2,2.290742937E-3,1.221729559E-3,6.108647794E-4
8.421123192E2,2.748891478E-3,6.108647794E-4,6.108647794E-4
8.426164768E2,3.512472380E-3,3.054323897E-4,3.054323897E-4
8.431206348E2,4.123337101E-3,-6.108647794E-4,1.527161949E-4
8.436247929E2,3.665188793E-3,1.527161920E-3,-7.635809598E-4
8.441289512E2,4.276053514E-3,6.108647794E-4,6.108647794E-4
8.446331095E2,4.734201822E-3,1.527161949E-4,1.527161949E-4
8.451372676E2,4.428769462E-3,1.679878100E-3,-3.054323897E-4
8.456414256E2,4.428769462E-3,1.069013379E-3,1.069013379E-3
8.461455833E2,4.886918236E-3,1.069013379E-3,4.581485991E-4
8.466497407E2,5.345067009E-3,2.901607659E-3,0.000000000E0
8.471538979E2,5.650499370E-3,1.069013379E-3,-3.054323897E-4
8.476580547E2,5.803215317E-3,6.108647794E-4,-4.581485991E-4
8.481622111E2,6.261364091E-3,1.985310577E-3,6.108647794E-4
8.486663671E2,5.497782957E-3,2.748891478E-3,-3.054323897E-4
8.491705228E2,7.941242307E-3,3.054323897E-4,-4.581485991E-4
8.496746782E2,6.261364091E-3,-1.527161949E-4,3.512472380E-3
8.501788335E2,7.024944760E-3,2.138026757E-3,-4.581485991E-4
8.506829887E2,7.635809947E-3,1.527161920E-3,1.527161949E-4
8.511871442E2,7.330377586E-3,2.290742937E-3,-3.054323897E-4
8.516912998E2,8.399390616E-3,3.970621154E-3,-1.069013379E-3
8.521954556E2,1.084284950E-2,1.221729559E-3,-6.108647794E-4
8.526996112E2,1.206457894E-2,7.635809598E-4,2.596175298E-3
8.532037665E2,1.267544460E-2,1.985310577E-3,-1.985310577E-3
8.537079218E2,1.175914705E-2,7.177661173E-3,3.207040019E-3
8.542120772E2,1.359174121E-2,-1.221729559E-3,-4.581485991E-4
8.547162327E2,1.313359290E-2,3.207040019E-3,-3.054323897E-4
8.552203885E2,1.496618707E-2,1.527161949E-4,1.832594397E-3
8.557245443E2,1.420260593E-2,3.512472380E-3,-1.527161949E-4
8.562287003E2,1.420260593E-2,1.527161949E-4,1.985310577E-3
8.567328562E2,1.679878123E-2,-1.832594397E-3,3.970621154E-3
8.572370118E2,1.832594350E-2,4.123337101E-3,-6.566796452E-3
8.577411668E2,1.252272818E-2,1.053741761E-2,1.053741761E-2
8.582453213E2,1.572976820E-2,2.138026757E-3,-7.941242307E-3
8.587494756E2,1.679878123E-2,1.527161949E-4,4.886918236E-3
8.592536295E2,1.618791744E-2,5.955931731E-3,1.069013379E-3
8.597577830E2,1.924224012E-2,-1.527161949E-4,-3.054323897E-4
8.602619362E2,1.664606482E-2,4.428769462E-3,-1.069013379E-3
8.607660891E2,1.771507785E-2,2.748891478E-3,1.679878100E-3
8.612702418E2,1.802051067E-2,7.177661173E-3,-1.832594397E-3
8.617743942E2,1.863137633E-2,1.679878100E-3,5.955931731E-3
8.622785465E2,2.076940238E-2,1.374445739E-3,-5.345067009E-3
8.627826986E2,1.664606482E-2,5.955931731E-3,5.650499370E-3
8.632868506E2,2.214384824E-2,0.000000000E0,-5.192350596E-3
8.637910021E2,1.878409274E-2,4.123337101E-3,3.665188793E-3
8.642951532E2,2.107483521E-2,-1.069013379E-3,6.108647794E-4
8.647993041E2,2.199113183E-2,3.665188793E-3,2.748891478E-3
8.653034550E2,2.168569900E-2,4.123337101E-3,-6.108647794E-4
8.658076059E2,2.138026804E-2,6.108647794E-4,1.679878100E-3
8.663117566E2,2.183841541E-2,2.901607659E-3,-1.069013379E-3
8.668159072E2,2.107483521E-2,4.123337101E-3,2.138026757E-3
8.673200578E2,2.183841541E-2,1.985310577E-3,-1.221729559E-3
8.678242083E2,2.321286127E-2,1.069013379E-3,8.093958721E-3
8.683283589E2,2.397644334E-2,4.276053514E-3,-1.832594397E-3
8.688325094E2,2.229656465E-2,6.566796452E-3,1.374445739E-3
8.693366599E2,2.443459071E-2,-1.679878100E-3,-3.054323839E-3
8.698408104E2,2.474002354E-2,-5.192350596E-3,6.261364091E-3
8.703449608E2,2.519817278E-2,3.054323839E-3,-6.872228812E-3
8.708491112E2,2.535088919E-2,6.108647794E-4,3.359756200E-3
8.713532617E2,2.412915789E-2,1.069013379E-3,9.162971983E-4
8.718574121E2,2.168569900E-2,2.901607659E-3,-3.970621154E-3
8.723615623E2,1.252272818E-2,-1.069013379E-3,-2.443459118E-3
8.728657123E2,5.345067009E-3,-1.374445739E-3,-4.123337101E-3
8.733698622E2,6.108647794E-4,-1.374445739E-3,-6.108647794E-4
8.738740125E2,-1.221729559E-3,-1.527161920E-3,-3.054323897E-4
8.743781634E2,2.596175298E-3,3.054323839E-3,-2.443459118E-3
8.748823154E2,-2.596175298E-3,-5.192350596E-3,2.748891478E-3
8.753864682E2,-6.108647794E-4,-1.679878100E-3,-3.054323839E-3
8.758906217E2,-7.635809598E-4,-1.374445739E-3,6.108647794E-4
8.763947758E2,1.221729559E-3,-3.054323897E-4,4.581485991E-4
8.768989301E2,-3.054323897E-4,4.123337101E-3,6.566796452E-3
8.774030848E2,-1.527161949E-4,-3.207040019E-3,1.069013379E-3
8.779072396E2,3.207040019E-3,1.069013379E-3,-5.345067009E-3
8.784113945E2,-4.581485991E-4,-1.069013379E-3,-1.679878100E-3
8.789155494E2,-2.748891478E-3,-7.635809598E-4,1.069013379E-3
8.794197042E2,3.665188793E-3,2.596175298E-3,1.527161920E-3
8.799238586E2,-1.221729559E-3,-1.527161920E-3,-1.832594397E-3
8.804280128E2,3.359756200E-3,5.192350596E-3,-9.162971983E-4
8.809321669E2,-2.748891478E-3,-7.788525894E-3,9.162971983E-4
8.814363210E2,9.162971983E-4,3.359756200E-3,-1.527161949E-4
8.819404752E2,9.162971983E-4,-6.261364091E-3,5.345067009E-3
8.824446296E2,1.527161920E-3,4.886918236E-3,-5.345067009E-3
8.829487843E2,-4.581485875E-3,-1.985310577E-3,1.832594397E-3
8.834529393E2,-4.123337101E-3,1.527161949E-4,9.162971983E-4
8.839570945E2,-1.389717404E-2,-3.207040019E-3,-5.955931731E-3
8.844612500E2,-1.191186346E-2,-1.985310577E-3,-1.527161920E-3
8.849654058E2,-9.773836471E-3,3.817904973E-3,3.054323897E-4
8.854695619E2,-1.160643063E-2,-1.985310577E-3,-2.596175298E-3
8.859737180E2,-1.252272818E-2,5.803215317E-3,3.512472380E-3
8.864778738E2,-7.024944760E-3,8.857538924E-3,-3.970621154E-3
8.869820293E2,-1.191186346E-2,-2.901607659E-3,2.290742937E-3
8.874861846E2,-1.267544460E-2,6.108647794E-4,-3.054323839E-3
8.879903399E2,-8.093958721E-3,5.803215317E-3,-1.069013379E-3
8.884944958E2,-1.374445762E-2,1.313359290E-2,-2.138026757E-3
8.889986523E2,-1.145371422E-2,-1.221729559E-3,1.221729559E-3
8.895028093E2,-1.130099874E-2,-6.108647794E-4,2.290742937E-3
8.900069666E2,-9.621120058E-3,9.162971983E-4,-2.748891478E-3
8.905111241E2,-1.374445762E-2,1.114828233E-2,-1.527161920E-3
8.910152822E2,-9.315688163E-3,-8.246674202E-3,2.290742937E-3
8.915194409E2,-1.313359290E-2,7.483093534E-3,4.734201822E-3
8.920236005E2,-8.552107029E-3,-5.803215317E-3,-9.010255337E-3
8.925277608E2,-9.162971750E-3,2.290742937E-3,1.069013379E-3
8.930319219E2,-1.511890348E-2,7.483093534E-3,-9.010255337E-3
8.935360835E2,-1.237001177E-2,-1.206457894E-2,1.130099874E-2
8.940402450E2,-9.621120058E-3,1.527161920E-3,3.512472380E-3
8.945444062E2,-6.566796452E-3,8.399390616E-3,-4.734201822E-3
8.950485670E2,-1.298087649E-2,-9.162971750E-3,-7.635809598E-4
8.955527274E2,-8.704823442E-3,-1.527161949E-4,-6.719512399E-3
8.960568877E2,-1.267544460E-2,-2.138026757E-3,2.138026757E-3
8.965610478E2,-1.053741761E-2,-4.581485875E-3,-3.359756200E-3
8.970652080E2,-1.145371422E-2,3.054323897E-4,1.527161920E-3
8.975693681E2,-9.468403645E-3,-4.276053514E-3,-9.162971983E-4
8.980735280E2,-8.093958721E-3,-8.704823442E-3,3.512472380E-3
8.985776878E2,-1.191186346E-2,-1.069013402E-2,1.527161949E-4
8.990818474E2,-8.093958721E-3,-5.803215317E-3,-2.596175298E-3
8.995860067E2,-1.114828233E-2,-4.734201822E-3,-5.955931731E-3
9.000901660E2,-1.481347065E-2,-1.725693047E-2,3.054323839E-3
9.005943252E2,-1.328630932E-2,-1.160643063E-2,1.527161949E-4
9.010984842E2,-7.483093534E-3,-6.719512399E-3,4.734201822E-3
9.016026433E2,-7.330377586E-3,-5.192350596E-3,-1.527161920E-3
9.021068023E2,-8.246674202E-3,-4.428769462E-3,-1.221729559E-3
9.026109611E2,-1.191186346E-2,-1.114828233E-2,-7.635809598E-4
9.031151198E2,-9.773836471E-3,-9.010255337E-3,7.635809598E-4
9.036192784E2,-1.038470119E-2,-9.162971750E-3,-1.679878100E-3
9.041234369E2,-9.010255337E-3,-8.552107029E-3,6.108647794E-4
9.046275952E2,-6.872228812E-3,-6.872228812E-3,-0.000000000E0
9.051317535E2,-1.145371422E-2,-7.330377586E-3,-4.581485991E-4
9.056359116E2,-7.635809947E-3,-1.374445739E-3,-1.221729559E-3
9.061400696E2,-7.788525894E-3,9.010255337E-3,-2.748891478E-3
9.066442275E2,-9.621120058E-3,3.970621154E-3,-1.985310577E-3
9.071483852E2,-1.175914705E-2,1.679878100E-3,3.512472380E-3
9.076525427E2,-7.941242307E-3,4.734201822E-3,-5.345067009E-3
9.081567002E2,-9.773836471E-3,2.596175298E-3,4.886918236E-3
9.086608575E2,-7.330377586E-3,-1.679878100E-3,-3.207040019E-3
9.091650147E2,-1.053741761E-2,-1.221729559E-3,4.581485875E-3
9.096691716E2,-7.483093534E-3,-1.374445739E-3,-6.719512399E-3
9.101733283E2,-8.552107029E-3,-7.635809598E-4,3.817904973E-3
9.106774848E2,-9.162971750E-3,-1.527161920E-3,-3.359756200E-3
9.111816411E2,-1.114828233E-2,-3.054323839E-3,4.428769462E-3
9.116857973E2,-9.468403645E-3,-1.832594397E-3,-3.054323839E-3
9.121899534E2,-2.748891478E-3,9.162971983E-4,4.734201822E-3
9.126941093E2,9.162971983E-4,1.221729559E-3,-1.374445739E-3
9.131982652E2,-6.108647794E-4,-3.054323897E-4,3.665188793E-3
9.137024210E2,1.527161920E-3,9.162971983E-4,-1.985310577E-3
9.142065766E2,1.679878100E-3,1.221729559E-3,-1.527161920E-3
9.147107322E2,-1.221729559E-3,-1.679878100E-3,-7.635809598E-4
9.152148876E2,-1.679878100E-3,-3.817904973E-3,5.650499370E-3
9.157190429E2,-1.374445739E-3,-9.162971983E-4,-3.817904973E-3
9.162231983E2,-3.970621154E-3,-3.665188793E-3,3.512472380E-3
9.167273536E2,-6.108647794E-4,3.207040019E-3,1.985310577E-3
9.172315087E2,0.000000000E0,-1.527161920E-3,-7.635809598E-4
9.177356637E2,2.138026757E-3,1.069013379E-3,-2.443459118E-3
9.182398186E2,-3.665188793E-3,-5.192350596E-3,3.054323839E-3
9.187439734E2,4.886918236E-3,3.207040019E-3,2.290742937E-3
9.192481280E2,3.054323979E-2,4.581485991E-4,3.054323897E-4
9.197522826E2,2.244928107E-2,7.788525894E-3,-2.901607659E-3
9.202564372E2,2.428187430E-2,6.719512399E-3,1.527161920E-3
9.207605916E2,2.076940238E-2,3.054323897E-4,-3.054323897E-4
9.212647461E2,2.306014486E-2,4.734201822E-3,-1.527161949E-4
9.217689005E2,1.863137633E-2,8.399390616E-3,6.108647794E-4
9.222730551E2,1.740964688E-2,6.414080039E-3,-7.635809598E-4
9.227772097E2,2.183841541E-2,8.552107029E-3,2.596175298E-3
9.232813643E2,2.061668597E-2,9.315688163E-3,3.054323897E-4
9.237855190E2,1.603520103E-2,4.886918236E-3,-6.719512399E-3
9.242896738E2,1.328630932E-2,4.886918236E-3,7.941242307E-3
9.247938287E2,8.857538924E-3,-3.054323897E-4,-9.010255337E-3
9.252979837E2,5.650499370E-3,1.832594397E-3,2.748891478E-3
9.258021387E2,-9.162971983E-4,-2.596175298E-3,-5.039634649E-3
9.263062937E2,-6.414080039E-3,-1.679878100E-3,-4.581485991E-4
9.268104487E2,-7.788525894E-3,-2.443459118E-3,4.581485875E-3
9.273146037E2,-1.267544460E-2,-6.719512399E-3,-6.414080039E-3
9.278187586E2,-1.618791744E-2,2.596175298E-3,3.512472380E-3
9.283229135E2,-1.557705179E-2,-2.443459118E-3,-7.941242307E-3
9.288270684E2,-1.954767294E-2,-3.817904973E-3,7.941242307E-3
9.293312232E2,-1.496618707E-2,-9.162971983E-4,3.359756200E-3
9.298353779E2,-1.618791744E-2,-4.886918236E-3,-6.414080039E-3
9.303395328E2,-1.221729536E-2,3.054323839E-3,1.069013402E-2
9.308436881E2,-1.404988952E-2,-2.596175298E-3,-1.420260593E-2
9.313478443E2,-1.313359290E-2,-7.635809598E-4,5.192350596E-3
9.318520013E2,-1.099556591E-2,4.581485991E-4,-1.313359290E-2
9.323561591E2,-1.084284950E-2,1.221729559E-3,5.650499370E-3
9.328603175E2,-1.847865991E-2,-6.872228812E-3,-9.162971983E-4
9.333644765E2,-1.252272818E-2,-4.734201822E-3,-1.679878100E-3
9.338686360E2,1.985310577E-3,2.290742937E-3,6.719512399E-3
9.343727958E2,-3.359756200E-3,-2.596175298E-3,1.221729559E-3
9.348769558E2,-4.886918236E-3,-5.803215317E-3,-2.901607659E-3
9.353811161E2,-1.374445739E-3,-3.665188793E-3,1.374445739E-3
9.358852764E2,-1.221729559E-3,-4.123337101E-3,-1.527161920E-3
9.363894367E2,4.581485991E-4,-3.665188793E-3,-3.054323897E-4
9.368935971E2,7.635809598E-4,-3.207040019E-3,1.221729559E-3
9.373977573E2,-6.108647794E-4,-2.443459118E-3,1.527161949E-4
9.379019174E2,3.054323897E-4,7.635809598E-4,1.527161949E-4
9.384060775E2,6.108647794E-4,4.581485991E-4,-6.108647794E-4
9.389102377E2,1.374445739E-3,0.000000000E0,-2.596175298E-3
9.394143981E2,-6.108647794E-4,-1.221729559E-3,6.108647794E-4
9.399185590E2,6.108647794E-4,-3.054323897E-4,-1.679878100E-3
9.404227205E2,1.527161949E-4,-1.374445739E-3,1.069013379E-3
9.409268828E2,1.374445739E-3,4.581485991E-4,2.596175298E-3
9.414310455E2,1.374445739E-3,6.108647794E-4,-1.832594397E-3
9.419352088E2,1.527161949E-4,2.443459118E-3,-1.221729559E-3
9.424393726E2,9.162971983E-4,1.374445739E-3,-6.108647794E-4
9.429435371E2,4.123337101E-3,4.581485875E-3,-1.679878100E-3
9.434477022E2,-7.635809598E-4,-3.207040019E-3,2.443459118E-3
9.439518682E2,9.162971983E-4,-3.054323897E-4,6.108647794E-4
9.444560348E2,9.162971983E-4,1.374445739E-3,-1.527161949E-4
9.449602019E2,-1.679878100E-3,-1.221729559E-3,1.221729559E-3
9.454643697E2,1.069013379E-3,-6.108647794E-4,-2.138026757E-3
9.459685381E2,-1.069013379E-3,-1.069013379E-3,1.374445739E-3
9.464727075E2,-3.054323897E-4,-1.069013379E-3,1.221729559E-3
9.469768776E2,-3.054323897E-4,-1.221729559E-3,1.527161920E-3
9.474810484E2,-1.221729559E-3,3.054323897E-4,-2.596175298E-3
9.479852196E2,7.635809598E-4,-3.054323897E-4,-9.162971983E-4
9.484893911E2,9.162971983E-4,-0.000000000E0,-1.069013379E-3
9.489935627E2,-0.000000000E0,-6.108647794E-4,3.054323897E-4
9.494977347E2,1.527161949E-4,-7.635809598E-4,1.527161949E-4
9.500019069E2,0.000000000E0,-1.985310577E-3,1.985310577E-3
9.505060797E2,-1.221729559E-3,-1.527161949E-4,1.374445739E-3
9.510102524E2,-1.527161949E-4,4.581485991E-4,-2.290742937E-3
9.515144249E2,6.108647794E-4,3.054323897E-4,-2.290742937E-3
9.520185967E2,-3.054323897E-4,-3.054323897E-4,-6.108647794E-4
9.525227680E2,7.635809598E-4,3.054323897E-4,-7.635809598E-4
9.530269388E2,-4.581485991E-4,-7.635809598E-4,4.581485991E-4
9.535311090E2,6.108647794E-4,-7.635809598E-4,1.527161920E-3
9.540352788E2,9.162971983E-4,-1.221729559E-3,7.635809598E-4
9.545394480E2,-0.000000000E0,7.635809598E-4,-1.374445739E-3
9.550436166E2,-6.108647794E-4,3.054323897E-4,-9.162971983E-4
9.555477848E2,9.162971983E-4,0.000000000E0,-1.221729559E-3
9.560519522E2,-7.635809598E-4,-1.527161949E-4,4.581485991E-4
9.565561191E2,1.527161949E-4,-1.374445739E-3,1.221729559E-3
9.570602855E2,4.795288667E-2,-1.270598769E-1,6.887500733E-2
9.575644515E2,-7.131846249E-2,4.749473557E-2,4.993819445E-2
9.580686174E2,-1.111773923E-1,2.171624303E-1,-1.953240186E-1
9.585727828E2,6.872228533E-2,1.231197953E0,-1.632688880E0
9.590769478E2,-3.512472380E-3,6.954695582E-1,3.543015718E-1
9.595811124E2,-3.283398226E-2,7.666353136E-2,1.053741761E-2
