"Time (s)","Linear Acceleration x (m/s^2)","Linear Acceleration y (m/s^2)","Linear Acceleration z (m/s^2)"
0.000000000E0,-6.481610984E-2,2.187728882E-2,-3.571271896E-2
1.424134380E-1,-6.784477271E-3,9.257411957E-2,-1.303496361E-1
6.424134380E-1,4.895599186E-1,3.055324554E-1,-3.467736244E-1
1.142413438E0,-2.443220913E-1,2.401828766E-2,1.871452332E-1
1.642413438E0,1.924636066E-1,-3.156566620E-2,8.401889801E-1
2.142413438E0,-2.527146339E-1,-2.796158791E-1,3.361034393E-1
2.642413438E0,2.053359151E-1,-1.186775684E0,1.184573174E0
3.142413438E0,7.251719236E-1,7.393884659E-1,-1.496482849E0
3.642413438E0,-7.179381847E-1,2.049541473E-2,1.516835213E0
4.142413438E0,-6.075827599E0,2.098383665E0,4.955575943E0
4.642413438E0,4.254255295E-1,-1.147114396E0,-2.624388635E-1
5.142413438E0,6.120548248E-1,-9.969347119E-1,-7.993512154E-1
5.642413438E0,2.072971344E0,-4.669062793E-1,-2.392009974E0
6.142413438E0,5.715255737E-1,-5.286324620E-1,-6.074640751E-1
6.642413438E0,4.486427307E-1,-2.763321102E-1,-2.157216072E-1
7.142413438E0,1.504602432E-1,-2.298809290E-1,-5.634641647E-2
7.642413438E0,1.311292648E-1,-6.553068757E-2,-2.394127846E-1
8.142413438E0,2.156915665E-1,-3.261414170E-2,-2.731652260E-1
8.642413438E0,7.377529144E-2,1.190775037E-1,-2.369260788E-2
9.142413438E0,-1.155538559E-1,-4.084494710E-2,6.890964508E-2
9.642413438E0,-1.076440811E-1,2.572668791E-1,2.064442635E-1
1.014241344E1,2.998638153E-2,1.254156083E-1,6.073951721E-3
1.064241344E1,6.138801575E-3,-1.824365407E-1,-4.959385395E-1
1.114241344E1,6.791210175E-1,4.535320997E-1,-1.109571218E0
1.164241344E1,3.482999802E-1,2.860346437E-2,-4.863877296E-1
1.214241344E1,3.269701004E-1,3.770306110E-1,-4.879198074E-1
1.264241344E1,1.297111511E-1,-4.777350724E-1,-1.647062302E-1
1.314241344E1,2.582302094E-1,-9.583130479E-3,-2.324662209E-1
1.364241344E1,-5.351066589E-3,-6.909705400E-1,-1.760497093E-1
1.414241344E1,1.743412018E-2,2.355843782E-2,-5.072593689E-2
1.464241344E1,-5.463600159E-3,-4.108234048E-1,-7.973146439E-2
1.514241344E1,-7.182407379E-2,-3.837686777E-2,3.351593018E-2
1.564241344E1,9.531593323E-2,-2.768867016E-1,-4.320716858E-2
1.614241344E1,-1.769924164E-2,4.985702634E-1,7.052850723E-2
1.664241344E1,-9.237766266E-2,4.795634747E-2,2.346858978E-1
1.714241344E1,1.098837852E-1,3.511923254E-1,-1.769518852E-1
1.764241344E1,4.108524323E-2,9.810575843E-2,-1.564025879E-3
1.814241344E1,5.271673203E-2,8.167544007E-2,2.705764771E-2
1.864241344E1,1.200962067E-2,5.383947492E-2,7.397747040E-2
1.914241344E1,3.941631317E-2,9.682106972E-2,4.574966431E-2
1.964241344E1,-6.311559677E-2,-7.457643747E-2,-2.063655853E-2
2.014241344E1,5.319786072E-2,7.163906097E-2,6.215286255E-2
2.064241344E1,-9.423732758E-3,9.765172005E-2,-6.809234619E-3
2.114241344E1,1.950073242E-2,-1.177525520E-2,1.055479050E-2
2.164241344E1,-2.543163300E-2,5.296650529E-2,-2.236366272E-2
2.214241344E1,-3.758716583E-2,2.619564533E-3,2.098512650E-2
2.264241344E1,6.970834732E-2,1.098257303E-2,5.550765991E-2
2.314241344E1,6.488800049E-3,-3.089267015E-2,3.860950470E-3
2.364241344E1,-4.311084747E-3,6.590700150E-2,-1.064777374E-3
2.414241344E1,-2.037048340E-2,-2.756607533E-2,-2.877712250E-2
2.464241344E1,-1.069259644E-2,3.424209356E-2,8.440017700E-4
2.514241344E1,3.007173538E-2,-2.325016260E-2,2.132511139E-2
2.564241344E1,-1.346063614E-2,3.001886606E-2,-1.412868500E-3
2.614241344E1,1.172065735E-2,2.433168888E-2,2.527236938E-2
2.664241344E1,7.359981537E-2,-7.476210594E-4,-1.684617996E-2
2.714241344E1,-2.505302429E-3,3.789192438E-2,1.862096786E-2
2.764241344E1,1.038599014E-1,-2.819293737E-2,-1.060891151E-1
2.814241344E1,4.043579102E-3,5.528986454E-3,4.560470581E-3
2.864241344E1,3.159952164E-2,-1.929998398E-2,1.840019226E-2
2.914241344E1,-3.343582153E-2,1.773375273E-2,7.365703583E-3
2.964241344E1,4.137992859E-3,-8.478820324E-3,4.985094070E-2
3.014241344E1,-3.084468842E-2,2.173000574E-2,-7.294273376E-2
3.064241344E1,-1.681375504E-2,-2.617716789E-3,2.223062515E-2
3.114241344E1,-3.233861923E-2,-3.561693430E-2,4.630804062E-2
3.164241344E1,-7.848119736E-2,4.192173481E-3,3.649234772E-2
3.214241344E1,-3.136682510E-2,-2.538770437E-2,4.325866699E-2
3.264241344E1,-4.098796844E-2,6.052851677E-4,2.605867386E-2
3.314241344E1,-2.933168411E-2,-9.842455387E-3,-5.980968475E-3
3.364241344E1,5.371856689E-2,-1.986330748E-2,-2.036666870E-2
3.414241344E1,3.556108475E-2,-1.405471563E-2,-9.586334229E-3
3.464241344E1,-8.998870850E-3,-1.224201918E-2,4.291534424E-3
3.514241344E1,-1.391458511E-2,3.941214085E-2,1.446962357E-2
3.564241344E1,6.943225861E-3,-2.280980349E-2,1.080036163E-2
3.614241344E1,-6.704807281E-3,-2.369791269E-2,-5.490779877E-3
3.664241344E1,1.338624954E-2,4.706460238E-2,3.477334976E-2
3.714241344E1,-1.925992966E-2,-1.853770018E-2,-1.195573807E-2
3.764241344E1,-3.504419327E-2,-1.614558697E-2,6.634473801E-2
3.814241344E1,-1.276217461E0,1.645237952E-1,3.223396301E0
3.864241344E1,1.163104057E0,1.139829010E-1,-2.155022383E0
3.914241344E1,1.245487213E0,-1.429932266E-1,-3.154301643E0
3.964241344E1,1.104246140E0,-1.990251541E-1,-1.249677181E0
4.014241344E1,1.275475979E0,1.061270833E0,-1.212296486E0
4.064241344E1,7.166280746E-1,3.016395569E-1,-5.963644981E-1
4.114241344E1,6.504693031E-1,1.988136768E-2,-3.069772720E-1
4.164241344E1,5.263710022E-1,-5.677631497E-2,-3.673348427E-1
4.214241344E1,1.574020386E-1,6.723180413E-2,-7.511615753E-2
4.264241344E1,1.286730766E-1,-9.661823511E-3,-1.011252403E-1
4.314241344E1,4.420709610E-2,-1.921865344E-2,4.829978943E-2
4.364241344E1,-3.648900986E-2,-8.354240656E-2,-9.118318558E-2
4.414241344E1,4.563426971E-2,8.228623867E-2,-3.229951859E-2
4.464241344E1,-4.954338074E-2,-9.453520179E-2,1.197624207E-2
4.514241344E1,-8.492469788E-4,3.293478489E-2,1.267218590E-1
4.564241344E1,6.579017639E-2,-1.246069670E-1,-2.069640160E-1
4.614241344E1,2.149963379E-2,-1.337665319E-2,-2.452230453E-2
4.664241344E1,-2.432680130E-2,-2.492541075E-2,6.483554840E-2
4.714241344E1,-2.258968353E-2,-7.811188698E-4,-1.836204529E-2
4.764241344E1,-2.521133423E-2,-7.645308971E-3,-1.971244812E-3
4.814241344E1,-5.114555359E-3,-9.124696255E-3,-1.731443405E-2
4.864241344E1,9.560585022E-4,3.919619322E-2,9.867668152E-3
4.914241344E1,-2.250051498E-2,-2.890515327E-2,-5.076408386E-2
4.964241344E1,2.853155136E-2,4.175305367E-4,6.853055954E-2
5.014241344E1,4.007816315E-3,-4.682481289E-3,3.063058853E-2
5.064241344E1,1.358985901E-2,5.387067795E-3,-2.564859390E-2
5.114241344E1,-1.060247421E-2,-1.198112965E-3,-1.626968384E-3
5.164241344E1,2.675056458E-4,1.736128330E-2,9.552955627E-3
5.214241344E1,2.103233337E-2,-2.711898088E-2,4.553794861E-3
5.264241344E1,-4.477500916E-4,2.596181631E-2,6.759166718E-3
5.314241344E1,-1.006364822E-2,5.516469479E-3,-7.464408875E-3
5.364241344E1,8.863449097E-3,4.544675350E-3,6.772994995E-3
5.414241344E1,6.568908691E-3,1.899456978E-2,-1.651287079E-2
5.464241344E1,9.413242340E-3,-1.646476984E-2,-3.334999084E-3
5.514241344E1,7.234573364E-3,-1.614153385E-2,1.196718216E-2
5.564241344E1,2.338838577E-2,1.509946585E-2,-2.173089981E-2
5.614241344E1,-9.709835052E-3,6.526291370E-3,-1.755714417E-3
5.664241344E1,-5.029821396E-2,4.310667515E-3,6.471061707E-2
5.714241344E1,9.445238113E-2,8.911430836E-3,-4.877614975E-2
5.764241344E1,-1.339244843E-2,2.296024561E-2,-1.601171494E-2
5.814241344E1,-1.137495041E-2,3.406590223E-2,6.338357925E-2
5.864241344E1,-6.965160370E-3,-2.196484804E-2,-2.041339874E-2
5.914241344E1,8.156776428E-3,-9.008288383E-3,-3.587150574E-2
5.964241344E1,4.150533676E-2,1.819181442E-2,-3.118658066E-2
6.014241344E1,-4.283428192E-3,2.031415701E-2,8.850097656E-3
6.064241344E1,-4.653263092E-2,-2.838551998E-2,4.035758972E-2
6.114241344E1,-4.779052734E-2,8.015632629E-3,4.584598541E-2
6.164241344E1,4.929828644E-2,1.127475500E-2,-4.583168030E-2
6.214241344E1,6.284856796E-2,-7.579028606E-3,-5.390882492E-2
6.264241344E1,5.872249603E-3,-1.909428835E-2,-6.721019745E-3
6.314241344E1,1.196622849E-2,1.414507627E-2,1.326751709E-2
6.364241344E1,-3.730773926E-3,3.411173820E-4,-1.495075226E-2
6.414241344E1,-4.082489014E-2,3.018677235E-3,2.361965179E-2
6.464241344E1,1.166582108E-2,-2.551132441E-2,4.291534424E-6
6.514241344E1,1.198053360E-2,2.373397350E-2,-1.572036743E-2
6.564241344E1,1.609563828E-2,-7.458209991E-3,6.086349487E-3
6.614241344E1,-2.613019943E-2,-2.196866274E-2,7.988977432E-2
6.664241344E1,-2.063226700E-2,-3.532856703E-2,1.595973969E-2
6.714241344E1,4.422616959E-2,1.324850321E-2,-2.690744400E-2
6.764241344E1,1.109600067E-2,-2.602434158E-2,-5.691719055E-2
6.814241344E1,-2.942609787E-2,9.214460850E-3,6.000041962E-2
6.864241344E1,-8.066225052E-2,-1.790583134E-2,8.414077759E-2
6.914241344E1,-5.550699234E-1,5.966264009E-2,5.765142441E-1
6.964241344E1,3.370227814E-1,3.761852980E-1,-4.583239555E-1
7.014241344E1,5.021109581E-1,1.502830386E-1,-5.782370567E-1
7.064241344E1,2.217955589E-1,9.444183111E-2,-3.243103027E-1
7.114241344E1,7.190942764E-2,1.258015633E-2,2.125835419E-2
7.164241344E1,2.363967896E-2,-1.212787628E-2,-4.378890991E-2
7.214241344E1,5.355978012E-2,-1.125371456E-2,-1.381492615E-2
7.264241344E1,7.777595520E-2,-9.106159210E-3,-4.075479507E-2
7.314241344E1,-9.972572327E-3,4.534357786E-2,-2.058506012E-3
7.364241344E1,3.923320770E-2,1.647710800E-2,-5.542135239E-2
7.414241344E1,-5.077838898E-3,-1.602691412E-2,3.587913513E-2
7.464241344E1,-1.853609085E-2,-7.961571217E-3,1.806783676E-2
7.514241344E1,2.464580536E-2,-8.823335171E-3,-3.686380386E-2
7.564241344E1,4.285812378E-3,3.478944302E-3,7.546901703E-3
7.614241344E1,-1.485252380E-2,-4.246413708E-3,1.646280289E-2
7.664241344E1,-3.016185760E-2,-7.216155529E-3,1.496267319E-2
7.714241344E1,-3.022861481E-2,1.255339384E-2,1.187944412E-2
7.764241344E1,3.513383865E-2,-4.625320435E-5,-5.379629135E-2
7.814241344E1,-2.648830414E-3,-2.955079079E-3,-9.049892426E-3
7.864241344E1,-2.666568756E-2,1.843899488E-2,5.975580215E-2
7.914241344E1,-7.999420166E-3,-2.554714680E-3,-1.002216339E-2
7.964241344E1,1.183795929E-2,-5.873441696E-3,-2.124309540E-3
8.014241344E1,-1.245880127E-2,-2.037692070E-2,1.170539856E-2
8.064241344E1,2.235889435E-3,2.940714359E-3,8.303165436E-3
8.114241344E1,1.399374008E-2,-1.604080200E-2,3.380012512E-2
8.164241344E1,1.022243500E-2,-6.921231747E-3,-3.132534027E-2
8.214241344E1,1.346445084E-2,-5.353271961E-3,-1.350736618E-2
8.264241344E1,-1.654386520E-2,-2.006286383E-2,2.869939804E-2
8.314241344E1,1.497316360E-2,4.548966885E-3,1.366281509E-2
8.364241344E1,-6.227970123E-3,1.909738779E-2,-1.245975494E-2
8.414241344E1,-4.738807678E-3,5.292773247E-3,-7.172107697E-3
8.464241344E1,2.170038223E-2,-1.164007187E-2,1.196193695E-2
8.514241344E1,6.408691406E-4,-9.913444519E-4,-2.559232712E-2
8.564241344E1,-1.783847809E-2,1.489400864E-3,7.732868195E-3
8.614241344E1,5.679607391E-3,-4.261136055E-3,2.950286865E-2
8.664241344E1,4.648208618E-3,2.314567566E-3,-1.035356522E-2
8.714241344E1,2.431869507E-5,-1.365482807E-2,-8.255481720E-3
8.764241344E1,1.227855682E-3,1.323819160E-3,2.334165573E-2
8.814241344E1,1.856327057E-3,1.586353779E-2,-2.627372742E-4
8.864241344E1,1.926422119E-3,2.115106583E-2,1.352262497E-2
8.914241344E1,2.412767410E-1,2.120143771E-1,-5.409984589E-1
8.964241344E1,7.930631638E-1,4.532355964E-1,-1.086829662E0
9.014241344E1,2.225351334E-1,1.513023674E-1,-2.748675346E-1
9.064241344E1,8.040523529E-2,5.702254176E-2,-1.402120590E-1
9.114241344E1,5.513286591E-2,4.456052184E-2,-8.111429214E-2
9.164241344E1,1.649856567E-2,8.128345013E-3,-2.326154709E-2
9.214241344E1,3.943443298E-3,-2.130687237E-3,2.823638916E-2
9.264241344E1,-4.656791687E-3,-1.302421093E-3,-1.083230972E-2
9.314241344E1,7.209777832E-4,-5.378782749E-3,1.497602463E-2
9.364241344E1,3.774642944E-3,-2.480745316E-4,4.697322845E-3
9.414241344E1,8.602142334E-4,9.558260441E-3,1.549959183E-2
9.464241344E1,1.197338104E-2,-8.254170418E-3,-4.054546356E-3
9.514241344E1,-2.896308899E-3,1.146990061E-2,-2.818584442E-3
9.564241344E1,2.302169800E-3,-9.192407131E-3,-2.736568451E-3
9.614241344E1,-9.352684021E-3,2.413392067E-2,4.055023193E-2
9.664241344E1,-3.458976746E-3,-1.512616873E-2,2.092981339E-2
9.714241344E1,1.266193390E-2,5.925416946E-3,-1.141309738E-2
9.764241344E1,9.803771973E-4,2.089619637E-3,1.540803909E-2
9.814241344E1,3.254890442E-3,9.660720825E-4,-1.146936417E-2
9.864241344E1,-4.359245300E-3,-6.811320782E-3,-2.387523651E-3
9.914241344E1,-7.558822632E-3,6.751716137E-3,1.078081131E-2
9.964241344E1,-4.908561707E-3,-1.235347986E-2,-4.134178162E-4
1.001424134E2,-3.532409668E-3,-2.056735754E-2,5.276203156E-3
1.006424134E2,5.663871765E-3,-2.254366875E-3,-2.493381500E-3
1.011424134E2,1.462078094E-2,-2.009284496E-2,-6.434917450E-3
1.016424134E2,-4.405021667E-3,2.274751663E-2,3.693103790E-3
1.021424134E2,-1.278877258E-3,-1.001769304E-2,-1.473093033E-2
1.026424134E2,1.185035706E-2,3.803926706E-2,9.126186371E-3
1.031424134E2,-9.068393707E-2,-1.064421535E-1,1.649656296E-1
1.036424134E2,1.180998802E0,1.054530740E-1,-9.232263565E-1
1.041424134E2,-5.869340897E-1,-2.127439976E-1,2.564754486E-1
1.046424134E2,1.832866669E-1,-7.881022692E-1,-3.672466278E-1
1.051424134E2,1.635351181E-1,-6.933158636E-2,-5.282257795E-1
1.056424134E2,1.535873413E-1,-4.157403708E-1,-1.329872012E-1
1.061424134E2,4.013347626E-2,2.218205929E-1,-5.179178715E-1
1.066424134E2,1.159820557E-1,2.367922068E-1,-9.598879516E-2
1.071424134E2,-2.505111694E-2,6.661808491E-2,-1.656007916E-1
1.076424134E2,-2.503871918E-2,2.816629410E-2,4.648308456E-2
1.081424134E2,-3.501224518E-2,3.842937946E-2,-4.668755829E-1
1.086424134E2,-1.394939423E-2,-1.423621178E-2,1.021033525E-2
1.091424134E2,-2.315235138E-2,4.247450829E-2,-8.153209090E-2
1.096424134E2,-3.903388977E-3,-4.200577736E-3,4.515363276E-2
1.101424134E2,5.450248718E-3,1.901912689E-2,3.701491654E-2
1.106424134E2,7.845878601E-3,-2.111279964E-2,-7.960838079E-2
1.111424134E2,1.142501831E-3,7.842779160E-4,-1.426333189E-2
1.116424134E2,4.987716675E-4,1.096975803E-2,4.088401794E-3
1.121424134E2,-5.179405212E-3,7.629871368E-3,1.409642398E-2
1.126424134E2,3.119468689E-3,-1.437544823E-2,4.286050797E-3
1.131424134E2,-4.557609558E-3,-6.258249283E-3,5.715265870E-3
1.136424134E2,1.103496552E-2,-4.802227020E-3,1.098114252E-2
1.141424134E2,-2.045345306E-2,-4.538905621E-2,-1.247316599E-3
1.146424134E2,-1.529788971E-2,-5.198955536E-3,8.512243629E-3
1.151424134E2,3.362369537E-2,-5.478882790E-2,9.184420109E-3
1.156424134E2,1.742267609E-2,4.058933258E-2,1.270522177E-2
1.161424134E2,5.917549133E-3,-2.953028679E-2,1.248715818E-2
1.166424134E2,-4.896163940E-3,-1.279008389E-2,-1.580461860E-3
1.171424134E2,8.062362671E-3,8.604288101E-3,-2.716213465E-3
1.176424134E2,1.253890991E-2,-1.814842224E-3,2.430394292E-3
1.181424134E2,5.871772766E-3,-1.612067223E-2,-1.140138507E-2
1.186424134E2,-1.694774628E-2,-1.755738258E-2,-1.533327997E-2
1.191424134E2,1.512527466E-3,-3.542828560E-2,3.269761801E-3
1.196424134E2,-2.618503571E-2,-3.466343880E-2,-1.195558906E-2
1.201424134E2,-9.638786316E-3,2.969241142E-2,-1.582498252E-1
1.206424134E2,3.997135162E-2,1.261377335E-2,2.110061049E-2
1.211424134E2,-6.024360657E-3,-3.775835037E-3,-5.502104759E-4
1.216424134E2,7.332801819E-3,-1.163768768E-2,2.967521548E-2
1.221424134E2,-2.311897278E-2,-2.998352051E-3,4.087558389E-2
1.226424134E2,-2.639389038E-2,7.254362106E-3,1.980556548E-1
1.231424134E2,-1.398563385E-2,-7.031202316E-3,-3.392433524E-1
1.236424134E2,-1.401519775E-2,4.398798943E-2,-1.925278902E-1
1.241424134E2,1.044654846E-2,-4.459214211E-2,-5.918264389E-2
1.246424134E2,-5.681610107E-2,-2.848196030E-2,-2.070786357E-1
1.251424134E2,7.247829437E-2,1.801800728E-2,1.443837285E-1
1.256424134E2,-2.219104767E-2,6.814837456E-2,-1.584304571E-1
1.261424134E2,2.043628693E-2,-8.951830864E-2,-1.544567347E-1
1.266424134E2,1.491641998E-2,5.183148384E-2,7.237356901E-2
1.271424134E2,1.411247253E-2,1.837706566E-2,6.710332632E-2
1.276424134E2,-1.439571381E-2,5.462646484E-3,9.602248669E-3
1.281424134E2,2.259159088E-2,-4.977440834E-2,3.210330009E-2
1.286424134E2,1.367855072E-2,1.515913010E-2,9.117662907E-3
1.291424134E2,3.733634949E-3,-2.955651283E-2,1.861572266E-3
1.296424134E2,8.493423462E-3,1.024699211E-2,1.040512323E-2
1.301424134E2,-6.354331970E-3,2.861738205E-3,1.221626997E-2
1.306424134E2,-7.720947266E-3,-3.828978539E-2,-4.592120647E-3
1.311424134E2,-1.093006134E-2,6.758689880E-3,-8.546173573E-3
1.316424134E2,-5.221366882E-3,1.930594444E-2,-1.002877951E-2
1.321424134E2,-2.077388763E-2,-2.504348755E-3,-2.778691053E-2
1.326424134E2,2.225399017E-2,3.188681602E-2,6.162464619E-3
1.331424134E2,8.351325989E-3,2.428317070E-2,1.032674313E-2
1.336424134E2,-1.659393311E-3,-1.130366325E-2,-2.734851837E-2
1.341424134E2,-3.325939178E-2,-3.850388527E-2,-6.694674492E-3
1.346424134E2,3.546524048E-2,8.524632454E-2,-1.294863224E-2
1.351424134E2,-2.173233032E-2,-9.761381149E-2,1.395076513E-2
1.356424134E2,2.536869049E-2,7.937979698E-2,-3.089833260E-2
1.361424134E2,-1.427173615E-2,-1.090285778E-1,2.475258708E-2
1.366424134E2,4.597187042E-2,8.703970909E-2,-1.431936026E-2
1.371424134E2,-2.258586884E-2,-9.654808044E-2,1.111370325E-2
1.376424134E2,2.494907379E-2,3.872084618E-2,-1.605165005E-2
1.381424134E2,-2.052593231E-2,-4.388451576E-2,8.086532354E-3
1.386424134E2,-1.885986328E-2,2.340555191E-2,-2.534994483E-2
1.391424134E2,-9.198188782E-3,-4.380702972E-3,7.009536028E-3
1.396424134E2,1.128578186E-2,3.983044624E-2,3.327769041E-2
1.401424134E2,1.686763763E-2,-4.059100151E-2,5.592808127E-2
1.406424134E2,2.659130096E-2,4.350495338E-2,-1.419772506E-1
1.411424134E2,1.009464264E-2,-1.207232475E-2,6.456133723E-2
1.416424134E2,5.770206451E-2,2.620720863E-2,-3.100684285E-2
1.421424134E2,-1.964473724E-2,-3.009724617E-2,-8.312433958E-3
1.426424134E2,1.266956329E-2,-3.993988037E-3,-6.355026364E-2
1.431424134E2,-4.618930817E-2,-2.887606621E-2,7.314321399E-2
1.436424134E2,-2.403926849E-2,2.066779137E-2,2.966377139E-2
1.441424134E2,8.620262146E-3,-4.135465622E-2,-5.217999220E-3
1.446424134E2,1.147174835E-2,2.028894424E-2,1.771143079E-2
1.451424134E2,-1.335144043E-4,-1.427054405E-2,2.768877149E-2
1.456424134E2,2.375316620E-2,-2.712273598E-2,1.556551456E-2
1.461424134E2,-1.469612122E-3,1.346087456E-2,-1.758909225E-2
1.466424134E2,-3.388214111E-2,-4.357933998E-2,8.729726076E-3
1.471424134E2,1.749038696E-3,-1.192975044E-2,-2.996504307E-2
1.476424134E2,5.435180664E-2,3.789472580E-2,3.160685301E-3
1.481424134E2,-1.848888397E-2,-4.135656357E-2,-4.844367504E-4
1.486424134E2,1.874637604E-2,-1.559948921E-2,8.715689182E-4
1.491424134E2,2.413749695E-2,2.007174492E-2,-6.063282490E-3
1.496424134E2,-1.907062531E-2,-3.733944893E-2,5.328387022E-3
1.501424134E2,-1.680088043E-2,-1.225590706E-2,-1.748263836E-3
1.506424134E2,-3.889846802E-2,-2.857208252E-3,-2.520158887E-2
1.511424134E2,-2.885341644E-2,-2.628087997E-3,1.286090910E-2
1.516424134E2,1.091575623E-2,-1.988816261E-2,1.744809747E-2
1.521424134E2,2.175426483E-2,4.985404015E-2,-1.129582524E-3
1.526424134E2,4.350566864E-2,-4.573130608E-2,5.541755259E-2
1.531424134E2,5.640125275E-2,4.730916023E-2,8.092528582E-2
1.536424134E2,-2.690315247E-2,-2.052664757E-2,-5.610615015E-3
1.541424134E2,5.047798157E-3,4.677295685E-2,-7.014879584E-2
1.546424134E2,1.084232330E-2,-1.848030090E-2,2.007235587E-2
1.551424134E2,3.477096558E-3,3.772735596E-2,5.068294704E-2
1.556424134E2,1.969242096E-2,-4.435467720E-2,3.686562181E-3
1.561424134E2,1.146030426E-2,4.688644409E-2,2.318778634E-2
1.566424134E2,3.958415985E-2,-7.132935524E-2,6.848752499E-2
1.571424134E2,4.904079437E-2,5.420255661E-2,-1.157706156E-1
1.576424134E2,-4.052829742E-2,-1.312422752E-2,1.135989949E-1
1.581424134E2,2.438259125E-2,1.223509312E-1,4.416815937E-3
1.586424134E2,3.705406189E-2,-2.046582699E-1,-8.102400601E-2
1.591424134E2,-6.399154663E-2,1.348557472E-1,-6.211258471E-2
1.596424134E2,-9.852409363E-3,1.358375549E-1,3.983597159E-1
1.601424134E2,1.060438156E-1,-1.373224258E-1,-6.775060892E-1
1.606424134E2,7.771492004E-3,-2.772521973E-2,-3.418159783E-1
1.611424134E2,-2.976417542E-3,-1.144695282E-2,-8.535921574E-3
1.616424134E2,-5.609512329E-3,-1.927828789E-2,4.783287644E-2
1.621424134E2,-1.634693146E-2,-2.712321281E-2,-8.511720598E-2
1.626424134E2,-7.605552673E-3,-3.124284744E-2,-7.888623327E-2
1.631424134E2,-4.012775421E-2,6.115365028E-2,7.373878360E-2
1.636424134E2,-3.731155396E-2,2.922654152E-2,4.444387555E-2
1.641424134E2,2.083587646E-2,-6.079912186E-3,-8.556753397E-3
1.646424134E2,4.808425903E-2,3.216338158E-2,-4.853792489E-2
1.651424134E2,5.705833435E-3,-2.855372429E-2,-5.299858004E-2
1.656424134E2,3.331470490E-2,2.795457840E-3,9.751303494E-2
1.661424134E2,-2.959251404E-3,9.163141251E-3,-3.779688850E-3
1.666424134E2,-1.481723785E-2,4.513740540E-3,-7.125594467E-2
1.671424134E2,-3.156661987E-4,5.513668060E-3,-1.163673401E-2
1.676424134E2,7.561683655E-3,-2.061438560E-2,-4.721333832E-2
1.681424134E2,1.596927643E-2,9.419441223E-3,-4.092872143E-3
1.686424134E2,-1.510524750E-2,-1.102280617E-2,3.119035438E-2
1.691424134E2,1.295375824E-2,1.310658455E-2,3.410682082E-2
1.696424134E2,8.948326111E-3,1.056170464E-2,6.669862568E-2
1.701424134E2,-2.274227142E-2,-3.092932701E-2,3.334111348E-2
1.706424134E2,2.920150757E-3,7.353544235E-3,2.058748528E-2
1.711424134E2,-2.016544342E-2,-1.823115349E-2,1.444381662E-3
1.716424134E2,2.005577087E-3,1.692557335E-2,-4.408583045E-2
1.721424134E2,1.266384125E-2,-4.468488693E-2,-2.357107401E-2
1.726424134E2,2.079391479E-2,2.564692497E-2,6.890819222E-2
1.731424134E2,2.737998962E-3,-1.266098022E-2,9.191544354E-2
1.736424134E2,3.571510315E-3,1.581978798E-2,-3.368985653E-2
1.741424134E2,-8.299827576E-3,4.451751709E-3,-7.179737091E-3
1.746424134E2,1.433658600E-2,1.972913742E-2,1.030896977E-1
1.751424134E2,1.272201538E-2,-5.963325500E-3,1.029821038E-1
1.756424134E2,3.645896912E-3,5.347013474E-2,1.112773269E-2
1.761424134E2,-5.731582642E-4,-1.972413063E-2,-2.420164645E-2
1.766424134E2,6.506919861E-3,9.065389633E-3,1.227256656E-2
1.771424134E2,-1.270961761E-2,-4.902172089E-2,9.426355362E-3
1.776424134E2,1.472759247E-2,1.985430717E-2,2.224123850E-2
1.781424134E2,4.646301270E-3,-1.410627365E-2,1.218682528E-2
1.786424134E2,-1.334190369E-3,-2.425432205E-3,-7.238179445E-3
1.791424134E2,6.888389587E-3,-2.131867409E-2,-1.859064400E-2
1.796424134E2,1.061439514E-3,5.000591278E-3,7.461652160E-3
1.801424134E2,-1.111316681E-2,-7.725477219E-3,9.144604206E-3
1.806424134E2,2.606391907E-3,6.219625473E-3,-3.596134484E-3
1.811424134E2,1.386547089E-2,1.473522186E-2,-1.195721328E-3
1.816424134E2,4.331588745E-3,1.056432724E-3,-4.427991807E-3
1.821424134E2,5.876541138E-3,-5.992650986E-3,-6.344258785E-3
1.826424134E2,2.507209778E-3,4.914522171E-3,3.373347223E-3
1.831424134E2,1.283836365E-2,4.488706589E-3,2.168424428E-3
1.836424134E2,-1.923561096E-3,9.706497192E-3,-1.103132963E-2
1.841424134E2,8.255958557E-3,1.148152351E-2,-3.474456072E-2
1.846424134E2,6.350517273E-3,2.399325371E-2,5.457738414E-2
1.851424134E2,5.951881409E-3,-8.562684059E-3,2.612541616E-2
1.856424134E2,4.040718079E-3,4.434943199E-3,-9.014898539E-2
1.861424134E2,2.902030945E-3,3.364562988E-2,1.913560554E-3
1.866424134E2,-2.522468567E-3,2.208948135E-3,4.389729351E-2
1.871424134E2,-1.968669891E-2,1.386773586E-2,5.109459162E-4
1.876424134E2,-8.393287659E-3,8.836984634E-4,-5.022319406E-2
1.881424134E2,-1.931190491E-3,1.281583309E-2,-3.525584936E-3
1.886424134E2,3.604888916E-3,-5.767941475E-3,3.500721604E-2
1.891424134E2,1.313209534E-3,1.846587658E-2,-2.909153700E-4
1.896424134E2,-9.461402893E-3,-2.489674091E-2,-2.184496820E-2
1.901424134E2,5.080223083E-3,2.009832859E-2,2.231925726E-3
1.906424134E2,-4.904747009E-3,-2.744972706E-2,6.733468175E-2
1.911424134E2,6.361007690E-3,1.802682877E-2,2.743694186E-2
1.916424134E2,-5.095481873E-3,-2.512586117E-2,-5.566246808E-2
1.921424134E2,-1.029682159E-2,3.685653210E-2,7.746434957E-2
1.926424134E2,-4.667282104E-3,-3.316164017E-3,-5.486600846E-2
1.931424134E2,-4.180908203E-3,-1.089143753E-2,2.611246705E-2
1.936424134E2,3.137588501E-4,-6.010770798E-3,6.407350302E-4
1.941424134E2,-2.359390259E-3,-5.115866661E-3,-4.157639295E-2
1.946424134E2,-8.063316345E-3,3.175735474E-3,-2.412594855E-2
1.951424134E2,-1.410770416E-2,1.003825665E-2,1.645277441E-2
1.956424134E2,2.861976624E-3,-1.885581017E-2,1.512126625E-2
1.961424134E2,2.795219421E-3,1.269340515E-3,-1.989673078E-2
1.966424134E2,-2.949714661E-3,8.307337761E-3,-2.716393769E-2
1.971424134E2,3.423690796E-4,1.425385475E-3,-4.218205810E-3
1.976424134E2,2.660751343E-4,-1.399397850E-3,-4.326865077E-3
1.981424134E2,3.795623779E-4,3.037691116E-3,-4.478898644E-2
1.986424134E2,-9.431838989E-4,-1.149559021E-2,-5.673868954E-2
1.991424134E2,8.502006531E-3,2.281188965E-3,-4.143950343E-2
1.996424134E2,9.886741638E-3,-2.804994583E-3,-2.365231514E-2
2.001424134E2,-7.757186890E-3,9.112477303E-3,-1.710522920E-2
2.006424134E2,4.893302917E-3,-1.295042038E-2,-3.980632126E-2
2.011424134E2,-4.710197449E-3,6.425380707E-4,-1.987017691E-2
2.016424134E2,-1.066970825E-2,-1.118862629E-2,-1.821373403E-2
2.021424134E2,3.294944763E-3,-2.640128136E-3,-2.468340099E-2
2.026424134E2,5.929946899E-3,5.792379379E-3,-1.409408450E-2
2.031424134E2,-1.689910889E-3,3.338932991E-3,-8.980900049E-3
2.036424134E2,-7.801055908E-4,-1.549959183E-3,-2.291342616E-2
2.041424134E2,2.461433411E-3,1.936316490E-3,-4.656702280E-3
2.046424134E2,1.266479492E-3,1.964569092E-4,-7.185548544E-3
2.051424134E2,9.377479553E-3,1.870512962E-3,-1.057511568E-2
2.056424134E2,-8.039474487E-4,-1.996636391E-3,-4.902184010E-4
2.061424134E2,2.062797546E-3,3.605008125E-3,-2.410918474E-3
2.066424134E2,5.734443665E-3,2.022981644E-4,-7.995933294E-3
2.071424134E2,1.203536987E-3,1.021742821E-3,-2.262234688E-3
2.076424134E2,-1.218795776E-3,2.366662025E-3,-3.985166550E-3
2.081424134E2,-4.031181335E-3,1.327991486E-3,-1.059725881E-2
2.086424134E2,-2.644538879E-3,-1.296997070E-3,-1.107403636E-2
2.091424134E2,9.717941284E-4,1.405596733E-3,8.991658688E-4
2.096424134E2,-5.311965942E-3,-3.919363022E-3,-1.255881786E-2
2.101424134E2,-5.455017090E-4,-2.691388130E-3,-6.086915731E-3
2.106424134E2,-5.960464478E-4,1.080751419E-3,-7.880449295E-3
2.111424134E2,-8.261680603E-3,9.102821350E-4,-2.442437410E-2
2.116424134E2,-5.617141724E-4,-6.068944931E-4,-1.119434834E-2
2.121424134E2,-3.483772278E-3,-1.055490971E-2,3.727188706E-2
2.126424134E2,1.719951630E-2,9.209632874E-3,9.584684670E-2
2.131424134E2,1.165390015E-3,-1.570105553E-3,9.617160261E-2
2.136424134E2,-1.500129700E-3,1.885056496E-3,2.772836387E-2
2.141424134E2,1.988410950E-3,7.216334343E-3,2.682738006E-2
2.146424134E2,2.489089966E-4,3.187656403E-3,1.156996191E-2
2.151424134E2,-5.750656128E-4,-3.729581833E-3,-1.168459654E-3
2.156424134E2,-7.905960083E-4,-6.529092789E-4,-2.040624619E-3
2.161424134E2,4.148483276E-4,1.792192459E-3,2.836555243E-3
2.166424134E2,-5.817413330E-5,2.971529961E-3,2.521753311E-3
2.171424134E2,-1.297950745E-3,-2.745389938E-4,1.833498478E-3
2.176424134E2,-6.065368652E-4,8.682012558E-4,-2.990633249E-3
2.181424134E2,6.484985352E-5,-1.566171646E-3,2.229020000E-3
2.186424134E2,-8.869171143E-4,5.081892014E-4,-1.942232251E-3
2.191424134E2,-3.118515015E-4,1.522302628E-4,-2.664163709E-3
2.196424134E2,5.912780762E-4,1.630425453E-3,5.995184183E-4
2.201424134E2,-2.140998840E-3,2.161979675E-3,1.773133874E-3
2.206424134E2,-6.475448608E-4,1.694560051E-3,2.450823784E-3
2.211424134E2,-1.090049744E-3,1.561641693E-5,-1.658529043E-3
2.216424134E2,-1.211166382E-4,-2.549290657E-3,-2.229541540E-3
2.221424134E2,6.246566772E-4,3.559589386E-4,2.811700106E-4
2.226424134E2,-1.287460327E-4,-2.330660820E-3,2.291187644E-3
2.231424134E2,6.160736084E-4,-5.742311478E-4,-6.595849991E-4
2.236424134E2,4.549026489E-4,2.019762993E-3,-2.868086100E-3
2.241424134E2,1.967430115E-3,2.239346504E-3,-1.078898460E-1
2.246424134E2,-4.502296448E-3,-4.448294640E-3,9.554547071E-2
2.251424134E2,2.015113831E-3,-7.240176201E-3,7.716751099E-2
2.256424134E2,4.748344421E-3,1.509749889E-2,-5.841284990E-2
2.261424134E2,2.278327942E-3,-9.286999702E-3,-2.424877882E-2
2.266424134E2,1.375198364E-3,-5.166649818E-3,2.415901423E-2
2.271424134E2,-1.538276672E-3,8.046030998E-3,-1.252174377E-3
2.276424134E2,5.448341370E-3,-2.121603489E-2,-1.808136702E-2
2.281424134E2,-9.723663330E-3,1.656591892E-2,3.886628151E-2
2.286424134E2,1.049041748E-5,-4.062652588E-4,-9.131729603E-3
2.291424134E2,3.938674927E-4,2.835273743E-3,-3.244698048E-3
2.296424134E2,-3.490447998E-4,1.914262772E-3,-1.826643944E-3
2.301424134E2,-3.204345703E-4,-1.463770866E-3,5.964636803E-4
2.306424134E2,-2.641677856E-4,-3.555059433E-3,4.023373127E-3
2.311424134E2,1.896858215E-3,-1.870989799E-3,-1.600229740E-2
2.316424134E2,1.069068909E-3,-1.123309135E-3,-2.963066101E-3
2.321424134E2,1.412391663E-3,-1.192569733E-3,-2.150952816E-3
2.326424134E2,1.440048218E-4,1.480102539E-3,-1.715600491E-3
2.331424134E2,2.374649048E-4,-4.718065262E-3,-4.009842873E-3
2.336424134E2,-6.780624390E-4,-2.279043198E-3,2.790278196E-2
2.341424134E2,4.205703735E-4,-4.211664200E-4,-6.436526775E-3
2.346424134E2,7.898330688E-3,-1.817929745E-2,-2.806669474E-2
2.351424134E2,1.032161713E-2,1.150619984E-2,9.048384428E-2
2.356424134E2,-1.308822632E-2,-2.733063698E-2,2.328013182E-1
2.361424134E2,-2.700042725E-2,1.317346096E-2,2.394827604E-1
2.366424134E2,-4.567146301E-3,1.398503780E-2,1.149647832E-1
2.371424134E2,1.440143585E-2,-1.785373688E-2,-1.025713682E-1
2.376424134E2,6.185531616E-3,-7.155537605E-3,-1.910668612E-2
2.381424134E2,1.754760742E-4,-4.488706589E-3,-5.731046200E-3
2.386424134E2,2.120018005E-3,5.381941795E-3,-1.336687803E-2
2.391424134E2,4.246711731E-3,2.170801163E-4,-8.768439293E-3
2.396424134E2,-1.288414001E-3,2.017140388E-3,-3.928482533E-3
2.401424134E2,-3.951072693E-3,2.692937851E-4,7.079839706E-4
2.406424134E2,7.998466492E-3,4.842281342E-4,-2.274096012E-3
2.411424134E2,3.404617310E-4,4.454851151E-4,-2.876460552E-3
2.416424134E2,1.360893250E-3,-2.201914787E-3,-1.044976711E-2
2.421424134E2,8.417129517E-3,9.770393372E-4,-6.972789764E-3
2.426424134E2,6.184577942E-3,-1.267433167E-3,-9.207665920E-3
2.431424134E2,5.206108093E-3,5.657076836E-3,4.247486591E-3
2.436424134E2,-3.615379333E-3,-7.977485657E-4,1.935362816E-4
2.441424134E2,2.306938171E-3,6.284594536E-3,4.785180092E-3
2.446424134E2,-1.927375793E-3,-2.225041389E-3,1.747667789E-3
2.451424134E2,7.658004761E-4,-4.379272461E-3,2.791941166E-3
2.456424134E2,-7.541656494E-3,-8.290648460E-3,1.595914364E-3
2.461424134E2,6.370544434E-3,5.031824112E-3,4.173874855E-3
2.466424134E2,-3.535270691E-3,-1.226651669E-2,6.436586380E-3
2.471424134E2,-1.034164429E-2,4.880189896E-3,1.607441902E-2
2.476424134E2,-8.070945740E-3,-5.067110062E-3,1.400709152E-4
2.481424134E2,4.448890686E-3,1.063764095E-2,8.283197880E-3
2.486424134E2,-4.261970520E-3,-8.436322212E-3,1.561826468E-2
2.491424134E2,1.222610474E-3,2.277803421E-2,1.112145185E-2
2.496424134E2,-1.368236542E-2,-4.828238487E-2,1.676219702E-2
2.501424134E2,-1.335048676E-2,-1.189589500E-3,8.744299412E-3
2.506424134E2,-3.579139709E-3,-7.550597191E-3,1.226007938E-3
2.511424134E2,-1.522159576E-2,-1.115465164E-2,1.616305113E-2
2.516424134E2,-1.840209961E-2,4.242181778E-3,7.615923882E-3
2.521424134E2,-1.435089111E-2,-1.335477829E-2,2.157235146E-2
2.526424134E2,4.231452942E-3,-1.649737358E-3,8.521616459E-3
2.531424134E2,-2.582931519E-2,5.667567253E-3,-1.227378845E-3
2.536424134E2,-2.965068817E-2,1.411461830E-2,8.009016514E-3
2.541424134E2,1.244869232E-1,-5.672895908E-2,1.969379187E-2
2.546424134E2,8.321189880E-2,3.884088993E-2,-6.837129593E-3
2.551424134E2,3.612232208E-2,-5.199313164E-3,3.855818510E-2
2.556424134E2,3.821372986E-3,-2.940511703E-2,-3.764867783E-3
2.561424134E2,8.019542694E-2,5.056297779E-2,3.331452608E-2
2.566424134E2,3.883552551E-2,-8.593380451E-2,-8.617639542E-4
2.571424134E2,2.074909210E-2,2.937722206E-2,4.297608137E-2
2.576424134E2,-3.269681931E-1,-3.221797943E-2,-4.266440868E-2
2.581424134E2,3.999328613E-2,-3.469860554E-2,-1.325881481E-2
2.586424134E2,-7.077217102E-2,-5.134916306E-2,-1.589666903E-1
2.591424134E2,3.151798248E-2,3.545069695E-2,-2.557830513E-1
2.596424134E2,8.230209351E-4,-4.259002209E-2,-8.374410868E-2
2.601424134E2,5.610466003E-3,1.719629765E-2,-4.467383027E-2
2.606424134E2,2.067661285E-2,2.119159698E-2,-7.894039154E-4
2.611424134E2,2.876281738E-2,1.169666052E-1,-2.907785773E-2
2.616424134E2,-1.866245270E-2,5.914509296E-2,3.419315815E-2
2.621424134E2,-1.096658707E-1,1.822726727E-1,-3.210091591E-2
2.626424134E2,4.485130310E-3,1.062188148E-1,-2.136477828E-2
2.631424134E2,5.282115936E-2,8.931195736E-2,-1.691865921E-2
2.636424134E2,6.031513214E-2,1.260176897E-1,-7.581502199E-2
2.641424134E2,3.704071045E-3,2.164025307E-1,-7.153356075E-2
2.646424134E2,-6.454753876E-2,9.902584553E-2,-4.371410608E-2
2.651424134E2,-1.182985306E-1,7.715177536E-2,-8.470892906E-2
2.656424134E2,3.715705872E-2,-1.400066614E-1,-1.577198505E-2
2.661424134E2,-6.237983704E-2,-1.072711945E-1,-4.286539555E-2
2.666424134E2,1.983261108E-2,-1.803015471E-1,7.819533348E-3
2.671424134E2,2.869606018E-3,-1.524447203E-1,-3.020584583E-2
2.676424134E2,7.824516296E-2,-6.160497665E-2,2.502661943E-2
2.681424134E2,-3.193569183E-2,-1.013833284E-1,-4.899722338E-2
2.686424134E2,3.419589996E-2,-2.545928955E-2,-2.668118477E-2
2.691424134E2,1.078701019E-2,-7.970011234E-2,1.343089342E-2
2.696424134E2,-1.900959015E-2,5.557656288E-2,-4.920691252E-2
2.701424134E2,5.743980408E-3,1.973390579E-3,1.036888361E-2
2.706424134E2,2.269268036E-2,5.402505398E-2,-9.828701615E-2
2.711424134E2,6.462097168E-2,-5.766832829E-2,3.128477931E-2
2.716424134E2,-8.583068848E-6,2.449619770E-2,-8.231312037E-2
2.721424134E2,8.630752563E-4,-1.808130741E-2,5.009773374E-2
2.726424134E2,-9.779930115E-3,-5.631613731E-2,1.525983214E-3
2.731424134E2,1.535415649E-4,-1.655817032E-4,-1.213403419E-2
2.736424134E2,1.336574554E-2,-6.726026535E-3,1.631623954E-1
2.741424134E2,2.585411072E-2,-3.380167484E-2,1.078822166E-1
2.746424134E2,-6.253051758E-2,-3.732323647E-2,-6.352242827E-2
2.751424134E2,-5.745887756E-2,3.647935390E-2,-3.792361170E-2
2.756424134E2,1.445293427E-2,-5.061233044E-2,1.967951655E-3
2.761424134E2,2.298831940E-2,1.877319813E-2,-2.663972974E-2
2.766424134E2,-3.174304962E-2,-2.876508236E-2,-2.127414942E-2
2.771424134E2,-3.689098358E-2,-1.337850094E-2,-1.761037111E-2
2.776424134E2,-1.961612701E-2,-9.790658951E-4,4.547536373E-4
2.781424134E2,-1.686191559E-2,-4.471182823E-2,-3.625154495E-3
2.786424134E2,-1.647567749E-2,8.989453316E-3,7.610366493E-2
2.791424134E2,-1.359272003E-2,1.318693161E-3,-1.153615117E-2
2.796424134E2,1.466846466E-2,6.101131439E-2,-3.642195463E-2
2.801424134E2,6.811428070E-2,2.164578438E-2,-2.582056820E-2
2.806424134E2,-6.802558899E-3,-2.257478237E-2,2.275190502E-2
2.811424134E2,-3.454685211E-2,2.079272270E-2,3.558734804E-2
2.816424134E2,1.440906525E-2,-4.861605167E-2,-1.517714560E-2
2.821424134E2,6.927490234E-3,6.714510918E-2,2.180039883E-4
2.826424134E2,-1.305770874E-2,-1.974117756E-2,4.787847400E-3
2.831424134E2,-6.878852844E-3,8.327245712E-2,-3.828227520E-3
2.836424134E2,-5.325794220E-2,-5.410337448E-2,-2.236111462E-2
2.841424134E2,2.544403076E-3,3.763496876E-2,-5.398342013E-2
2.846424134E2,-2.448749542E-2,-5.487906933E-2,9.014712274E-2
2.851424134E2,-4.537677765E-2,-4.735589027E-3,5.550027639E-2
2.856424134E2,-4.978752136E-2,5.198001862E-3,-1.308182925E-1
2.861424134E2,9.161949158E-3,9.412765503E-4,-3.661312163E-3
2.866424134E2,8.731842041E-3,-1.606380939E-2,-4.172241688E-2
2.871424134E2,2.408504486E-2,1.606822014E-3,3.961393237E-2
2.876424134E2,-2.027130127E-2,3.476905823E-2,-1.458356157E-2
2.881424134E2,-5.213737488E-3,-3.901898861E-2,-4.031575471E-2
2.886424134E2,-1.646900177E-2,2.314126492E-2,-1.629593968E-2
2.891424134E2,1.051425934E-2,-3.419518471E-3,-1.349136233E-3
2.896424134E2,2.875995636E-2,-4.971027374E-3,3.424510360E-3
2.901424134E2,-2.169895172E-2,9.153485298E-3,-1.014217734E-2
2.906424134E2,-1.312923431E-2,-4.142534733E-2,-9.035676718E-3
2.911424134E2,-1.899719238E-3,2.041316032E-2,4.201104492E-2
2.916424134E2,1.005649567E-2,-1.699149609E-2,5.375198647E-2
2.921424134E2,2.071380615E-2,-6.023859978E-2,-4.055507481E-2
2.926424134E2,-3.036212921E-2,9.300351143E-3,-1.295433939E-1
2.931424134E2,4.555702209E-2,-6.672263145E-3,-3.157851845E-2
2.936424134E2,3.499031067E-3,1.015090942E-2,7.306373119E-2
2.941424134E2,-4.041004181E-2,-8.223950863E-2,-5.598543212E-4
2.946424134E2,1.999187469E-2,-3.030502796E-2,-9.754338115E-2
2.951424134E2,-7.397651672E-3,-6.666111946E-2,-2.883181721E-2
2.956424134E2,3.453159332E-2,-5.749630928E-2,6.471205503E-2
2.961424134E2,5.784034729E-3,-1.343166828E-2,9.356451780E-2
2.966424134E2,-2.019023895E-2,-1.112008095E-2,3.224068508E-2
2.971424134E2,-2.313613892E-2,5.537748337E-2,-6.365864724E-2
2.976424134E2,-2.681255341E-2,-7.826042175E-2,7.345807552E-2
2.981424134E2,3.247928619E-2,-4.730224609E-4,-1.907851547E-3
2.986424134E2,3.465747833E-2,9.677052498E-3,6.566196680E-5
2.991424134E2,-2.709197998E-2,5.067014694E-2,-1.204276830E-1
2.996424134E2,5.606651306E-2,5.598545074E-2,1.613069326E-3
3.001424134E2,-3.371047974E-2,3.324520588E-2,3.244342655E-2
3.006424134E2,-3.429412842E-3,6.451547146E-2,-9.322596714E-3
3.011424134E2,-2.678203583E-2,4.394888878E-2,-1.271826401E-2
3.016424134E2,-2.282047272E-2,4.189145565E-2,-5.241536349E-2
3.021424134E2,1.871776581E-2,-1.139879227E-3,-1.991987228E-4
3.026424134E2,-1.033496857E-2,-2.350723743E-2,4.540740326E-2
3.031424134E2,-3.764152527E-3,1.101040840E-2,3.986032307E-2
3.036424134E2,-3.313732147E-2,-5.670058727E-2,-9.955941141E-2
3.041424134E2,-9.164810181E-4,-6.364941597E-3,1.605346799E-3
3.046424134E2,8.045196533E-3,2.751445770E-2,-1.230865717E-3
3.051424134E2,1.679611206E-2,-5.570602417E-2,-2.730724216E-2
3.056424134E2,-3.736400604E-2,-2.385222912E-2,-2.522307634E-2
3.061424134E2,1.581668854E-2,7.576942444E-3,-4.584059119E-2
3.066424134E2,-2.305698395E-2,1.155960560E-2,-3.106808662E-2
3.071424134E2,1.043224335E-2,-1.934897900E-2,-2.208587527E-2
3.076424134E2,9.867668152E-3,5.178451538E-4,-1.815855503E-2
3.081424134E2,1.489734650E-2,-1.371955872E-2,-5.222022533E-3
3.086424134E2,7.540702820E-3,-2.100658417E-2,-1.367157698E-2
3.091424134E2,1.479053497E-2,-3.139579296E-2,-1.258951426E-2
3.096424134E2,2.776050568E-2,-8.919358253E-3,-1.908618212E-2
3.101424134E2,3.233909607E-2,-1.059297323E-1,6.504178047E-3
3.106424134E2,1.939105988E-2,-6.870508194E-2,-2.390980721E-2
3.111424134E2,-1.037883759E-2,-5.948615074E-2,9.416401386E-3
3.116424134E2,5.019187927E-3,-3.470063210E-3,-1.262778044E-2
3.121424134E2,2.329444885E-2,2.750122547E-2,-1.287966967E-2
3.126424134E2,-1.143455505E-3,-4.330217838E-2,9.984910488E-3
3.131424134E2,-3.907203674E-3,-1.904428005E-2,-1.501381397E-3
3.136424134E2,-1.542282104E-2,1.562225819E-2,-2.349269390E-2
3.141424134E2,1.564025879E-2,4.997980595E-2,7.911682129E-3
3.146424134E2,7.658004761E-4,-6.131350994E-2,-3.107744455E-2
3.151424134E2,2.567958832E-2,2.670872211E-2,-3.483027220E-2
3.156424134E2,2.164840698E-4,-1.973581314E-2,-2.475231886E-2
3.161424134E2,-1.676464081E-2,-6.954824924E-2,-6.444633007E-3
3.166424134E2,9.070396423E-3,1.695202589E-1,-5.093878508E-2
3.171424134E2,-1.044273376E-2,1.813113689E-2,1.490831375E-3
3.176424134E2,-1.265430450E-2,3.384506702E-2,6.078243256E-3
3.181424134E2,-1.302051544E-2,-1.322126389E-2,-1.487106085E-2
3.186424134E2,-1.984882355E-2,7.938027382E-2,-7.715642452E-3
3.191424134E2,1.479434967E-2,-2.989637852E-2,-1.816743612E-2
3.196424134E2,-1.698017120E-2,4.143750668E-2,-1.190668344E-2
3.201424134E2,-9.399414062E-3,2.419865131E-2,-5.243241787E-3
3.206424134E2,4.968643188E-3,1.858472824E-2,8.628308773E-3
3.211424134E2,1.200675964E-3,3.836119175E-2,1.840293407E-3
3.216424134E2,-1.067638397E-2,2.058398724E-2,4.610836506E-3
3.221424134E2,8.971214294E-3,-5.166530609E-4,-5.921721458E-3
3.226424134E2,1.012992859E-2,8.391022682E-3,2.455514669E-2
3.231424134E2,4.358291626E-4,2.483248711E-3,-6.852746010E-4
3.236424134E2,1.891231537E-2,-4.186034203E-3,-4.285037518E-3
3.241424134E2,5.166053772E-3,1.639580727E-2,2.444386482E-4
3.246424134E2,-4.737854004E-3,-2.776753902E-2,-6.620621681E-2
3.251424134E2,5.439758301E-3,7.819771767E-3,-1.467573643E-2
3.256424134E2,1.031398773E-2,2.616405487E-3,4.515707493E-3
3.261424134E2,-2.344131470E-3,-1.101326942E-2,1.808506250E-2
3.266424134E2,3.947257996E-3,9.749770164E-3,-7.066845894E-3
3.271424134E2,-5.934715271E-3,-4.535675049E-3,-9.755194187E-3
3.276424134E2,1.114654541E-2,-1.353025436E-4,-1.967817545E-2
3.281424134E2,9.784698486E-4,-1.060569286E-2,-6.520628929E-3
3.286424134E2,-3.033638000E-3,8.508205414E-3,-8.827567101E-3
3.291424134E2,2.173423767E-3,-3.581881523E-3,2.210497856E-3
3.296424134E2,-1.420688629E-2,-6.829857826E-3,-8.618772030E-3
3.301424134E2,-3.623962402E-3,6.997823715E-3,-6.360113621E-3
3.306424134E2,8.118629456E-3,-3.535270691E-3,1.055300236E-3
3.311424134E2,-1.008605957E-2,2.732276917E-3,1.256430149E-2
3.316424134E2,-3.955841064E-3,-1.162052155E-3,-1.680850983E-4
3.321424134E2,1.256942749E-3,1.396298409E-3,5.183219910E-4
3.326424134E2,4.250526428E-3,6.474256516E-4,4.508197308E-3
3.331424134E2,-2.364158630E-3,2.664566040E-3,-3.480911255E-5
3.336424134E2,4.956245422E-3,-1.997828484E-3,-3.039598465E-2
3.341424134E2,-5.379676819E-3,-1.039445400E-2,-8.230566978E-3
3.346424134E2,-6.287574768E-3,-3.359079361E-3,8.072257042E-4
3.351424134E2,5.635261536E-3,5.645275116E-3,-2.061128616E-4
3.356424134E2,-1.875877380E-3,5.393385887E-3,-2.570807934E-3
3.361424134E2,-8.592605591E-4,4.736185074E-4,7.501244545E-4
3.366424134E2,-2.393722534E-4,-3.485679626E-4,-3.526216745E-2
3.371424134E2,-3.578186035E-3,8.299946785E-3,-3.266990185E-3
3.376424134E2,1.332473755E-2,-1.392686367E-2,7.709962130E-2
3.381424134E2,5.578994751E-3,6.985664368E-5,-7.061898708E-3
3.386424134E2,1.498222351E-3,7.131576538E-3,4.118859768E-3
3.391424134E2,8.964538574E-5,2.351641655E-3,4.816889763E-3
3.396424134E2,5.098342896E-3,-2.317070961E-3,5.790537596E-2
3.401424134E2,-5.856513977E-3,-7.009744644E-3,-2.292972803E-2
3.406424134E2,5.292892456E-3,-7.225275040E-3,6.476676464E-2
3.411424134E2,3.295898438E-3,-9.818077087E-4,1.064834297E-1
3.416424134E2,1.732826233E-3,-5.477666855E-4,6.715008616E-2
3.421424134E2,3.366470337E-4,-5.493998528E-3,5.951881409E-3
3.426424134E2,-8.535385132E-4,-1.169562340E-3,-2.281993628E-3
3.431424134E2,-1.611709595E-4,5.859494209E-3,9.015753865E-3
3.436424134E2,1.331329346E-3,7.978677750E-4,2.452731133E-3
3.441424134E2,5.550384521E-4,1.155138016E-3,5.976110697E-4
3.446424134E2,7.123947144E-4,-6.159543991E-4,-5.419760942E-3
3.451424134E2,-4.892349243E-4,-3.102064133E-3,2.078357339E-2
3.456424134E2,9.567260742E-3,1.160860062E-3,7.245108485E-3
3.461424134E2,4.383087158E-3,-2.154827118E-3,3.391191363E-3
3.466424134E2,2.890586853E-3,2.743840218E-3,6.460711360E-3
3.471424134E2,2.624511719E-3,3.946423531E-3,-1.664102077E-3
3.476424134E2,3.490447998E-4,-7.349252701E-3,-2.900570631E-3
3.481424134E2,-5.858421326E-3,1.490592957E-3,3.164932132E-3
3.486424134E2,-3.081321716E-3,3.129601479E-3,-2.519354224E-3
3.491424134E2,-4.399299622E-3,-1.311182976E-3,-3.038883209E-3
3.496424134E2,-4.990577698E-3,4.619479179E-3,1.861870289E-3
3.501424134E2,4.621505737E-3,2.496838570E-3,6.266653538E-3
3.506424134E2,-6.246566772E-4,2.972841263E-3,5.067884922E-4
3.511424134E2,2.623558044E-3,-1.100778580E-3,-8.645042777E-3
3.516424134E2,-1.583099365E-4,-4.581212997E-4,5.202740431E-4
3.521424134E2,3.995895386E-4,1.353502274E-3,-2.070367336E-4
3.526424134E2,-1.688003540E-4,3.685593605E-3,-1.223012805E-3
3.531424134E2,-4.084587097E-3,-2.857804298E-3,3.172844648E-3
3.536424134E2,3.528594971E-5,1.631379128E-3,2.459093928E-3
3.541424134E2,-1.223564148E-3,2.033352852E-3,-1.110583544E-3
3.546424134E2,-1.802444458E-4,-5.326032639E-3,-3.974854946E-3
3.551424134E2,5.521774292E-4,1.719236374E-3,-1.908928156E-3
3.556424134E2,-3.042221069E-4,2.424716949E-3,3.034606576E-3
3.561424134E2,-8.430480957E-4,-2.642750740E-3,7.375478745E-4
3.566424134E2,-1.133918762E-3,1.380205154E-3,-3.951489925E-4
3.571424134E2,1.382827759E-4,4.456400871E-3,1.462996006E-4
3.576424134E2,2.260208130E-4,-8.026361465E-4,-4.594624043E-4
3.581424134E2,-3.337860107E-5,-2.779483795E-3,5.330935121E-3
3.586424134E2,-5.807876587E-4,1.167893410E-3,3.071650863E-3
3.591424134E2,-6.113052368E-4,-1.496911049E-3,-1.335576177E-3
3.596424134E2,-1.957893372E-3,1.670002937E-3,2.636387944E-3
3.601424134E2,2.947807312E-3,8.531808853E-4,5.183652043E-3
3.606424134E2,6.933212280E-4,-5.968809128E-4,2.778440714E-3
3.611424134E2,3.273963928E-3,5.350112915E-4,6.756111979E-3
3.616424134E2,3.719329834E-4,-4.280805588E-4,3.309234977E-3
3.621424134E2,2.880096436E-3,-1.178264618E-3,-3.009453416E-3
3.626424134E2,1.868247986E-3,2.054333687E-3,-1.567929983E-3
3.631424134E2,2.612113953E-3,-3.431320190E-3,-8.339911699E-3
3.636424134E2,4.348754883E-4,5.918741226E-4,1.782089472E-3
3.641424134E2,-2.514839172E-3,4.220008850E-4,2.903074026E-3
3.646424134E2,1.065254211E-3,-2.451896667E-3,-4.265889525E-3
3.651424134E2,8.878707886E-4,9.506940842E-4,4.782542586E-3
3.656424134E2,-1.697540283E-4,3.710985184E-4,1.580744982E-3
3.661424134E2,-9.069442749E-4,8.792877197E-4,4.682779312E-3
3.666424134E2,-5.502700806E-4,-5.688428879E-3,-6.918385625E-3
3.671424134E2,-5.636215210E-4,-9.506940842E-4,3.615245223E-3
3.676424134E2,-8.497238159E-4,-1.094341278E-4,-9.794831276E-4
3.681424134E2,1.066207886E-3,-1.158118248E-3,2.660661936E-3
3.686424134E2,-1.287460327E-4,7.879734039E-4,8.736699820E-4
3.691424134E2,-8.878707886E-4,-5.187988281E-4,-3.829732537E-3
3.696424134E2,-4.033088684E-3,3.492832184E-5,3.677922487E-2
3.701424134E2,2.498340607E-2,2.266967297E-2,1.300644130E-1
3.706424134E2,3.124237061E-3,1.533329487E-2,3.334793746E-1
3.711424134E2,9.784698486E-4,3.996729851E-3,2.149692774E-1
3.716424134E2,-4.357337952E-3,-1.051878929E-2,9.450852871E-2
3.721424134E2,-1.095771790E-3,2.750039101E-3,6.064367294E-2
3.726424134E2,-3.115653992E-3,-2.195239067E-3,1.139891148E-2
3.731424134E2,5.988121033E-3,-2.500772476E-3,-3.132820129E-4
3.736424134E2,8.583068848E-6,3.705024719E-4,-8.552074432E-3
3.741424134E2,-4.777908325E-4,-3.379702568E-3,-1.657164097E-2
3.746424134E2,9.994506836E-3,4.058480263E-3,-9.354233742E-3
3.751424134E2,5.461692810E-3,-1.919031143E-3,6.199717522E-3
3.756424134E2,1.101970673E-2,-3.758311272E-3,5.003929138E-3
3.761424134E2,2.035140991E-3,-7.084131241E-3,4.517674446E-3
3.766424134E2,2.946949005E-2,1.017558575E-2,5.702257156E-3
3.771424134E2,6.474494934E-3,9.567737579E-3,-4.055619240E-3
3.776424134E2,2.769470215E-3,1.929199696E-2,3.044164181E-2
3.781424134E2,-1.080417633E-2,-1.013243198E-2,3.543925285E-2
3.786424134E2,-1.820659637E-2,7.166743279E-3,-9.459853172E-3
3.791424134E2,5.810165405E-2,2.675795555E-2,-4.038321972E-2
3.796424134E2,4.082202911E-2,6.774771214E-2,-4.369771481E-2
3.801424134E2,1.674175262E-2,1.028426886E-1,-4.842686653E-2
3.806424134E2,2.611637115E-2,-2.375555038E-2,-1.187121868E-2
3.811424134E2,2.069568634E-2,2.037473917E-1,-5.898559093E-2
3.816424134E2,-2.545833588E-2,7.160127163E-2,-2.951276302E-2
3.821424134E2,3.728961945E-2,1.002773046E-1,-3.515827656E-2
3.826424134E2,2.563285828E-2,1.406925917E-1,-2.700060606E-2
3.831424134E2,5.086612701E-2,1.211106777E-2,-3.811413050E-2
3.836424134E2,4.988098145E-2,1.024519205E-1,-3.657495975E-2
3.841424134E2,3.430843353E-2,2.107715607E-2,-9.862899780E-3
3.846424134E2,1.152420044E-2,7.741105556E-2,-4.155057669E-2
3.851424134E2,1.300334930E-2,-4.702615738E-2,-2.783006430E-2
3.856424134E2,2.925395966E-2,5.870044231E-2,-8.197778463E-2
3.861424134E2,6.728172302E-2,-8.825182915E-2,-1.349053681E-1
3.866424134E2,1.001453400E-2,-3.692197800E-2,-1.123482883E-1
3.871424134E2,1.614284515E-2,-6.623339653E-2,-8.316359669E-2
3.876424134E2,-3.650951385E-2,-5.226147175E-2,-9.930801392E-2
3.881424134E2,6.530857086E-2,-2.043604851E-2,-6.599518657E-2
3.886424134E2,-5.569744110E-2,-1.311306953E-1,-4.489214718E-2
3.891424134E2,1.085281372E-3,3.729319572E-2,-3.693652153E-2
3.896424134E2,-3.608703613E-2,-8.235180378E-2,2.212905884E-2
3.901424134E2,-4.511833191E-3,9.811103344E-2,8.080622554E-2
3.906424134E2,-7.535648346E-2,-8.425128460E-2,-5.321443081E-3
3.911424134E2,-2.002620697E-2,1.219666004E-2,1.915588975E-2
3.916424134E2,4.364109039E-2,1.667296886E-2,-4.503494501E-2
3.921424134E2,2.900123596E-3,-6.714105606E-3,-2.688044310E-2
3.926424134E2,1.642513275E-2,1.791656017E-2,-3.695982695E-2
3.931424134E2,2.032184601E-2,-4.776477814E-2,-1.810747385E-2
3.936424134E2,1.585006714E-2,3.192663193E-2,3.595012426E-2
3.941424134E2,1.456546783E-2,-2.513515949E-2,1.409411430E-2
3.946424134E2,2.515602112E-2,1.001012325E-2,1.825696230E-2
3.951424134E2,2.859497070E-2,-2.413284779E-2,1.154363155E-3
3.956424134E2,3.113079071E-2,9.929060936E-3,-2.413856983E-2
3.961424134E2,-1.791954041E-3,-3.407967091E-2,-5.284690857E-2
3.966424134E2,3.844928741E-2,2.723586559E-2,1.657372713E-2
3.971424134E2,1.570415497E-2,-8.863210678E-4,2.627688646E-2
3.976424134E2,-4.866409302E-2,7.782578468E-3,6.504207850E-2
3.981424134E2,-2.747917175E-2,1.847922802E-2,-6.661951542E-3
3.986424134E2,5.862236023E-3,-7.398128510E-3,-7.444620132E-3
3.991424134E2,-5.797386169E-3,-1.563847065E-2,-2.684950829E-3
3.996424134E2,1.826286316E-3,1.590561867E-2,8.785086870E-2
4.001424134E2,1.899051666E-2,-3.250753880E-2,2.206349373E-2
4.006424134E2,-6.927490234E-3,5.185604095E-5,-1.817578077E-2
4.011424134E2,-1.584243774E-2,-2.929425240E-2,-1.353102922E-2
4.016424134E2,-2.695369720E-2,-1.929628849E-2,6.826519966E-4
4.021424134E2,2.363586426E-2,2.726876736E-2,3.543639183E-2
4.026424134E2,-2.540493011E-2,-3.535795212E-2,2.676838636E-2
4.031424134E2,3.272342682E-2,2.267956734E-3,-6.933808327E-4
4.036424134E2,-1.771354675E-2,-3.166913986E-2,-7.035553455E-3
4.041424134E2,3.212261200E-2,-9.879076481E-2,-2.751660347E-2
4.046424134E2,6.278324127E-2,-4.145252705E-2,2.778470516E-3
4.051424134E2,2.343177795E-3,-8.870720863E-2,-1.730525494E-2
4.056424134E2,1.580715179E-2,-3.790497780E-2,3.017902374E-3
4.061424134E2,-3.283977509E-2,-1.500999928E-2,-2.440515161E-2
4.066424134E2,-7.944107056E-4,-1.125923395E-1,9.999155998E-3
4.071424134E2,-5.231857300E-3,8.476293087E-2,-3.739297390E-4
4.076424134E2,-1.851081848E-3,-6.718635559E-3,4.194170237E-3
4.081424134E2,4.873466492E-2,3.924882412E-2,2.869032323E-2
4.086424134E2,-4.457569122E-2,-6.722092628E-3,2.321575582E-2
4.091424134E2,-3.224182129E-2,5.983448029E-2,-5.199652910E-2
4.096424134E2,-4.602527618E-2,2.539515495E-3,3.041596711E-2
4.101424134E2,-4.343700409E-2,-7.811188698E-3,-1.101264358E-2
4.106424134E2,1.515769958E-2,5.276799202E-2,4.983752966E-3
4.111424134E2,-3.906345367E-2,7.823228836E-3,-2.268844843E-2
4.116424134E2,1.539897919E-2,1.278362274E-1,-1.067686081E-2
4.121424134E2,-9.266948700E-2,6.853389740E-2,-3.093791008E-2
4.126424134E2,1.975727081E-2,3.867459297E-2,-1.199728251E-2
4.131424134E2,5.929946899E-3,8.264398575E-2,-1.683852077E-2
4.136424134E2,-2.104854584E-2,-1.712667942E-2,6.195545197E-3
4.141424134E2,2.182865143E-2,-7.510495186E-2,-1.996266842E-2
4.146424134E2,-3.991127014E-3,2.136230469E-4,-1.746200323E-1
4.151424134E2,1.029014587E-3,-6.369996071E-2,-1.486426592E-2
4.156424134E2,-3.145694733E-2,3.374862671E-2,-7.248544693E-2
4.161424134E2,1.776599884E-2,4.345536232E-3,-6.077486277E-2
4.166424134E2,-2.011394501E-2,-1.054085493E-1,-4.455769062E-2
4.171424134E2,2.268123627E-2,-3.958070278E-2,-6.324052811E-2
4.176424134E2,-3.969669342E-2,1.878762245E-2,-3.838872910E-2
4.181424134E2,-2.036571503E-2,-9.972572327E-3,-3.101289272E-2
4.186424134E2,9.284973145E-3,-3.921985626E-3,-2.996385098E-2
4.191424134E2,-4.000663757E-3,1.471519470E-3,9.832739830E-3
4.196424134E2,-3.036212921E-2,-3.295767307E-2,5.553960800E-4
4.201424134E2,1.935100555E-2,-2.057456970E-2,-1.280045509E-2
4.206424134E2,-3.376579285E-2,4.608511925E-3,-1.560330391E-3
4.211424134E2,2.987861633E-2,-6.163859367E-2,1.440060139E-2
4.216424134E2,-2.820777893E-2,-5.779147148E-2,-1.572716236E-2
4.221424134E2,1.644325256E-2,-2.673614025E-2,-6.852269173E-3
4.226424134E2,-2.246665955E-2,-3.060936928E-2,3.156697750E-2
4.231424134E2,-4.545211792E-3,2.901911736E-3,6.797909737E-3
4.236424134E2,2.086257935E-2,-3.658246994E-2,-1.198899746E-2
4.241424134E2,-1.432418823E-2,3.102481365E-2,-1.706993580E-2
4.246424134E2,8.393287659E-3,3.930091858E-3,-1.360058784E-3
4.251424134E2,-4.611015320E-3,-1.570403576E-2,-8.000969887E-3
4.256424134E2,4.189491272E-3,-1.557660103E-2,1.434648037E-2
4.261424134E2,-8.659362793E-4,1.426506042E-2,1.571059227E-3
4.266424134E2,-3.144264221E-3,-1.582908630E-2,-1.628994942E-3
4.271424134E2,-4.895210266E-3,-6.221532822E-4,-3.036260605E-3
4.276424134E2,-3.838539124E-3,-8.153796196E-3,9.923100471E-3
4.281424134E2,8.239746094E-4,9.070992470E-3,7.133841515E-3
4.286424134E2,-5.249977112E-3,-8.061051369E-3,1.837372780E-3
4.291424134E2,-5.168914795E-4,7.304072380E-3,5.113875866E-2
4.296424134E2,-6.460189819E-3,-2.636909485E-3,9.453028440E-2
4.301424134E2,1.958847046E-3,2.406716347E-3,3.657251596E-2
4.306424134E2,4.906654358E-3,6.081700325E-3,5.242252350E-2
4.311424134E2,5.137443542E-3,8.761882782E-4,3.039813042E-2
4.316424134E2,5.239486694E-3,-8.809447289E-3,1.827853918E-2
4.321424134E2,3.363609314E-3,-4.065036774E-4,3.817909956E-2
4.326424134E2,5.649566650E-3,-1.358985901E-4,1.002830267E-2
4.331424134E2,1.874923706E-3,-4.577636719E-4,1.990932226E-2
4.336424134E2,1.347541809E-3,-1.925706863E-3,2.140593529E-2
4.341424134E2,-5.352973938E-3,2.145767212E-5,1.351767778E-2
4.346424134E2,3.328323364E-4,5.622148514E-3,1.242595911E-2
4.351424134E2,-8.172988892E-4,-2.862095833E-3,3.080666065E-3
4.356424134E2,1.852989197E-3,1.737117767E-3,1.451134682E-2
4.361424134E2,9.244918823E-3,3.658652306E-3,1.036149263E-2
4.366424134E2,7.060050964E-3,-1.994490623E-3,9.629726410E-4
4.371424134E2,1.274394989E-2,5.267262459E-3,-5.333960056E-3
4.376424134E2,4.040718079E-3,-2.482533455E-3,6.194174290E-3
4.381424134E2,4.799842834E-3,-1.730203629E-3,-9.202420712E-3
4.386424134E2,-5.480766296E-3,-8.940696716E-4,9.017825127E-3
4.391424134E2,2.059936523E-4,5.456209183E-4,-4.399776459E-3
4.396424134E2,-4.412651062E-3,-7.426738739E-5,3.977417946E-3
4.401424134E2,-4.616737366E-3,8.462667465E-4,3.441631794E-3
4.406424134E2,-6.465911865E-4,-1.070499420E-4,1.260936260E-3
4.411424134E2,-1.974105835E-4,-3.884553909E-3,-4.438912868E-2
4.416424134E2,1.352787018E-2,1.933813095E-3,7.453382015E-2
4.421424134E2,-1.482963562E-3,-3.203272820E-3,-1.710194349E-2
4.426424134E2,1.513481140E-3,6.572723389E-3,9.111523628E-3
4.431424134E2,5.130767822E-4,-3.305792809E-3,-1.789927483E-3
4.436424134E2,3.348350525E-3,-2.251863480E-4,3.528773785E-2
4.441424134E2,-1.016616821E-3,1.918792725E-3,8.278119564E-2
4.446424134E2,-1.078605652E-3,2.933621407E-3,6.584283710E-2
4.451424134E2,4.523277283E-3,3.676414490E-3,2.197000384E-2
4.456424134E2,1.111984253E-3,-1.121759415E-4,-2.410024405E-3
4.461424134E2,-1.588535309E-2,-3.623962402E-5,-2.077510953E-1
4.466424134E2,6.313037872E-2,4.374504089E-2,5.404143929E-1
4.471424134E2,-2.271175385E-2,-5.287182331E-2,1.264891028E-2
4.476424134E2,8.568763733E-3,7.274389267E-3,1.268316656E-1
4.481424134E2,3.023147583E-4,-1.596093178E-3,2.496987581E-3
4.486424134E2,3.620147705E-3,2.183675766E-3,3.283318877E-2
4.491424134E2,2.305030823E-3,4.355072975E-3,1.336073875E-2
4.496424134E2,-3.246307373E-3,5.365252495E-3,-2.060532570E-4
4.501424134E2,-3.562927246E-3,5.720853806E-4,3.135874867E-3
4.506424134E2,-6.191253662E-3,-4.940271378E-3,-1.924544573E-3
4.511424134E2,-3.207206726E-3,5.128026009E-3,1.346915960E-3
4.516424134E2,-3.103256226E-3,-1.410245895E-3,-5.213469267E-4
4.521424134E2,-3.270149231E-3,9.334087372E-5,1.577496529E-3
4.526424134E2,-7.352828979E-4,-9.906291962E-5,1.888200641E-3
4.531424134E2,-1.601219177E-3,-1.561999321E-3,1.511424780E-3
4.536424134E2,-2.115249634E-3,-5.172729492E-3,-3.622025251E-4
4.541424134E2,-5.846023560E-4,2.734661102E-4,-9.484440088E-4
4.546424134E2,9.321212769E-3,3.893494606E-3,1.653820276E-3
4.551424134E2,-5.656242371E-3,-5.680322647E-4,-6.686747074E-4
4.556424134E2,-2.285003662E-3,5.500555038E-3,-2.623200417E-4
4.561424134E2,9.775161743E-4,-1.277327538E-3,2.070069313E-4
4.566424134E2,-7.991790771E-4,-4.445672035E-3,-1.981854439E-5
4.571424134E2,-5.211830139E-3,-5.674242973E-3,1.732230186E-3
4.576424134E2,-5.877494812E-3,-7.071256638E-3,3.668576479E-3
4.581424134E2,-3.501892090E-3,3.350615501E-3,-1.507401466E-4
4.586424134E2,1.512527466E-3,-1.432538033E-3,1.584485173E-3
4.591424134E2,-1.660346985E-3,8.751153946E-4,2.024412155E-3
4.596424134E2,-3.602027893E-3,-1.584410667E-3,2.453252673E-3
4.601424134E2,-8.544921875E-4,-5.638599396E-3,-4.886835814E-4
4.606424134E2,-6.297111511E-3,-4.372119904E-3,-1.017764211E-3
4.611424134E2,2.736091614E-3,-3.342509270E-3,1.963853836E-3
4.616424134E2,-2.308845520E-3,2.023458481E-3,1.777127385E-3
4.621424134E2,3.030776978E-3,8.670091629E-4,-8.248388767E-4
4.626424134E2,-3.762245178E-3,8.617639542E-4,-3.854289651E-3
4.631424134E2,8.401870728E-4,-1.126170158E-3,-4.559770226E-3
4.636424134E2,5.102157593E-3,2.467036247E-3,-6.113499403E-4
4.641424134E2,1.730918884E-3,2.376437187E-3,-1.676976681E-3
4.646424134E2,7.324218750E-4,2.307176590E-3,-7.203817368E-4
4.651424134E2,-1.596450806E-3,2.532839775E-3,4.552453756E-4
4.656424134E2,8.192062378E-4,3.297686577E-3,3.407120705E-3
4.661424134E2,4.114151001E-3,6.585121155E-4,-3.657981753E-3
4.666424134E2,1.730918884E-3,-2.354025841E-3,-1.470923424E-3
4.671424134E2,1.212120056E-3,8.155107498E-4,-9.402632713E-6
4.676424134E2,2.840995789E-3,1.731395721E-3,2.542585135E-3
4.681424134E2,1.612663269E-3,-1.228213310E-3,-1.697391272E-4
4.686424134E2,3.814697266E-4,2.321839333E-3,2.865493298E-5
4.691424134E2,1.892089844E-3,1.339912415E-3,1.801863313E-3
4.696424134E2,-5.085945129E-3,-2.449750900E-4,8.238703012E-4
4.701424134E2,-2.717971802E-4,-3.380894661E-3,3.193378448E-3
4.706424134E2,-7.257461548E-4,9.877681732E-4,3.694266081E-3
4.711424134E2,3.986358643E-4,-6.356239319E-4,1.244246960E-5
4.716424134E2,3.923416138E-3,3.960967064E-3,7.181912661E-4
4.721424134E2,4.234313965E-4,-1.448631287E-3,-5.342066288E-5
4.726424134E2,-1.578330994E-3,-5.089521408E-3,3.957085311E-2
4.731424134E2,-1.969623566E-2,-7.136106491E-3,1.159324050E-1
4.736424134E2,-4.272460938E-4,1.412308216E-2,3.283288479E-1
4.741424134E2,-7.195472717E-3,5.281567574E-3,2.947789431E-1
4.746424134E2,-1.234626770E-2,-8.991360664E-3,9.324848652E-2
4.751424134E2,-2.056121826E-2,-2.449750900E-4,5.834662914E-2
4.756424134E2,-4.677772522E-3,4.788875580E-3,8.729815483E-3
4.761424134E2,-1.198959351E-2,3.579258919E-3,1.329302788E-3
4.766424134E2,1.294136047E-3,-1.470088959E-3,4.038214684E-3
4.771424134E2,-1.322650909E-2,6.107449532E-3,-7.524967194E-3
4.776424134E2,-1.936912537E-3,1.488566399E-3,-1.284396648E-2
4.781424134E2,-2.449893951E-2,-1.170992851E-3,-4.125475883E-3
4.786424134E2,-1.380920410E-3,-5.761265755E-3,7.009029388E-3
4.791424134E2,-3.991794586E-2,6.159782410E-3,3.379940987E-3
4.796424134E2,1.011848450E-3,1.201510429E-3,6.900072098E-3
4.801424134E2,3.671646118E-4,-1.278829575E-2,7.097482681E-3
4.806424134E2,-1.762294769E-2,5.132555962E-3,1.131474972E-2
4.811424134E2,-5.540847778E-4,-2.154207230E-2,-4.212856293E-3
4.816424134E2,8.687973022E-3,2.819228172E-2,1.119482517E-2
4.821424134E2,-1.613330841E-2,-3.354239464E-2,-2.574956417E-2
4.826424134E2,-1.289844513E-2,3.034675121E-2,-3.775286674E-2
4.831424134E2,-1.343727112E-2,-5.653738976E-3,-1.849496365E-2
4.836424134E2,6.621360779E-3,-5.955672264E-2,-4.649817944E-2
4.841424134E2,-1.799297333E-2,7.046401501E-2,-5.663716793E-2
4.846424134E2,8.595085144E-2,-2.030787468E-1,-2.853572369E-3
4.851424134E2,3.447437286E-2,-3.876483440E-2,-3.126949072E-2
4.856424134E2,1.047658920E-1,-7.027661800E-2,2.284210920E-2
4.861424134E2,7.880687714E-2,-1.235116720E-1,2.651065588E-2
4.866424134E2,-1.549549103E-1,1.165018082E-1,-3.585380316E-2
4.871424134E2,-7.449626923E-2,5.469954014E-2,-1.840180159E-2
4.876424134E2,-2.635765076E-2,3.939855099E-2,-9.499192238E-3
4.881424134E2,-3.819751740E-2,1.291942596E-2,-2.777999640E-2
4.886424134E2,6.304264069E-2,9.715592861E-2,1.206082106E-2
4.891424134E2,4.130840302E-2,7.265758514E-2,-2.955496311E-3
4.896424134E2,1.424036026E-1,-2.488851547E-3,7.423937321E-3
4.901424134E2,-8.076667786E-3,1.708234549E-1,-2.887207270E-2
4.906424134E2,8.490943909E-2,-1.368677616E-2,5.342060328E-2
4.911424134E2,-3.471851349E-2,2.734911442E-2,9.645462036E-3
4.916424134E2,-6.015205383E-2,-2.675855160E-2,-7.287290692E-2
4.921424134E2,-2.637386322E-2,-1.063467264E-1,-2.368753850E-1
4.926424134E2,-5.337715149E-3,1.052789688E-1,-2.538302541E-1
4.931424134E2,2.690029144E-2,-9.401333332E-2,-1.935659647E-1
4.936424134E2,9.240150452E-2,5.662310123E-2,-1.475638151E-2
4.941424134E2,2.898883820E-2,-1.505178213E-1,-5.713886023E-2
4.946424134E2,-4.899978638E-2,7.131683826E-2,-7.055073977E-2
4.951424134E2,3.879451752E-2,-1.585024595E-1,7.245483994E-2
4.956424134E2,4.834556580E-2,-4.520857334E-2,1.504918933E-2
4.961424134E2,8.865356445E-2,6.244528294E-2,-7.199078798E-3
4.966424134E2,3.530597687E-2,3.972184658E-2,-1.610589027E-2
4.971424134E2,9.573936462E-3,9.276092052E-2,-1.691660285E-2
4.976424134E2,-1.141071320E-2,1.199305058E-2,1.357731223E-2
4.981424134E2,-1.457881927E-2,9.250342846E-2,4.169046879E-3
4.986424134E2,1.128387451E-2,-6.494855881E-2,2.296707034E-2
4.991424134E2,-2.223396301E-2,-5.356788635E-3,-5.518406630E-3
4.996424134E2,5.753517151E-3,-3.610050678E-2,6.475895643E-3
5.001424134E2,4.000663757E-3,4.156124592E-2,1.786181331E-2
5.006424134E2,-1.944637299E-2,2.954757214E-2,2.424830198E-2
5.011424134E2,-8.323097229E-2,-6.014287472E-2,2.579882741E-2
5.016424134E2,-3.192996979E-2,2.140524387E-1,4.938082099E-1
5.021424134E2,1.410245895E-1,-5.937683582E-2,8.244359493E-2
5.026424134E2,-3.929138184E-3,-2.037728429E-1,-2.366291881E-1
5.031424134E2,-8.255004883E-3,1.117461920E-1,-1.282207966E-1
5.036424134E2,-2.947807312E-3,-2.325163186E-1,-8.327484131E-3
5.041424134E2,3.845119476E-2,-2.372358441E-1,7.149493694E-2
5.046424134E2,-7.026958466E-2,2.948563099E-1,-2.567515969E-1
5.051424134E2,-1.479244232E-2,5.260884762E-2,-1.056358814E-1
5.056424134E2,-3.034496307E-2,8.165740967E-2,-2.786099911E-2
5.061424134E2,-8.398056030E-3,3.868925571E-2,-5.251163244E-2
5.066424134E2,-1.339817047E-2,-1.184701920E-2,3.144979477E-3
5.071424134E2,-3.462314606E-2,1.553499699E-2,-5.223792791E-2
5.076424134E2,-3.456020355E-2,5.117118359E-2,-2.652865648E-2
5.081424134E2,3.900527954E-4,-2.653837204E-3,9.046196938E-3
5.086424134E2,-1.046466827E-2,7.861971855E-3,1.937401295E-2
5.091424134E2,-1.584053040E-3,-2.813386917E-2,8.245277405E-2
5.096424134E2,-3.376579285E-2,3.238475323E-2,2.526974678E-2
5.101424134E2,-1.479148865E-3,4.224181175E-3,6.103640795E-2
5.106424134E2,-2.600669861E-3,3.668427467E-3,2.984881401E-2
5.111424134E2,5.881309509E-3,-3.589832783E-2,4.509684443E-2
5.116424134E2,9.425163269E-3,3.839468956E-2,7.399356365E-2
5.121424134E2,4.095458984E-2,-3.520572186E-2,6.133794785E-3
5.126424134E2,9.052276611E-3,4.002201557E-2,3.412458301E-2
5.131424134E2,1.868152618E-2,1.220029593E-1,-1.332077384E-2
5.136424134E2,2.749061584E-2,-4.811072350E-2,1.531958580E-2
5.141424134E2,4.825115204E-2,4.121088982E-2,-1.946941018E-2
5.146424134E2,-1.079082489E-2,-4.723107815E-2,2.983987331E-3
5.151424134E2,-1.236343384E-2,3.337800503E-2,-3.320842981E-2
5.156424134E2,-2.570152283E-3,-9.637475014E-3,1.548475027E-2
5.161424134E2,5.161380768E-2,7.634770870E-2,-3.187656403E-3
5.166424134E2,-8.621215820E-3,-3.599584103E-2,7.381141186E-4
5.171424134E2,3.590202332E-2,-1.316797733E-2,6.641179323E-3
5.176424134E2,3.543090820E-2,2.568280697E-2,-2.784401178E-3
5.181424134E2,2.312755585E-2,1.690471172E-2,-1.009604335E-2
5.186424134E2,1.901817322E-2,-5.204081535E-2,-3.558933735E-3
5.191424134E2,4.446125031E-2,5.759894848E-2,9.699642658E-3
5.196424134E2,-3.439426422E-2,-1.303858757E-1,1.323997974E-2
5.201424134E2,6.414413452E-3,4.948711395E-2,-1.725450158E-2
5.206424134E2,-1.962375641E-2,-5.814969540E-2,2.593055367E-2
5.211424134E2,2.853202820E-2,4.282748699E-2,1.508088410E-2
5.216424134E2,7.026672363E-3,1.043558121E-2,-2.374784648E-2
5.221424134E2,-1.467704773E-3,1.735234261E-2,-4.664759338E-2
5.226424134E2,4.205703735E-4,2.614700794E-2,-9.175698459E-2
5.231424134E2,2.276325226E-2,-1.709938049E-3,5.306371301E-2
5.236424134E2,-9.098052979E-4,4.917538166E-2,4.949977994E-2
5.241424134E2,-1.041507721E-2,-1.135960817E-1,4.153021425E-2
5.246424134E2,2.666378021E-2,-1.167060137E-1,2.388440073E-3
5.251424134E2,5.222988129E-2,-1.475349665E-1,-3.455092013E-2
5.256424134E2,4.855155945E-3,-1.164574623E-1,-3.093885630E-2
5.261424134E2,5.295467377E-2,-9.838056564E-2,-2.753915638E-2
5.266424134E2,1.685428619E-2,-6.792902946E-2,-4.004978761E-2
5.271424134E2,1.795864105E-2,-7.782781124E-2,9.137779474E-3
5.276424134E2,1.075267792E-2,-5.767118931E-2,5.432769656E-2
5.281424134E2,1.706695557E-2,-7.777953148E-2,-1.567751169E-3
5.286424134E2,-1.033306122E-2,-3.072941303E-2,-3.554791212E-3
5.291424134E2,3.400611877E-2,3.940272331E-2,-1.819837093E-2
5.296424134E2,2.005577087E-3,7.781541348E-2,-9.275385737E-2
5.301424134E2,5.034065247E-2,4.780852795E-2,2.278634906E-2
5.306424134E2,-2.327060699E-2,1.063562632E-1,-3.959152102E-2
5.311424134E2,1.301574707E-2,-2.402651310E-2,1.509955525E-2
5.316424134E2,-7.411193848E-2,2.213478088E-3,-6.164050102E-2
5.321424134E2,4.174900055E-2,5.559599400E-2,-1.074103415E-1
5.326424134E2,-5.937004089E-2,2.511930466E-2,-5.220657587E-2
5.331424134E2,-5.151462555E-2,7.804930210E-2,2.957609296E-2
5.336424134E2,-5.832958221E-2,1.404620409E-1,-1.153942943E-2
5.341424134E2,-6.070423126E-2,1.542564631E-1,-3.114470840E-2
5.346424134E2,3.258419037E-2,6.516540051E-2,-4.900810122E-2
5.351424134E2,-2.159404755E-2,1.266275644E-1,-4.176917672E-2
5.356424134E2,7.585525513E-2,5.157642365E-1,-8.489552736E-1
5.361424134E2,-7.106018066E-2,-1.309195757E-1,7.955814600E-1
5.366424134E2,-7.106399536E-2,4.403531551E-2,6.843329668E-1
5.371424134E2,-5.482387543E-2,1.427353621E-1,1.997851133E-1
5.376424134E2,-4.104995728E-2,2.926834822E-1,2.520378828E-1
5.381424134E2,1.001644135E-2,3.120496273E-1,-2.946497798E-1
5.386424134E2,2.837085724E-2,2.385697365E-1,-1.263541281E-1
5.391424134E2,-4.739570618E-2,9.996604919E-2,-1.596529782E-1
5.396424134E2,7.951736450E-3,1.677702665E-1,-7.330521941E-2
5.401424134E2,-8.492469788E-3,3.676950932E-2,-1.389873028E-2
5.406424134E2,-3.286457062E-2,4.081368446E-3,-3.623351455E-2
5.411424134E2,3.167152405E-3,1.180684566E-2,-6.689098477E-2
5.416424134E2,-5.642223358E-2,-1.047216654E-1,-3.049443662E-2
5.421424134E2,1.377010345E-2,-1.243389845E-1,-2.385003865E-2
5.426424134E2,5.120277405E-3,2.498614788E-2,-2.792921662E-2
5.431424134E2,2.317333221E-2,-1.406061649E-2,9.185096622E-2
5.436424134E2,6.698608398E-3,-1.531004906E-2,4.291388392E-2
5.441424134E2,-2.258396149E-2,-4.620873928E-2,-9.625490010E-2
5.446424134E2,-6.811618805E-2,-3.153431416E-2,-1.153044850E-1
5.451424134E2,3.656101227E-2,-1.163142920E-1,2.315118909E-2
5.456424134E2,2.050399780E-2,-4.324257374E-2,-3.702597693E-2
5.461424134E2,1.957416534E-2,-8.995020390E-2,-1.569968462E-2
5.466424134E2,1.663684845E-2,-9.576475620E-2,4.655547440E-3
5.471424134E2,8.021354675E-3,-7.365465164E-3,-1.483221352E-2
5.476424134E2,-1.214027405E-3,-8.289730549E-2,5.510777235E-3
5.481424134E2,7.028579712E-4,-1.442229748E-2,8.059218526E-3
5.486424134E2,-2.264404297E-2,-3.979086876E-2,-5.596786737E-3
5.491424134E2,9.081840515E-3,1.972436905E-3,3.628933430E-2
5.496424134E2,-2.434349060E-2,-4.395711422E-2,3.647281229E-2
5.501424134E2,2.946090698E-2,8.248090744E-4,-4.143336415E-2
5.506424134E2,6.494522095E-3,-5.567383766E-2,-2.699527144E-2
5.511424134E2,2.122020721E-2,3.431200981E-3,-2.068784833E-2
5.516424134E2,-2.734184265E-3,-2.830517292E-2,-1.518175006E-2
5.521424134E2,3.033638000E-3,2.055287361E-2,-1.457688212E-2
5.526424134E2,-4.479408264E-3,-3.544569016E-3,-7.838010788E-6
5.531424134E2,-2.130222321E-2,-5.561232567E-3,4.309952259E-3
5.536424134E2,4.159927368E-3,1.487088203E-2,4.644393921E-3
5.541424134E2,-5.351066589E-3,-1.739060879E-2,8.846700191E-3
5.546424134E2,6.268501282E-3,1.349902153E-2,6.196111441E-3
5.551424134E2,-2.454757690E-3,-4.894256592E-3,1.753896475E-3
5.556424134E2,4.643440247E-3,1.213359833E-2,3.308594227E-3
5.561424134E2,-5.553245544E-3,-1.189112663E-3,2.690467238E-2
5.566424134E2,2.193450928E-5,3.884673119E-3,-7.993251085E-3
5.571424134E2,-3.527641296E-3,-1.226902008E-2,2.547541261E-2
5.576424134E2,2.164840698E-4,-5.758404732E-3,-4.400539398E-2
5.581424134E2,3.973960876E-3,1.404404640E-3,-1.653832197E-2
5.586424134E2,8.418083191E-3,3.553628922E-4,-8.007705212E-3
5.591424134E2,8.544921875E-3,1.105546951E-3,-1.716637611E-2
5.596424134E2,-1.554489136E-4,-2.876996994E-3,-2.451360226E-3
5.601424134E2,1.701354980E-3,-3.242254257E-3,-3.731906414E-3
5.606424134E2,4.845619202E-3,1.938104630E-3,7.787942886E-4
5.611424134E2,3.932952881E-3,5.051255226E-3,2.694070339E-3
5.616424134E2,-7.302284241E-3,2.752423286E-3,1.002305746E-2
5.621424134E2,5.036354065E-3,2.574443817E-3,6.050705910E-3
5.626424134E2,-5.583763123E-3,-4.130125046E-3,6.154835224E-3
5.631424134E2,5.953788757E-3,5.519986153E-3,-2.398610115E-3
5.636424134E2,1.106262207E-4,4.897117615E-4,-9.606242180E-3
5.641424134E2,-7.984161377E-3,-6.538867950E-3,-2.498090267E-3
5.646424134E2,-1.126766205E-2,-7.867813110E-3,4.687964916E-3
5.651424134E2,8.221626282E-3,6.976723671E-3,1.987774670E-1
5.656424134E2,-1.646995544E-3,5.202293396E-3,1.292596757E-1
5.661424134E2,-2.490997314E-3,-8.851408958E-3,-3.984916955E-3
5.666424134E2,4.568099976E-4,-7.958412170E-4,3.321669996E-3
5.671424134E2,1.487731934E-3,-3.601670265E-3,1.731224358E-3
5.676424134E2,-4.377365112E-4,4.580020905E-4,-9.174570441E-4
5.681424134E2,3.874778748E-3,3.605246544E-3,-2.752758563E-3
5.686424134E2,-3.651618958E-3,-1.336574554E-3,1.645080745E-3
5.691424134E2,-9.457588196E-3,-4.747748375E-3,3.731131554E-3
5.696424134E2,-5.009651184E-3,-7.179975510E-3,7.426142693E-4
5.701424134E2,-1.602077484E-2,-5.056619644E-3,3.284998238E-3
5.706424134E2,1.009750366E-2,-6.795644760E-3,4.766249284E-2
5.711424134E2,1.194381714E-2,-1.062262058E-2,-7.925768197E-2
5.716424134E2,-6.140708923E-3,-5.218148232E-3,1.368766278E-2
5.721424134E2,-1.764965057E-2,4.361546040E-2,-2.755112015E-3
5.726424134E2,1.265239716E-2,-2.013981342E-2,-1.166093722E-2
5.731424134E2,-3.108978271E-3,-1.140999794E-2,5.968406796E-3
5.736424134E2,2.571105957E-3,-8.899211884E-3,-5.229339004E-3
5.741424134E2,-6.570816040E-3,-6.060361862E-3,-5.688861012E-3
5.746424134E2,-2.077388763E-2,2.958178520E-3,1.059666276E-3
5.751424134E2,-7.386207581E-3,1.162409782E-3,2.896770835E-3
5.756424134E2,-6.249427795E-3,-1.128792763E-3,1.130132377E-2
5.761424134E2,-9.735107422E-3,-8.774995804E-4,-2.327273786E-2
5.766424134E2,-7.461547852E-3,-2.524137497E-3,2.213312685E-2
5.771424134E2,2.544403076E-3,5.651473999E-3,2.237409353E-4
5.776424134E2,3.964424133E-3,2.897858620E-3,2.626404166E-3
5.781424134E2,-6.764411926E-3,-2.724409103E-3,3.440201283E-3
5.786424134E2,9.530067444E-3,6.273508072E-3,6.674528122E-4
5.791424134E2,-3.496170044E-3,-4.155874252E-3,-5.923211575E-5
5.796424134E2,-1.124382019E-3,1.422166824E-3,-6.291896105E-3
5.801424134E2,3.593444824E-3,-5.081892014E-4,3.906190395E-3
5.806424134E2,-4.548072815E-3,2.697706223E-3,-2.881973982E-3
5.811424134E2,1.540184021E-3,6.008505821E-3,1.232951880E-3
5.816424134E2,-2.834320068E-3,-4.722237587E-3,3.959178925E-3
5.821424134E2,-5.064010620E-4,1.653671265E-3,-5.038231611E-3
5.826424134E2,6.814002991E-3,6.247639656E-3,-1.481205225E-3
5.831424134E2,1.491451263E-2,5.545139313E-3,-1.444697380E-3
5.836424134E2,-1.939773560E-3,-8.619189262E-3,-3.981918097E-3
5.841424134E2,1.703262329E-3,-2.454400063E-3,5.429089069E-4
5.846424134E2,-8.649826050E-4,-4.756450653E-5,-4.394650459E-4
5.851424134E2,-1.220703125E-4,1.006722450E-3,7.456064224E-3
5.856424134E2,3.106117249E-3,-1.639854908E-2,3.133520484E-3
5.861424134E2,-9.590148926E-3,1.484739780E-2,-1.048833132E-2
5.866424134E2,3.925323486E-3,2.439618111E-3,-3.720402718E-3
5.871424134E2,1.707077026E-4,7.482767105E-4,-2.357929945E-3
5.876424134E2,-6.466865540E-3,5.800724030E-4,3.219664097E-3
5.881424134E2,3.309249878E-4,-2.585530281E-3,1.801133156E-3
5.886424134E2,-1.196861267E-3,3.314495087E-3,3.579542041E-3
5.891424134E2,1.095771790E-3,-1.831054688E-3,8.913159370E-3
5.896424134E2,2.370834351E-3,2.558231354E-3,-5.396902561E-4
5.901424134E2,2.739906311E-3,-2.038836479E-3,5.595982075E-4
5.906424134E2,3.738403320E-4,-3.430962563E-3,-1.699545979E-2
5.911424134E2,1.155853271E-3,2.381920815E-3,2.920687199E-3
5.916424134E2,-3.781318665E-3,1.424193382E-3,2.708892524E-2
5.921424134E2,1.590633392E-2,2.048635483E-2,1.238607168E-1
5.926424134E2,-2.708148956E-2,2.112209797E-2,3.749215603E-1
5.931424134E2,-3.970813751E-2,1.755154133E-2,5.936973095E-1
5.936424134E2,-1.936817169E-2,-8.983969688E-3,2.023426294E-1
5.941424134E2,-1.122379303E-2,5.031228065E-3,1.316986084E-1
5.946424134E2,-1.042366028E-3,1.997709274E-3,3.907275200E-2
5.951424134E2,-4.892349243E-4,-6.352663040E-4,1.440310478E-2
5.956424134E2,-3.051757812E-5,-4.042148590E-3,2.897858620E-3
5.961424134E2,-2.744674683E-3,-3.665208817E-3,-2.803444862E-3
5.966424134E2,4.482269287E-5,-3.423094749E-3,-6.434679031E-3
5.971424134E2,2.085685730E-3,-1.428830624E-2,-4.810929298E-3
5.976424134E2,6.510734558E-3,-1.508235931E-3,3.042817116E-3
5.981424134E2,9.947776794E-3,-1.426935196E-4,-2.350449562E-3
5.986424134E2,-1.641368866E-2,-2.151000500E-2,7.014393806E-3
5.991424134E2,1.698207855E-2,-6.047606468E-3,6.109714508E-3
5.996424134E2,-5.540847778E-4,-1.970660686E-2,-2.817034721E-3
6.001424134E2,4.404067993E-3,-2.654027939E-2,-1.996910572E-2
6.006424134E2,6.685256958E-4,7.859468460E-4,4.619598389E-3
6.011424134E2,-1.252174377E-3,-3.280127048E-2,-3.775954247E-3
6.016424134E2,-1.530838013E-2,-4.556202888E-2,-3.198206425E-2
6.021424134E2,3.467464447E-2,1.240432262E-2,-3.420615196E-2
6.026424134E2,-1.860427856E-2,-4.427897930E-2,-5.590879917E-2
6.031424134E2,1.010417938E-2,-2.488470078E-2,-1.926100254E-2
6.036424134E2,3.736591339E-2,-5.162620544E-2,-1.401305199E-2
6.041424134E2,2.650165558E-2,-5.177259445E-4,-1.902925968E-2
6.046424134E2,1.026725769E-2,-2.484238148E-2,1.264929771E-3
6.051424134E2,3.604793549E-2,-7.245969772E-2,5.152702332E-3
6.056424134E2,-2.905750275E-2,2.544605732E-2,-2.934396267E-2
6.061424134E2,-1.127338409E-2,6.139039993E-3,-3.210067749E-2
6.066424134E2,-1.785182953E-2,7.019758224E-2,-1.252090931E-2
6.071424134E2,9.733200073E-3,5.614137650E-2,-5.509495735E-3
6.076424134E2,2.134323120E-2,7.301986217E-2,-1.028168201E-2
6.081424134E2,2.697086334E-2,3.373670578E-2,-1.147305965E-2
6.086424134E2,4.762649536E-2,1.147332191E-1,5.403757095E-4
6.091424134E2,2.953815460E-2,-8.187043667E-2,-3.918409348E-4
6.096424134E2,1.008033752E-2,1.253354549E-1,-2.291119099E-2
6.101424134E2,2.519321442E-2,2.407243252E-1,-2.300274372E-2
6.106424134E2,-3.337860107E-4,2.140426636E-1,-8.561682701E-2
6.111424134E2,4.923820496E-3,2.185592651E-1,-1.402223706E-1
6.116424134E2,4.287433624E-2,2.127000093E-1,-2.442938834E-1
6.121424134E2,1.539421082E-2,1.503492594E-1,-4.307052493E-2
6.126424134E2,-1.666765213E-1,8.861267567E-2,-8.408126235E-2
6.131424134E2,-1.000308990E-1,-1.171374321E-2,-4.251304269E-2
6.136424134E2,-1.240816116E-1,8.613657951E-2,-6.373292208E-2
6.141424134E2,4.098987579E-2,-6.884014606E-2,-4.850286245E-2
6.146424134E2,-4.730606079E-2,6.490445137E-2,-7.073271275E-2
6.151424134E2,3.407096863E-2,7.093906403E-3,-4.243710637E-2
6.156424134E2,8.482646942E-2,3.027534485E-2,-3.603830934E-2
6.161424134E2,2.020645142E-2,8.313083649E-2,-1.971542835E-2
6.166424134E2,2.126026154E-2,-2.302622795E-2,-1.416242123E-2
6.171424134E2,7.142448425E-2,-1.349784136E-1,2.642589808E-2
6.176424134E2,-3.579807281E-2,-2.489733696E-2,-7.143178582E-2
6.181424134E2,3.955936432E-2,-4.802298546E-2,-4.214951396E-2
6.186424134E2,-3.205013275E-2,-1.322010756E-1,4.636880755E-2
6.191424134E2,-8.923530579E-3,-1.491190195E-1,2.852058411E-2
6.196424134E2,-3.418922424E-2,-1.413099766E-1,-1.500046849E-1
6.201424134E2,-5.063915253E-2,-7.149648666E-2,-8.650061488E-2
6.206424134E2,9.764194489E-2,-9.889864922E-2,8.817291260E-2
6.211424134E2,-2.648258209E-2,-5.541634560E-2,2.874156833E-2
6.216424134E2,7.196903229E-2,-2.375602722E-2,-6.650635600E-2
6.221424134E2,-1.196479797E-2,-5.365335941E-2,-4.943814874E-2
6.226424134E2,5.554866791E-2,4.472422600E-2,-2.823600173E-2
6.231424134E2,1.600074768E-2,-5.531537533E-2,3.846377134E-3
6.236424134E2,2.488136292E-2,5.397665501E-2,-1.015070081E-2
6.241424134E2,2.385044098E-2,-2.212512493E-2,1.688972116E-2
6.246424134E2,2.320861816E-2,5.345499516E-2,-5.272001028E-3
6.251424134E2,-2.580070496E-2,-1.274847984E-2,-7.887661457E-3
6.256424134E2,5.425739288E-2,2.395272255E-2,6.573319435E-3
6.261424134E2,3.418254852E-2,1.940560341E-2,6.483772397E-2
6.266424134E2,-4.747581482E-2,-4.174184799E-2,3.430801630E-2
6.271424134E2,-2.839756012E-2,3.016579151E-2,-3.675433993E-2
6.276424134E2,3.792095184E-2,1.998424530E-3,-5.587083101E-2
6.281424134E2,3.903102875E-2,-3.315186501E-2,-3.359711170E-2
6.286424134E2,-2.671527863E-2,-1.408565044E-2,1.485919952E-2
6.291424134E2,3.091526031E-2,-5.547463894E-2,-6.242632866E-3
6.296424134E2,2.845478058E-2,3.871917725E-4,5.466580391E-3
6.301424134E2,-2.775096893E-2,1.608383656E-2,-4.725071788E-2
6.306424134E2,1.072978973E-2,-3.189694881E-2,6.010237336E-2
6.311424134E2,-7.216548920E-2,4.729819298E-2,2.266019583E-2
6.316424134E2,9.996414185E-3,-3.580152988E-2,-1.860097051E-2
6.321424134E2,-4.308319092E-2,2.764475346E-2,-6.744548678E-2
6.326424134E2,6.733894348E-3,2.837181091E-2,9.892138839E-2
6.331424134E2,-3.287410736E-2,-1.540577412E-2,2.994048595E-2
6.336424134E2,4.811000824E-2,1.162955761E-1,-3.973436356E-2
6.341424134E2,7.280635834E-2,1.049360037E-1,6.398856640E-3
6.346424134E2,7.687664032E-2,2.023487091E-1,-5.695939064E-3
6.351424134E2,3.241825104E-2,1.872181892E-1,3.215861320E-2
6.356424134E2,1.872158051E-2,7.209885120E-2,-3.001511097E-3
6.361424134E2,-5.529880524E-2,9.949982166E-2,-1.643663645E-2
6.366424134E2,1.249408722E-2,2.747452259E-2,-2.205514908E-2
6.371424134E2,-8.281707764E-3,-6.601452827E-3,-2.786827087E-2
6.376424134E2,7.505416870E-4,-4.175698757E-2,1.239532232E-2
6.381424134E2,1.606655121E-2,-1.356722116E-1,-2.439975739E-2
6.386424134E2,3.178310394E-2,-1.823755503E-1,-9.560346603E-3
6.391424134E2,1.973152161E-3,-1.005234718E-1,3.261464834E-2
6.396424134E2,-5.964279175E-3,-1.947082281E-1,1.957821846E-2
6.401424134E2,-1.095676422E-2,-2.031415701E-1,-2.679824829E-2
6.406424134E2,1.097574234E-1,-2.483651638E-1,2.270770073E-2
6.411424134E2,5.155372620E-2,-9.537136555E-2,-2.389746904E-2
6.416424134E2,1.260614395E-1,-1.966594458E-1,4.548591375E-2
6.421424134E2,4.714012146E-3,-4.165077209E-2,-5.527853966E-3
6.426424134E2,-1.865482330E-2,-1.778078079E-1,1.936203241E-2
6.431424134E2,8.109951019E-2,-1.754094362E-1,1.932615042E-2
6.436424134E2,4.760742188E-3,-3.032410145E-2,-2.248519659E-2
6.441424134E2,-1.791667938E-2,-2.691400051E-2,-2.396231890E-2
6.446424134E2,-2.258682251E-2,-1.201561689E-1,-1.340283751E-1
6.451424134E2,5.960845947E-2,-1.120330095E-1,-8.776140213E-2
6.456424134E2,1.096439362E-2,-5.194008350E-2,-7.713651657E-2
6.461424134E2,2.284145355E-2,3.288257122E-2,-8.104446530E-2
6.466424134E2,-3.054141998E-2,-7.973980904E-2,-2.035927773E-2
6.471424134E2,5.615901947E-2,7.398283482E-2,-3.492137790E-2
6.476424134E2,-7.465457916E-2,-3.726983070E-2,3.175923228E-2
6.481424134E2,-2.381610870E-2,1.010084152E-1,1.735740900E-2
6.486424134E2,-1.542253494E-1,-2.144598961E-2,-4.669815302E-3
6.491424134E2,5.898094177E-2,4.633665085E-2,-7.544998080E-2
6.496424134E2,-7.522201538E-2,8.743143082E-2,-9.575717151E-2
6.501424134E2,-4.956245422E-3,6.568253040E-2,-4.748501629E-2
6.506424134E2,1.018428802E-2,4.396927357E-2,5.892551318E-2
6.511424134E2,-8.287429810E-4,2.670311928E-2,4.708695412E-2
6.516424134E2,1.001653671E-1,3.568518162E-2,5.269131064E-2
6.521424134E2,-3.165054321E-2,-9.599328041E-3,-1.967644691E-2
6.526424134E2,2.111244202E-2,3.598964214E-2,2.373647690E-2
6.531424134E2,1.106262207E-4,6.908059120E-3,-5.061665177E-2
6.536424134E2,-1.021919250E-1,-6.808984280E-2,-7.147809863E-2
6.541424134E2,1.154708862E-2,-2.057631016E-1,3.921332955E-2
6.546424134E2,-1.831531525E-2,4.976761341E-2,-2.182036638E-2
6.551424134E2,5.707836151E-2,2.530157566E-2,-2.034503222E-2
6.556424134E2,1.523971558E-3,3.578829765E-2,1.742959023E-3
6.561424134E2,5.256938934E-2,2.584600449E-2,1.602530479E-2
6.566424134E2,3.783702850E-2,-8.412492275E-2,-2.254268527E-2
6.571424134E2,-9.972572327E-3,-4.576444626E-4,1.060727239E-2
6.576424134E2,2.925872803E-2,3.880953789E-2,3.761634231E-2
6.581424134E2,3.842639923E-2,-4.913389683E-2,2.248683572E-2
6.586424134E2,-3.691387177E-2,7.961499691E-2,-5.677342415E-4
6.591424134E2,5.987167358E-3,-8.930802345E-3,2.340796590E-2
6.596424134E2,-3.554344177E-3,-2.972996235E-2,1.965211332E-2
6.601424134E2,1.885414124E-3,3.826475143E-2,-1.244747639E-2
6.606424134E2,-2.570247650E-2,-1.637411118E-2,-1.556318998E-2
6.611424134E2,-3.377628326E-2,6.324172020E-3,3.931313753E-3
6.616424134E2,1.025953293E-1,5.551815033E-3,1.294890046E-2
6.621424134E2,1.330757141E-2,2.444100380E-2,1.410514116E-3
6.626424134E2,-7.254600525E-3,-1.100885868E-2,-1.562237740E-3
6.631424134E2,6.904602051E-4,1.160252094E-2,2.011358738E-4
6.636424134E2,9.396553040E-3,3.238201141E-3,-2.059611678E-2
6.641424134E2,-6.561279297E-4,8.713126183E-3,-1.220816374E-2
6.646424134E2,2.114295959E-3,5.627036095E-3,1.756218076E-2
6.651424134E2,1.243305206E-2,-7.619857788E-3,3.286451101E-3
6.656424134E2,8.809089661E-3,7.069349289E-3,3.837990761E-2
6.661424134E2,-9.174346924E-3,4.228115082E-3,6.089925766E-3
6.666424134E2,-3.685951233E-3,1.164519787E-2,-1.086977124E-2
6.671424134E2,-1.683044434E-2,-9.598016739E-3,-1.056507230E-2
6.676424134E2,-1.033401489E-2,-4.907250404E-3,1.573583484E-2
6.681424134E2,5.366325378E-3,3.172159195E-3,6.685942411E-3
6.686424134E2,-3.230094910E-3,-8.718967438E-4,5.825996399E-3
6.691424134E2,5.473136902E-3,9.025216103E-3,1.448968053E-2
6.696424134E2,3.846168518E-3,8.228898048E-3,-1.340243220E-2
6.701424134E2,-9.379386902E-3,-1.146018505E-2,-8.611887693E-3
6.706424134E2,1.038360596E-2,5.720257759E-3,-1.122546196E-2
6.711424134E2,8.786201477E-3,-2.625226974E-3,-1.458457112E-2
6.716424134E2,7.508277893E-3,7.560133934E-3,-1.611188054E-2
6.721424134E2,4.103660583E-3,-3.867745399E-3,-7.470577955E-3
6.726424134E2,3.075599670E-3,-2.379536629E-3,-8.619785309E-3
6.731424134E2,6.580352783E-5,-1.608014107E-3,-3.843784332E-3
6.736424134E2,6.952285767E-3,9.355902672E-3,1.973041892E-2
6.741424134E2,-6.317138672E-3,-7.407784462E-3,-1.365438104E-2
6.746424134E2,5.524635315E-3,5.062699318E-3,-2.151495218E-2
6.751424134E2,-1.154899597E-3,-6.272792816E-4,-2.795040607E-3
6.756424134E2,1.497554779E-2,-2.272725105E-3,-4.497885704E-3
6.761424134E2,-1.335144043E-5,-6.002306938E-3,7.240712643E-3
6.766424134E2,2.035140991E-3,6.417036057E-4,-1.810771227E-2
6.771424134E2,-1.925468445E-3,-2.852678299E-4,6.666719913E-3
6.776424134E2,2.023124695E-2,1.846253872E-2,3.492351770E-1
6.781424134E2,9.851455688E-4,3.970265388E-3,1.724011004E-1
6.786424134E2,1.097679138E-3,1.396226883E-2,5.868135393E-2
6.791424134E2,5.836486816E-3,1.769304276E-3,2.866953611E-2
6.796424134E2,1.393318176E-3,-2.845406532E-3,6.741893291E-2
6.801424134E2,-1.554489136E-4,-3.149390221E-3,-4.504099488E-3
6.806424134E2,-1.046180725E-3,-4.567027092E-3,3.319382668E-4
6.811424134E2,-4.197120667E-3,3.040671349E-3,4.145190120E-3
6.816424134E2,1.697540283E-4,9.757280350E-4,3.942549229E-4
6.821424134E2,5.750656128E-4,-9.971857071E-4,-4.619017243E-3
6.826424134E2,2.606391907E-3,-1.363193989E-2,-2.425208688E-3
6.831424134E2,1.617431641E-3,-1.030528545E-2,4.712790251E-4
6.836424134E2,-8.293151855E-3,-2.315998077E-3,2.566114068E-3
6.841424134E2,5.820274353E-3,3.850102425E-3,4.512473941E-3
6.846424134E2,-7.078170776E-3,-8.226752281E-3,3.312036395E-3
6.851424134E2,-1.535320282E-2,5.272030830E-3,-2.134934068E-3
6.856424134E2,-4.149436951E-3,-1.012504101E-2,-1.469850540E-3
6.861424134E2,-6.478309631E-3,4.757177830E-2,1.394403428E-1
6.866424134E2,-3.041267395E-3,-3.574097157E-2,-1.176395044E-1
6.871424134E2,-4.532814026E-3,6.799697876E-4,-3.435521945E-2
6.876424134E2,-9.728431702E-3,-1.059544086E-2,1.724090427E-2
6.881424134E2,-8.892059326E-3,1.551628113E-3,4.673041403E-3
6.886424134E2,-7.714271545E-3,9.673833847E-4,3.861412406E-4
6.891424134E2,4.618644714E-3,-3.934621811E-3,3.468200564E-3
6.896424134E2,2.070426941E-3,-5.816102028E-3,1.108199358E-3
6.901424134E2,8.306503296E-4,2.977967262E-3,-1.696512103E-3
6.906424134E2,-4.848480225E-3,8.691072464E-3,-2.690024674E-3
6.911424134E2,2.850532532E-3,4.944205284E-3,2.270996571E-3
6.916424134E2,7.168769836E-3,2.485394478E-3,-2.574853599E-3
6.921424134E2,-9.238243103E-3,-1.349651814E-2,-3.871388733E-3
6.926424134E2,1.723289490E-3,-1.745104790E-3,-1.549832523E-3
6.931424134E2,2.496719360E-3,7.000565529E-3,4.442930222E-3
6.936424134E2,-1.355171204E-3,-2.559065819E-3,-2.584293485E-3
6.941424134E2,1.616477966E-3,2.126693726E-4,7.880479097E-4
6.946424134E2,-1.177787781E-3,4.462003708E-4,3.046050668E-3
6.951424134E2,-1.414299011E-3,-8.045434952E-4,1.001074910E-3
6.956424134E2,-1.919746399E-3,6.283521652E-4,9.766519070E-4
6.961424134E2,-3.944396973E-3,-1.131296158E-4,2.381861210E-3
6.966424134E2,-2.976417542E-3,-1.368641853E-3,-2.995610237E-3
6.971424134E2,2.024650574E-3,3.444790840E-3,-2.692863345E-3
6.976424134E2,8.001327515E-4,2.151846886E-3,1.720264554E-3
6.981424134E2,1.408576965E-3,-1.444697380E-3,-2.914831042E-3
6.986424134E2,-2.927780151E-4,1.703500748E-3,-1.312747598E-3
6.991424134E2,8.554458618E-4,-2.030253410E-3,6.051510572E-4
6.996424134E2,2.403259277E-3,-3.575086594E-4,1.885965466E-3
7.001424134E2,1.061439514E-3,-6.198883057E-5,4.312247038E-4
7.006424134E2,-4.482269287E-5,6.151199341E-5,1.406580210E-3
7.011424134E2,-3.937721252E-3,-8.543729782E-4,-1.510784030E-3
7.016424134E2,-1.983642578E-4,-2.828121185E-3,-1.942798495E-3
7.021424134E2,-1.780509949E-3,-6.883144379E-4,-2.614781260E-3
7.026424134E2,-5.369186401E-4,7.492303848E-4,1.604244113E-3
7.031424134E2,4.482269287E-5,-1.086711884E-3,2.273470163E-4
7.036424134E2,-3.211021423E-3,4.579067230E-3,3.582492471E-3
7.041424134E2,-3.851890564E-3,6.200075150E-4,3.952234983E-4
7.046424134E2,1.441001892E-3,-2.625107765E-3,5.468577147E-4
7.051424134E2,1.313018799E-2,5.383491516E-3,7.510185242E-5
7.056424134E2,6.321907043E-3,2.580881119E-4,3.027155995E-3
7.061424134E2,4.873275757E-3,-4.615545273E-3,1.180140674E-2
7.066424134E2,-1.555919647E-2,-3.040671349E-3,1.007334292E-1
7.071424134E2,-1.433086395E-2,1.857602596E-2,2.964423299E-1
7.076424134E2,-9.516716003E-3,1.280534267E-2,3.016442060E-1
7.081424134E2,-1.542758942E-2,-8.541345596E-3,1.150791645E-1
7.086424134E2,-4.257202148E-3,4.241824150E-3,8.010363579E-2
7.091424134E2,-5.171775818E-3,-5.969882011E-3,1.538944244E-2
7.096424134E2,-5.686759949E-3,2.285242081E-4,1.922369003E-3
7.101424134E2,4.204750061E-3,3.762483597E-3,-6.269216537E-3
7.106424134E2,5.139350891E-3,-8.894920349E-3,-6.542921066E-3
7.111424134E2,7.242202759E-3,-8.879542351E-3,-6.268024445E-4
7.116424134E2,1.911163330E-3,4.409432411E-3,1.241683960E-3
7.121424134E2,-5.837440491E-3,1.272797585E-3,8.410334587E-3
7.126424134E2,5.578041077E-3,2.233982086E-3,3.974437714E-3
7.131424134E2,-2.877235413E-3,-4.581212997E-4,1.089346409E-2
7.136424134E2,-1.864910126E-2,6.911277771E-3,3.360629082E-3
7.141424134E2,1.818656921E-3,4.419684410E-3,3.063905239E-2
7.146424134E2,-1.254177094E-2,1.139855385E-2,1.319515705E-2
7.151424134E2,-8.185386658E-3,2.809762955E-3,1.163589954E-2
7.156424134E2,2.963066101E-3,5.618822575E-2,-2.163732052E-2
7.161424134E2,-1.160907745E-2,-3.980457783E-2,-2.315330505E-2
7.166424134E2,-2.321052551E-2,8.459949493E-2,-3.503465652E-2
7.171424134E2,3.526496887E-2,-5.834889412E-2,-4.360556602E-3
7.176424134E2,-9.448909760E-2,-2.426886559E-2,-4.159247875E-2
7.181424134E2,-3.285884857E-2,9.702670574E-2,-3.634583950E-2
7.186424134E2,-6.234169006E-2,2.536606789E-2,-1.499092579E-2
7.191424134E2,3.374195099E-2,7.587909698E-3,1.174163818E-2
7.196424134E2,-4.320240021E-2,5.005812645E-2,-2.806425095E-2
7.201424134E2,1.591300964E-2,-4.833269119E-2,-2.138173580E-2
7.206424134E2,-2.186870575E-2,-1.914787292E-2,2.922356129E-2
7.211424134E2,-6.507205963E-2,2.466607094E-2,-2.465391159E-2
7.216424134E2,3.882884979E-2,4.729247093E-2,-3.868228197E-2
7.221424134E2,2.212429047E-2,-2.618145943E-2,-2.243143320E-2
7.226424134E2,8.332252502E-2,-1.596093178E-3,-2.053058147E-2
7.231424134E2,8.131313324E-2,-2.886819839E-2,-2.781909704E-2
7.236424134E2,1.975345612E-2,-2.257621288E-2,1.183629036E-3
7.241424134E2,-1.171970367E-2,-8.702099323E-2,-2.016752958E-2
7.246424134E2,4.953861237E-2,2.631533146E-2,-1.360398531E-2
7.251424134E2,3.542423248E-2,1.065266132E-2,-2.826744318E-2
7.256424134E2,1.976203918E-2,-6.668770313E-2,-1.207208633E-2
7.261424134E2,4.456520081E-3,5.779075623E-2,-7.712525129E-2
7.266424134E2,-7.064247131E-2,1.041519642E-1,-3.319072723E-2
7.271424134E2,-1.098985672E-1,9.992563725E-2,-7.910335064E-2
7.276424134E2,-8.736515045E-2,-2.525210381E-2,-1.426225901E-2
7.281424134E2,8.538246155E-3,7.854378223E-2,-6.272286177E-2
7.286424134E2,-1.915550232E-2,-1.480734348E-2,-1.497519016E-2
7.291424134E2,-4.863548279E-2,2.590155602E-2,-4.133915901E-2
7.296424134E2,-5.127811432E-2,1.129829884E-2,-3.952103853E-2
7.301424134E2,4.428958893E-2,-1.616859436E-2,-3.276026249E-2
7.306424134E2,2.997493744E-2,6.087708473E-2,-4.825633764E-2
7.311424134E2,7.500839233E-2,3.365111351E-2,2.012825012E-2
7.316424134E2,1.953411102E-2,7.866227627E-2,-1.927000284E-2
7.321424134E2,9.153842926E-2,-1.155861616E-1,-1.052505374E-1
7.326424134E2,-2.510547638E-2,1.359736919E-2,-1.469067931E-1
7.331424134E2,1.402378082E-2,2.116203308E-2,-4.361385107E-2
7.336424134E2,-3.839588165E-2,6.207108498E-2,-1.878559589E-3
7.341424134E2,-1.079940796E-2,2.125668526E-2,3.537410498E-2
7.346424134E2,-1.373624802E-1,-9.343969822E-2,-1.296865940E-2
7.351424134E2,2.783107758E-2,-2.413916588E-2,2.372276783E-2
7.356424134E2,1.106481552E-1,1.147842407E-2,4.828184843E-2
7.361424134E2,-6.197071075E-2,-6.131839752E-2,3.821700811E-2
7.366424134E2,-2.047920227E-2,3.782021999E-2,-1.078754663E-2
7.371424134E2,3.936481476E-2,-1.393902302E-2,7.697761059E-3
7.376424134E2,3.204917908E-2,2.444076538E-2,-2.440631390E-2
7.381424134E2,1.837635040E-2,2.674531937E-2,-1.436620951E-2
7.386424134E2,-5.157470703E-2,-3.653097153E-2,6.327754259E-2
7.391424134E2,-7.622623444E-2,1.764166355E-2,2.287107706E-2
7.396424134E2,-1.461410522E-1,-6.143867970E-2,-2.810955048E-3
7.401424134E2,-7.956218719E-2,9.947419167E-3,-4.448282719E-2
7.406424134E2,-7.082939148E-2,-9.450483322E-2,-4.775714874E-2
7.411424134E2,1.586151123E-1,-5.943965912E-2,7.650154829E-2
7.416424134E2,2.031230927E-2,-4.995691776E-2,1.780402660E-2
7.421424134E2,1.988506317E-2,-1.252686977E-2,1.634639502E-2
7.426424134E2,-1.554393768E-2,3.974115849E-2,3.988718987E-2
7.431424134E2,2.010030746E-1,1.209092140E-2,1.093250513E-2
7.436424134E2,8.275890350E-2,5.617475510E-2,-2.352207899E-2
7.441424134E2,-2.308464050E-1,-1.988458633E-2,-6.277012825E-2
7.446424134E2,8.423423767E-2,2.711188793E-2,3.471642733E-3
7.451424134E2,2.306270599E-2,-1.889848709E-2,1.759424806E-2
7.456424134E2,2.682657242E-1,3.027188778E-2,9.333610535E-3
7.461424134E2,1.577577591E-1,6.068992615E-2,-4.850685596E-3
7.466424134E2,-1.262311935E-1,-1.949560642E-2,6.807297468E-3
7.471424134E2,1.134929657E-1,1.775258780E-1,-2.231588960E-2
7.476424134E2,3.738689423E-2,8.966588974E-2,-2.169898152E-2
7.481424134E2,9.574317932E-2,-2.203935385E-1,1.243642569E-1
7.486424134E2,1.352567673E-1,1.984339952E-1,-1.003697962E-1
7.491424134E2,3.822193146E-1,-3.640130758E-1,2.125317305E-1
7.496424134E2,2.520904541E-1,6.655502319E-2,1.894473433E-1
7.501424134E2,3.263759613E-2,-8.147084713E-2,3.117677569E-2
7.506424134E2,-1.431684494E-1,-3.175544739E-2,-1.167399883E-1
7.511424134E2,5.252838135E-2,-8.378875256E-2,-2.434477210E-2
7.516424134E2,4.934406281E-2,1.061654091E-1,-1.742158830E-2
7.521424134E2,2.424716949E-2,6.293630600E-2,-6.023988128E-3
7.526424134E2,5.808830261E-3,-5.069780350E-2,-5.971267819E-3
7.531424134E2,1.887502670E-1,7.942271233E-2,9.923562407E-3
7.536424134E2,-3.574562073E-2,1.246476173E-2,5.431473255E-5
7.541424134E2,-6.611347198E-2,1.606631279E-2,-1.820862293E-2
7.546424134E2,-5.419635773E-2,1.541674137E-2,-6.359145045E-3
7.551424134E2,5.837726593E-2,1.053142548E-2,-2.685546875E-3
7.556424134E2,-2.665519714E-3,-5.161976814E-2,8.464604616E-3
7.561424134E2,6.746482849E-2,5.496346951E-2,-5.046494305E-2
7.566424134E2,4.667949677E-2,-2.597463131E-2,1.277284324E-2
7.571424134E2,-6.917858124E-2,-1.253725290E-1,7.335901260E-2
7.576424134E2,1.494312286E-2,2.161943913E-2,-5.516797304E-3
7.581424134E2,-3.860473633E-2,3.937888145E-2,-3.001075983E-2
7.586424134E2,-8.030414581E-2,-4.317891598E-2,-5.537545681E-2
7.591424134E2,-2.081871033E-3,7.186043262E-2,1.914778352E-2
7.596424134E2,-2.816991806E-1,-1.215723753E-1,1.449100971E-1
7.601424134E2,2.282619476E-2,3.178524971E-2,3.467485309E-2
7.606424134E2,-3.762817383E-2,-7.465291023E-2,-7.486753166E-2
7.611424134E2,1.238546371E-1,4.386842251E-2,-1.009624153E-1
7.616424134E2,6.494617462E-2,1.533854008E-2,1.177715659E-1
7.621424134E2,-1.648044586E-2,6.575536728E-2,1.474971473E-1
7.626424134E2,-7.705307007E-2,1.087186337E-1,1.122295856E-3
7.631424134E2,1.607990265E-2,-1.064549685E-1,-7.417981327E-2
7.636424134E2,-1.059722900E-2,3.955543041E-2,-6.683680415E-2
7.641424134E2,8.878612518E-2,-3.630161285E-3,8.354634047E-3
7.646424134E2,-1.437759399E-2,3.594946861E-2,-9.776726365E-3
7.651424134E2,3.238296509E-2,-1.280927658E-2,-5.015924573E-3
7.656424134E2,-1.235971451E-1,6.844329834E-2,-3.517197073E-2
7.661424134E2,-1.703166962E-2,1.879668236E-2,7.677823305E-3
7.666424134E2,-4.610633850E-2,-8.975267410E-4,-9.068399668E-4
7.671424134E2,-2.544784546E-2,3.975880146E-2,-1.249670982E-3
7.676424134E2,4.333496094E-3,2.386391163E-2,1.080138981E-2
7.681424134E2,1.031970978E-2,3.218042850E-2,-1.692391932E-2
7.686424134E2,1.488685608E-2,-4.535079002E-3,-1.534193754E-3
7.691424134E2,1.089096069E-3,3.259193897E-2,5.103886127E-3
7.696424134E2,-1.464366913E-2,-3.307926655E-2,7.686465979E-3
7.701424134E2,7.486343384E-4,-3.742909431E-2,1.391930878E-2
7.706424134E2,-2.177524567E-2,5.556416512E-2,6.563037634E-3
7.711424134E2,-4.493999481E-2,-2.567028999E-2,-1.039102674E-2
7.716424134E2,4.056262970E-2,4.909324646E-2,-7.422141731E-2
7.721424134E2,-4.831314087E-3,4.576683044E-3,-7.187781483E-2
7.726424134E2,9.986782074E-2,-9.675025940E-4,-4.247113317E-2
7.731424134E2,-1.078605652E-2,-1.091837883E-2,-4.358179867E-2
7.736424134E2,4.437160492E-2,1.237821579E-2,-5.174712837E-2
7.741424134E2,4.024696350E-2,2.868902683E-2,-6.956847012E-2
7.746424134E2,8.458042145E-2,-2.000808716E-3,-4.001255333E-2
7.751424134E2,1.001005173E-1,-1.537729502E-1,-3.227408230E-2
7.756424134E2,7.586574554E-2,8.952486515E-2,-3.822006285E-2
7.761424134E2,3.811931610E-2,4.710137844E-2,-1.464860141E-2
7.766424134E2,-3.923416138E-2,8.657312393E-2,-2.299883962E-2
7.771424134E2,1.419353485E-2,1.241910458E-1,-5.584162474E-2
7.776424134E2,-9.457588196E-2,-4.396486282E-2,1.975610852E-2
7.781424134E2,-1.085376740E-1,8.267879486E-3,-2.204218507E-2
7.786424134E2,-9.107303619E-2,-6.167232990E-2,1.909829676E-2
7.791424134E2,7.366657257E-2,4.509627819E-2,-3.966078162E-2
7.796424134E2,5.360603333E-2,1.422524452E-3,-2.519041300E-3
7.801424134E2,9.480476379E-3,-9.961485863E-3,-4.765978456E-2
7.806424134E2,3.137969971E-2,-7.949984074E-2,-1.646003127E-2
7.811424134E2,8.948707581E-2,1.921737194E-2,2.073481679E-3
7.816424134E2,2.981472015E-2,-6.610751152E-2,2.924627066E-2
7.821424134E2,-2.052021027E-2,-3.205323219E-2,-1.978592575E-2
7.826424134E2,2.947807312E-3,-1.816630363E-2,-2.451620996E-3
7.831424134E2,2.348423004E-2,7.131338120E-2,7.917348295E-3
7.836424134E2,-3.058242798E-2,-6.410610676E-2,5.747267976E-3
7.841424134E2,5.664920807E-2,3.195726871E-2,2.530620247E-2
7.846424134E2,-3.001880646E-2,-2.716827393E-2,-3.970200196E-3
7.851424134E2,-1.028728485E-2,5.077493191E-2,-3.271435201E-2
7.856424134E2,-6.122016907E-2,-3.625977039E-2,-3.747739643E-2
7.861424134E2,-2.474784851E-2,-2.168524265E-2,-3.357034922E-2
7.866424134E2,-9.775161743E-4,4.328191280E-2,-2.644024789E-2
7.871424134E2,-4.546165466E-2,1.126137972E-1,-4.569236934E-2
7.876424134E2,-1.483440399E-2,-7.100856304E-2,3.029257059E-2
7.881424134E2,-1.323604584E-2,9.507656097E-2,1.166023500E-2
7.886424134E2,-2.978992462E-2,-1.732808352E-1,3.926027566E-2
7.891424134E2,-2.541828156E-2,1.072875261E-1,-3.262446076E-2
7.896424134E2,5.179405212E-3,-1.474881172E-2,-2.235393599E-2
7.901424134E2,-7.188796997E-3,2.485060692E-2,-3.573010489E-2
7.906424134E2,-1.178264618E-2,-4.643714428E-2,-4.967653006E-2
7.911424134E2,2.315807343E-2,8.341538906E-2,-8.627653122E-3
7.916424134E2,-2.660751343E-3,7.237923145E-2,-3.415189683E-2
7.921424134E2,1.269054413E-2,-2.536904812E-2,6.486326456E-3
7.926424134E2,5.259418488E-2,8.755683899E-2,-5.956918001E-3
7.931424134E2,-5.121231079E-4,-7.921802998E-2,2.872854471E-3
7.936424134E2,2.821636200E-2,7.381343842E-2,-2.612030506E-2
7.941424134E2,-8.574485779E-3,-6.528484821E-2,-1.160837412E-1
7.946424134E2,2.066898346E-2,-4.944288731E-2,-8.541393280E-2
7.951424134E2,-6.835937500E-3,1.272356510E-2,8.037066460E-2
7.956424134E2,2.296543121E-2,1.405191422E-2,1.139994264E-1
7.961424134E2,-2.614879608E-2,1.628518105E-3,5.639791489E-4
7.966424134E2,8.393287659E-3,1.470959187E-2,4.962271452E-2
7.971424134E2,1.781940460E-2,-1.688659191E-2,4.070249200E-2
7.976424134E2,1.507854462E-2,3.075850010E-2,2.478834987E-2
7.981424134E2,-7.811546326E-3,-1.749348640E-2,4.309713840E-4
7.986424134E2,1.394081116E-2,-1.735687256E-4,1.320970058E-2
7.991424134E2,6.284713745E-4,-4.994630814E-3,1.106810570E-2
7.996424134E2,2.987861633E-3,1.305639744E-2,5.478858948E-3
8.001424134E2,-1.840496063E-2,1.334357262E-2,2.100175619E-2
8.006424134E2,2.418518066E-3,2.866983414E-4,1.434758306E-2
8.011424134E2,2.923011780E-3,4.887461662E-3,-6.113320589E-3
8.016424134E2,-5.798339844E-4,6.314396858E-3,7.751733065E-3
8.021424134E2,3.586769104E-3,-3.793239594E-4,8.794575930E-3
8.026424134E2,3.929138184E-4,2.719521523E-3,1.327922940E-2
8.031424134E2,2.076148987E-3,-2.110004425E-5,1.155894995E-2
8.036424134E2,7.313728333E-3,8.356571198E-4,-8.751749992E-4
8.041424134E2,2.626419067E-3,-2.796769142E-3,-3.173112869E-3
8.046424134E2,-5.472183228E-3,5.019903183E-4,1.243263483E-3
8.051424134E2,1.780509949E-3,-1.663088799E-3,-4.623264074E-3
8.056424134E2,-3.027915955E-3,1.258933544E-2,-6.729871035E-3
8.061424134E2,5.162239075E-3,1.056063175E-2,1.276493073E-3
8.066424134E2,-8.701324463E-3,-3.995418549E-3,4.250675440E-3
8.071424134E2,-7.154464722E-3,-5.273222923E-3,4.103630781E-3
8.076424134E2,-2.087593079E-3,6.421208382E-3,2.703636885E-3
8.081424134E2,2.331733704E-3,6.997585297E-5,1.242876053E-3
8.086424134E2,1.452445984E-3,7.889270782E-3,9.568214417E-3
8.091424134E2,-6.952285767E-4,3.703355789E-3,3.905862570E-3
8.096424134E2,-1.754760742E-4,1.577138901E-3,-4.878193140E-3
8.101424134E2,5.343437195E-3,3.770589828E-4,-4.692792892E-3
8.106424134E2,9.751319885E-3,2.319097519E-3,-4.656136036E-3
8.111424134E2,4.069328308E-3,9.911060333E-4,2.439260483E-3
8.116424134E2,-4.380226135E-3,-1.261830330E-3,-6.952106953E-3
8.121424134E2,3.468513489E-3,6.381273270E-4,-1.940676570E-2
8.126424134E2,7.352828979E-4,-6.510019302E-4,-6.674677134E-3
8.131424134E2,-9.552955627E-3,-2.237677574E-3,3.587761521E-2
8.136424134E2,-2.302837372E-2,1.807034016E-2,1.810696125E-1
8.141424134E2,-1.431751251E-2,-4.165530205E-3,4.024114087E-2
8.146424134E2,2.628326416E-3,3.984212875E-3,5.806266516E-2
8.151424134E2,-1.932144165E-3,7.125735283E-3,1.256718487E-2
8.156424134E2,5.769729614E-4,1.611113548E-3,1.242277771E-2
8.161424134E2,7.791519165E-4,-5.164027214E-3,5.232267082E-3
8.166424134E2,2.337455750E-3,-6.069302559E-3,-3.061473370E-3
8.171424134E2,3.113746643E-3,3.680348396E-3,-1.574426889E-3
8.176424134E2,-1.765251160E-3,-1.898765564E-3,2.491541207E-3
8.181424134E2,-4.587173462E-4,2.398967743E-3,2.003103495E-3
8.186424134E2,-3.786087036E-4,-4.815578461E-3,-2.265647054E-4
8.191424134E2,1.022338867E-3,3.815889359E-4,-8.784458041E-4
8.196424134E2,-8.678436279E-4,-1.645088196E-5,-3.027543426E-4
8.201424134E2,-8.478164673E-4,1.632332802E-3,1.513719559E-3
8.206424134E2,-5.044937134E-4,-2.990961075E-4,1.938752830E-3
8.211424134E2,1.125335693E-4,-1.083612442E-4,5.673617125E-4
8.216424134E2,-3.824234009E-4,-5.036473274E-3,-2.449072897E-3
8.221424134E2,1.284599304E-3,-4.523992538E-4,-2.922832966E-3
8.226424134E2,-3.461837769E-4,6.515979767E-4,1.537732780E-3
8.231424134E2,1.636505127E-3,1.075148582E-3,2.885833383E-4
8.236424134E2,-4.625320435E-4,8.821487427E-6,3.055192530E-3
8.241424134E2,-1.020431519E-4,1.747608185E-4,1.911073923E-3
8.246424134E2,-8.296966553E-5,3.813266754E-3,2.488270402E-4
8.251424134E2,-3.461837769E-4,-2.074599266E-3,-2.008847892E-3
8.256424134E2,-2.794265747E-4,-9.185075760E-4,1.210600138E-3
8.261424134E2,-6.341934204E-4,4.221200943E-4,-1.121170819E-3
8.266424134E2,4.043579102E-4,-1.041173935E-3,1.011744142E-3
8.271424134E2,-1.426696777E-3,3.023147583E-4,1.172594726E-3
8.276424134E2,3.871917725E-4,-1.059532166E-3,2.041928470E-3
8.281424134E2,-4.291534424E-4,-2.318978310E-3,-2.754479647E-4
8.286424134E2,-6.856918335E-4,-1.067399979E-3,-2.201713622E-3
8.291424134E2,9.250640869E-5,8.670091629E-4,3.187932074E-3
8.296424134E2,-1.445770264E-3,-3.685951233E-4,1.416280866E-4
8.301424134E2,6.713867188E-4,1.211643219E-3,2.357825637E-3
8.306424134E2,-1.519203186E-3,6.977319717E-4,-1.970142126E-3
8.311424134E2,1.381874084E-3,-1.549124718E-3,-1.775912941E-3
8.316424134E2,5.912780762E-4,-1.453995705E-3,-2.942204475E-3
8.321424134E2,1.239776611E-5,5.857944489E-4,1.570306718E-3
8.326424134E2,2.110481262E-3,-3.148317337E-4,-1.508727670E-3
8.331424134E2,9.746551514E-4,-1.897811890E-4,-9.018480778E-4
8.336424134E2,-8.611679077E-4,1.052141190E-3,3.542229533E-4
8.341424134E2,5.264282227E-4,2.673864365E-4,-1.651309431E-3
8.346424134E2,1.475334167E-3,-1.962423325E-3,-4.317238927E-4
8.351424134E2,5.140304565E-4,1.004934311E-4,8.217021823E-4
8.356424134E2,-1.592636108E-4,-3.448724747E-4,1.078106463E-3
8.361424134E2,-7.482528687E-3,-3.360509872E-4,2.773535252E-2
8.366424134E2,1.837158203E-2,2.401554585E-2,1.441167891E-1
8.371424134E2,-6.077766418E-3,1.715040207E-2,2.795098424E-1
8.376424134E2,-4.307746887E-3,1.004922390E-2,1.047696471E-1
8.381424134E2,4.528999329E-3,-4.973530769E-3,2.174568176E-2
8.386424134E2,1.067161560E-3,-2.848029137E-3,9.365856647E-3
8.391424134E2,-8.459091187E-4,-2.033710480E-3,-4.504978657E-3
8.396424134E2,5.235671997E-4,1.656293869E-3,1.663386822E-3
8.401424134E2,-8.149147034E-3,-5.503773689E-3,1.949429512E-3
8.406424134E2,-3.564834595E-3,-3.275632858E-3,-7.968544960E-4
8.411424134E2,8.459091187E-4,-1.363039017E-3,-1.386404037E-4
8.416424134E2,-1.713752747E-3,-3.351092339E-3,-2.266526222E-3
8.421424134E2,-4.314422607E-3,-7.739067078E-4,-5.594074726E-3
8.426424134E2,1.435279846E-3,-5.120038986E-4,-7.520258427E-3
8.431424134E2,-4.224777222E-4,-2.748727798E-3,-2.926111221E-3
8.436424134E2,-9.715080261E-3,-4.113435745E-3,-7.390081882E-3
8.441424134E2,2.993583679E-3,-3.311991692E-3,9.942293167E-3
8.446424134E2,-1.311969757E-2,-7.832288742E-3,-1.006656885E-2
8.451424134E2,-1.287555695E-2,1.006436348E-2,-6.476461887E-3
8.456424134E2,8.229255676E-3,-6.281137466E-4,8.091449738E-3
8.461424134E2,1.792621613E-2,-1.415181160E-2,3.052592278E-3
8.466424134E2,5.543708801E-3,-3.986001015E-3,5.563378334E-3
8.471424134E2,1.671028137E-2,-5.248069763E-3,1.029622555E-2
8.476424134E2,8.219718933E-3,4.709601402E-3,3.338336945E-3
8.481424134E2,8.602142334E-3,-1.737177372E-2,-1.792073250E-3
8.486424134E2,-4.487037659E-3,-4.975199699E-3,3.363370895E-3
8.491424134E2,2.717971802E-4,3.204941750E-2,-1.419305801E-3
8.496424134E2,-3.983497620E-3,-3.857779503E-2,6.176948547E-3
8.501424134E2,-2.281570435E-2,-1.108324528E-2,-4.729270935E-3
8.506424134E2,1.899814606E-2,-8.430361748E-3,1.206338406E-2
8.511424134E2,-8.123397827E-3,5.640864372E-3,-8.385777473E-3
8.516424134E2,-4.305839539E-3,-2.296626568E-2,-1.942276955E-3
8.521424134E2,1.853275299E-2,-5.694270134E-3,8.192300797E-3
8.526424134E2,-1.306819916E-2,-5.197536945E-2,2.272725105E-3
8.531424134E2,-2.965545654E-2,-1.470875740E-2,-1.795876026E-2
8.536424134E2,-1.629543304E-2,-5.586028099E-3,1.249551773E-2
8.541424134E2,1.164150238E-2,-1.353802681E-1,4.570305347E-2
8.546424134E2,-4.381752014E-2,1.014183760E-1,-3.417432308E-2
8.551424134E2,-1.257896423E-3,-2.578973770E-3,-1.639080048E-2
8.556424134E2,-7.792472839E-3,1.377499104E-2,3.318417072E-2
8.561424134E2,-1.834774017E-2,-1.677739620E-2,2.177453041E-2
8.566424134E2,1.532649994E-2,-4.938602448E-3,2.534747124E-3
8.571424134E2,-8.628845215E-3,-5.895900726E-2,-5.070954561E-2
8.576424134E2,-1.952886581E-1,6.117105484E-3,-4.205656052E-2
8.581424134E2,-2.979135513E-1,-3.081331253E-1,-4.177451134E-2
8.586424134E2,-1.594352722E-2,1.904631853E-1,-1.117825508E-2
8.591424134E2,-4.117879868E-1,-6.962692738E-2,-6.770753860E-2
8.596424134E2,1.472444534E-1,-8.177995682E-2,2.156233788E-2
8.601424134E2,1.875247955E-1,4.079997540E-2,-1.876318455E-2
8.606424134E2,5.338954926E-2,3.203594685E-2,-7.946568727E-2
8.611424134E2,-2.809238434E-2,-9.713888168E-3,5.490183830E-3
8.616424134E2,-9.473800659E-2,-3.232538700E-2,-2.968549728E-3
8.621424134E2,-6.890296936E-3,1.087161303E-1,4.589676857E-3
8.626424134E2,3.916454315E-2,2.846014500E-2,-8.738994598E-3
8.631424134E2,-8.704280853E-2,1.579637527E-1,-5.176746845E-2
8.636424134E2,3.387832642E-2,1.411691904E-1,-3.679645061E-2
8.641424134E2,-1.365928650E-1,-4.048776627E-2,-1.100718975E-2
8.646424134E2,6.392478943E-2,4.199612141E-2,-2.019149065E-2
8.651424134E2,-8.749198914E-2,-3.315293789E-2,-2.770662308E-2
8.656424134E2,1.604366302E-2,3.285336494E-2,-4.967504740E-2
8.661424134E2,-1.199474335E-1,8.848333359E-2,-8.512395620E-2
8.666424134E2,-2.542114258E-2,-9.031629562E-2,1.520150900E-2
8.671424134E2,-3.416824341E-2,-3.748643398E-2,-1.127254963E-2
8.676424134E2,-6.044197083E-2,-9.780740738E-2,2.205210924E-2
8.681424134E2,-6.932258606E-3,-2.793395519E-2,-5.521237850E-3
8.686424134E2,1.676654816E-1,-1.077210903E-2,1.073330641E-2
8.691424134E2,-5.188083649E-2,2.344071865E-3,-3.210765123E-2
8.696424134E2,8.792209625E-2,-7.785004377E-2,1.792168617E-2
8.701424134E2,9.165287018E-2,-1.657009125E-4,-6.014233828E-2
8.706424134E2,-3.677845001E-2,-1.612830162E-2,-7.767170668E-2
8.711424134E2,-5.902290344E-3,-8.479499817E-2,-7.469198108E-2
8.716424134E2,1.019992828E-1,1.219666004E-2,2.395093441E-3
8.721424134E2,1.682481766E-1,3.140449524E-2,-2.146628499E-2
8.726424134E2,3.970146179E-3,8.761537075E-2,-6.431993842E-2
8.731424134E2,-7.287216187E-2,4.952526093E-2,-1.668861061E-1
8.736424134E2,7.369995117E-3,1.191567183E-1,2.887764573E-2
8.741424134E2,7.631397247E-2,1.024824381E-1,5.639410019E-2
8.746424134E2,-1.149482727E-1,-2.013337612E-2,-8.349975944E-2
8.751424134E2,-7.998275757E-2,-4.129767418E-3,-3.608262539E-2
8.756424134E2,-6.619739532E-2,-2.960765362E-2,-1.004728675E-2
8.761424134E2,5.699729919E-2,-3.033101559E-2,2.864301205E-4
8.766424134E2,-4.698753357E-3,6.063783169E-2,6.523042917E-3
8.771424134E2,-1.793766022E-2,7.480716705E-2,2.781930566E-2
8.776424134E2,3.077039719E-1,7.912468910E-2,-1.318329573E-2
8.781424134E2,-1.154327393E-2,-1.262093782E-1,-2.031311393E-2
8.786424134E2,5.105113983E-2,1.082006693E-1,-1.666994393E-2
8.791424134E2,3.064155579E-3,1.144456863E-2,-5.674466491E-3
8.796424134E2,8.022975922E-2,7.391667366E-2,-1.099070907E-2
8.801424134E2,2.147989273E-1,6.290793419E-3,5.766782165E-2
8.806424134E2,-1.620359421E-1,9.822463989E-2,8.072480559E-2
8.811424134E2,-5.328941345E-2,4.087269306E-2,-1.661953330E-2
8.816424134E2,-1.770992279E-1,-2.597784996E-2,-1.210875064E-1
8.821424134E2,-4.588127136E-3,-2.487528324E-2,-2.730153501E-2
8.826424134E2,-8.804225922E-2,-3.191626072E-2,7.162219286E-2
8.831424134E2,-1.808843613E-1,-5.953252316E-2,3.026399016E-2
8.836424134E2,-4.276037216E-1,1.273524761E-1,-1.273871213E-1
8.841424134E2,-2.891302109E-1,1.252049208E-1,-4.820629954E-2
8.846424134E2,1.332254410E-1,1.618553400E-1,1.161574721E-1
8.851424134E2,-5.611515045E-2,-8.745980263E-2,5.476728082E-2
8.856424134E2,9.817981720E-2,6.913304329E-3,-6.712687016E-2
8.861424134E2,-9.681415558E-2,-3.308308125E-2,-7.086752355E-2
8.866424134E2,-4.920864105E-2,-7.402110100E-2,2.889993787E-2
8.871424134E2,1.204042435E-1,6.467235088E-2,1.300865114E-1
8.876424134E2,1.399812698E-1,-1.124602556E-1,-3.259989619E-2
8.881424134E2,1.782379150E-1,8.509433270E-2,-1.293912828E-1
8.886424134E2,-1.265211105E-1,-4.566907883E-4,-8.630207181E-2
8.891424134E2,2.683544159E-2,-5.953431129E-3,6.207898259E-2
8.896424134E2,-3.380107880E-2,5.832016468E-2,3.217011690E-3
8.901424134E2,-1.199607849E-1,-3.568601608E-2,3.462836146E-2
8.906424134E2,-1.119318008E-1,8.387684822E-3,2.500414848E-4
8.911424134E2,1.073141098E-1,4.815220833E-2,4.061269760E-2
8.916424134E2,3.507423401E-2,-4.065990448E-3,6.884336472E-5
8.921424134E2,-8.367538452E-3,8.926987648E-3,-5.378633738E-2
8.926424134E2,1.782274246E-1,5.725002289E-2,-8.660361171E-2
8.931424134E2,3.103637695E-1,-6.940722466E-2,-5.927860737E-3
8.936424134E2,1.271491051E0,2.437403202E-1,2.215036750E-1
8.941424134E2,-4.512910843E-1,2.066302299E-2,-2.149164677E-2
8.946424134E2,-1.491622925E-1,2.943778038E-1,-6.936031580E-2
8.951424134E2,-2.684450150E-1,-8.567893505E-2,-1.292699575E-2
8.956424134E2,-3.945922852E-2,9.987771511E-2,-6.276309490E-3
8.961424134E2,1.893234253E-2,-6.472837925E-2,-1.842087507E-2
8.966424134E2,-6.824207306E-2,-1.240396500E-2,1.197785139E-2
8.971424134E2,-1.118459702E-1,8.496844769E-2,-7.609754801E-2
8.976424134E2,-1.016721725E-1,-4.893612862E-2,3.790503740E-2
8.981424134E2,-2.431774139E-2,1.465070248E-2,1.882499456E-2
8.986424134E2,-2.609062195E-2,-1.565265656E-2,-4.495382309E-3
8.991424134E2,8.524799347E-2,-3.960084915E-2,-1.168776155E-1
8.996424134E2,1.068716049E-1,-3.600394726E-2,3.697094321E-2
9.001424134E2,4.082775116E-2,-2.755522728E-3,8.400264382E-2
9.006424134E2,-1.031208038E-2,4.753553867E-2,-2.342741191E-2
9.011424134E2,3.021049500E-2,-5.839860439E-2,2.216498554E-2
9.016424134E2,-1.262092590E-2,-7.878279686E-2,-1.111490354E-1
9.021424134E2,2.618503571E-2,-3.487956524E-2,-2.626619302E-2
9.026424134E2,8.681964874E-2,1.155698299E-2,7.102936506E-2
9.031424134E2,1.383962631E-1,1.423144341E-2,-3.804972768E-2
9.036424134E2,4.394245148E-2,-2.421331406E-2,2.641088516E-2
9.041424134E2,-5.885124207E-3,-5.557918549E-2,-1.455660164E-2
9.046424134E2,2.724647522E-3,-1.774728298E-2,-3.368198872E-3
9.051424134E2,5.687713623E-2,-3.787732124E-2,8.389671892E-2
9.056424134E2,-6.954097748E-2,-2.428627014E-2,5.080185831E-2
9.061424134E2,8.711910248E-2,-3.728628159E-2,2.397321165E-2
9.066424134E2,1.582765579E-1,1.282691956E-4,4.775125533E-2
9.071424134E2,-2.689361572E-3,3.108656406E-2,6.866046786E-2
9.076424134E2,5.636692047E-2,-5.376696587E-3,1.546362787E-2
9.081424134E2,9.666442871E-3,-5.655646324E-3,4.158608615E-2
9.086424134E2,-6.647968292E-2,9.086608887E-3,7.304856181E-2
9.091424134E2,6.041526794E-2,4.791152477E-2,3.599499166E-2
9.096424134E2,-7.509517670E-2,-6.368637085E-2,-2.036172152E-2
9.101424134E2,-2.032279968E-3,6.930470467E-2,-1.695246994E-2
9.106424134E2,4.217052460E-2,-1.127243042E-3,-9.295344353E-3
9.111424134E2,2.166748047E-3,6.527483463E-2,6.620794535E-3
9.116424134E2,-1.428995132E-1,2.344477177E-2,-3.965486586E-2
9.121424134E2,7.248783112E-2,-3.352713585E-2,-7.496222854E-3
9.126424134E2,-5.307865143E-2,-8.063042164E-2,7.731407881E-3
9.131424134E2,7.598209381E-2,-4.761874676E-2,1.281382143E-2
9.136424134E2,7.022666931E-2,-8.972597122E-2,2.293181419E-2
9.141424134E2,2.120904922E-1,1.173770428E-2,2.116054296E-3
9.146424134E2,2.872724533E-1,6.775581837E-2,3.059852123E-2
9.151424134E2,2.982616425E-2,-2.590739727E-2,-8.054003119E-3
9.156424134E2,4.968643188E-4,-8.752548695E-2,-5.013670027E-2
9.161424134E2,-1.771392822E-1,2.888286114E-2,4.155471921E-3
9.166424134E2,-4.034528732E-1,-3.048145771E-2,-1.741405874E-1
9.171424134E2,-1.126251221E-1,4.562151432E-2,-1.216208562E-2
9.176424134E2,-8.619556427E-1,-7.789778709E-2,-8.598829806E-2
9.181424134E2,-2.741317749E-1,-1.046676636E-1,-7.780579478E-2
9.186424134E2,-2.573795319E-1,-7.564175129E-2,-1.288834810E-1
9.191424134E2,-1.268548965E-1,1.016517878E-1,-1.933868676E-1
9.196424134E2,-3.733339310E-1,-1.487740278E-1,-1.050938368E-1
9.201424134E2,-2.505092621E-1,-1.021028757E-1,1.108890772E-2
9.206424134E2,-1.553535461E-3,5.679404736E-2,5.414984375E-2
9.211424134E2,3.776550293E-3,-5.422788858E-2,8.511725813E-2
9.216424134E2,4.282951355E-2,-7.443565130E-2,-5.225902796E-2
9.221424134E2,4.242200851E-1,2.520759106E-1,5.216838419E-2
9.226424134E2,-5.377473831E-1,-4.080340266E-1,-1.115550399E-1
9.231424134E2,-1.396884918E-1,-3.691458702E-2,-5.973832309E-2
9.236424134E2,-9.136199951E-4,-6.710880995E-2,7.108896971E-3
9.241424134E2,-4.916477203E-2,1.490482092E-1,5.516728014E-2
9.246424134E2,5.071830750E-2,-1.042299271E-1,2.672014385E-2
9.251424134E2,-8.664131165E-3,2.266157866E-1,-2.997174859E-2
9.256424134E2,-6.807327271E-2,-9.614217281E-2,-3.512689471E-2
9.261424134E2,9.185886383E-2,1.321793795E-1,-7.507528365E-2
9.266424134E2,-6.266593933E-3,-7.744300365E-2,2.362561226E-2
9.271424134E2,4.755973816E-3,-1.205062866E-2,-3.980711102E-3
9.276424134E2,1.176500320E-1,1.787534952E-1,2.568745613E-2
9.281424134E2,-1.098918915E-2,2.639544010E-2,-7.391677797E-2
9.286424134E2,-3.100299835E-2,9.545326233E-3,3.091770411E-2
9.291424134E2,-1.187858582E-1,6.385147572E-2,-1.446650922E-2
9.296424134E2,2.058305740E-1,1.827061176E-2,-1.793681085E-2
9.301424134E2,-7.002353668E-2,9.571266174E-2,-1.095940173E-2
9.306424134E2,3.116025925E-1,-4.923677444E-2,1.178558171E-2
9.311424134E2,1.530618668E-1,7.604885101E-2,1.159712449E-1
9.316424134E2,-1.261711121E-3,2.593696117E-2,4.807197675E-2
9.321424134E2,6.596851349E-2,8.143031597E-2,1.507432163E-1
9.326424134E2,-6.298923492E-2,-2.103543282E-2,1.590784043E-1
9.331424134E2,-6.729793549E-2,-1.142621040E-3,4.651291668E-2
9.336424134E2,-1.859960556E-1,-8.155989647E-2,-7.361464947E-2
9.341424134E2,1.132640839E-1,7.547295094E-2,9.219378233E-2
9.346424134E2,-5.676746368E-2,-1.167231798E-1,3.124735504E-2
9.351424134E2,4.452037811E-2,5.569958687E-2,-2.232944593E-2
9.356424134E2,5.096530914E-2,-1.089203358E-1,1.740004495E-2
9.361424134E2,-5.635929108E-2,2.594244480E-2,-2.387754619E-3
9.366424134E2,-4.498004913E-2,-9.299743176E-2,-3.305858374E-2
9.371424134E2,4.882717133E-2,3.863251209E-2,6.462179124E-3
9.376424134E2,-1.187324524E-3,-3.922545910E-2,4.380561411E-3
9.381424134E2,-1.370429993E-3,1.681256294E-2,-1.167733967E-2
9.386424134E2,-3.069877625E-3,-1.293694973E-2,-2.125634253E-2
9.391424134E2,2.089595795E-2,1.643741131E-2,-6.173625588E-3
9.396424134E2,-1.241779327E-2,-9.477853775E-3,2.839982510E-3
9.401424134E2,6.113052368E-4,4.110217094E-3,2.028450370E-3
9.406424134E2,1.524257660E-2,7.641673088E-3,8.691251278E-4
9.411424134E2,-1.756763458E-2,-7.066845894E-3,-5.958363414E-3
9.416424134E2,-5.970001221E-4,5.717396736E-3,9.866818786E-3
9.421424134E2,-9.329795837E-3,-5.322575569E-3,1.225902140E-2
9.426424134E2,-2.149200439E-2,-2.853393555E-3,3.460362181E-2
9.431424134E2,-1.715660095E-3,-2.909302711E-3,9.165573120E-2
9.436424134E2,-7.095336914E-4,-1.637458801E-3,-1.288402081E-2
9.441424134E2,2.816200256E-3,-1.020920277E-2,-5.326835811E-2
9.446424134E2,-1.410865784E-2,9.209275246E-3,1.051079333E-1
9.451424134E2,-1.593112946E-2,4.763603210E-3,1.316916943E-2
9.456424134E2,-6.752967834E-3,-2.510118484E-2,-9.453921020E-2
9.461424134E2,2.573966980E-3,1.606833935E-2,-6.033319607E-2
9.466424134E2,4.361152649E-3,-1.077759266E-2,-3.290428966E-2
9.471424134E2,-1.656532288E-3,6.709694862E-3,-1.593342051E-2
9.476424134E2,-1.006507874E-2,-2.483546734E-2,-2.578750625E-2
9.481424134E2,2.141857147E-2,1.421642303E-2,-1.779708266E-2
9.486424134E2,-8.316040039E-4,-1.330196857E-2,-8.757777512E-3
9.491424134E2,-6.056785583E-3,3.727912903E-3,-9.516403079E-3
9.496424134E2,-2.564430237E-3,-2.015829086E-4,-5.860455334E-3
9.501424134E2,5.045890808E-3,3.461241722E-3,-1.544691622E-2
9.506424134E2,1.007747650E-2,5.074381828E-3,-4.193559289E-3
9.511424134E2,4.593849182E-3,-6.092190742E-3,-1.569931209E-2
9.516424134E2,-1.717567444E-3,4.011511803E-3,-7.315739989E-3
9.521424134E2,1.955032349E-4,-1.094937325E-3,3.045648336E-3
9.526424134E2,1.022624969E-2,1.066923141E-3,-5.970984697E-3
9.531424134E2,2.924919128E-3,2.921104431E-3,5.583718419E-3
9.536424134E2,6.732940674E-3,4.518270493E-3,-2.860724926E-4
9.541424134E2,-1.837730408E-3,3.334403038E-3,-3.038913012E-3
9.546424134E2,1.439094543E-3,-4.747390747E-3,-3.815099597E-3
9.551424134E2,3.642082214E-3,-4.731297493E-3,-2.602592111E-3
9.556424134E2,2.946853638E-3,-4.516482353E-3,-3.018364310E-3
9.561424134E2,-8.525848389E-4,1.155138016E-4,-2.169981599E-3
9.566424134E2,-1.401901245E-4,5.828142166E-4,-3.222331405E-3
9.571424134E2,-1.673889160E-2,1.109315157E-1,1.130015403E-1
9.576424134E2,-2.932548523E-3,6.005764008E-3,-2.611733079E-1
9.581424134E2,-1.114559174E-2,-3.958046436E-3,-9.270768166E-1
9.586424134E2,5.632942677E0,-3.800561905E0,-6.995064020E-1
9.591424134E2,-5.589957237E-1,-8.243980408E-1,-3.167065144E0
9.596424134E2,-3.634507656E-1,4.547085762E-1,-2.443232536E-1
