"Time (s)","Acceleration x (m/s^2)","Acceleration y (m/s^2)","Acceleration z (m/s^2)"
5.920431000E-3,5.994618893E0,3.946960926E0,5.821139336E0
2.692678600E-2,5.382654667E0,3.922434568E0,5.481358528E0
5.269267860E-1,5.071587563E0,-2.324028969E0,6.645466805E0
1.026926786E0,7.033103943E0,-6.492326260E0,-1.942971945E0
1.526926786E0,-1.196411322E-3,-7.637889862E0,-1.292124242E-1
2.026926786E0,4.618147850E0,-4.509872437E0,-8.195417523E-1
2.526926786E0,1.711466432E0,-6.138786316E0,-6.460621357E-1
3.026926786E0,3.574877024E0,-5.742774487E0,-1.566102386E0
3.526926786E0,2.453839540E0,-5.500501156E0,-1.916052699E0
4.026926786E0,4.956732273E0,-4.095315933E0,-3.104089260E0
4.526926786E0,5.852844238E0,-3.836292982E0,-4.434498787E0
5.026926786E0,5.439484119E0,-5.011766911E0,-3.874577999E0
5.526926786E0,7.181458950E0,-5.191228867E0,-3.619144201E0
6.026926786E0,5.648257732E0,-6.570691109E0,-2.620140910E-1
6.526926786E0,4.016951084E0,-9.087940216E0,-1.543370634E-1
7.026926786E0,3.521038532E0,-1.195454216E1,-5.383851007E-2
7.526926786E0,3.195016384E0,-9.803992271E0,-3.821935892E0
8.026926786E0,3.988237143E0,-1.187438202E1,-2.920439959E0
8.526926786E0,2.443670034E0,-9.384650230E0,-3.324826956E0
9.026926786E0,9.231510162E0,-8.581858635E0,-9.637092948E-1
9.526926786E0,6.149554253E0,-1.092383385E1,-1.384247899E0
1.002692679E1,1.230748367E1,-1.423908901E1,-8.099704385E-1
1.052692679E1,4.217947960E0,-1.409970760E1,2.135594189E-1
1.102692679E1,9.175876617E0,-8.783453941E0,-4.212564468E0
1.152692679E1,5.340780258E0,-1.068156052E1,-1.256231871E-2
1.202692679E1,5.064409256E0,-9.424132347E0,-7.142575383E-1
1.252692679E1,4.593023300E0,-8.030312538E0,-3.544368505E0
1.302692679E1,1.001994491E0,-8.199007034E0,1.491326690E0
1.352692679E1,3.943371773E0,-3.962514400E0,-2.172683001E0
1.402692679E1,3.397808075E0,-7.083951473E0,8.757730722E-1
1.452692679E1,-1.141974568E0,-7.585247993E0,-2.243271112E0
1.502692679E1,3.890729666E0,-5.443073273E0,2.450250387E0
1.552692679E1,2.514258385E0,-4.200001717E0,-3.086741209E0
1.602692679E1,3.689732552E0,-5.598008633E0,5.371887088E-1
1.652692679E1,2.365305185E0,-4.204787731E0,-3.377469063E0
1.702692679E1,1.802393675E0,-7.315456867E0,2.632105052E-1
1.752692679E1,2.056032896E0,-6.564708710E0,-1.754537225E0
1.802692679E1,2.997608662E0,-7.554739475E0,-6.281159520E-1
1.852692679E1,2.882753134E0,-7.995018482E0,-9.798609018E-1
1.902692679E1,4.118646145E0,-8.935996056E0,-2.991028309E0
1.952692679E1,3.782454491E0,-1.140419292E1,-1.491924882E0
2.002692679E1,3.226721287E0,-1.061157036E1,-3.267399311E0
2.052692679E1,3.402593851E0,-1.286022568E1,-1.136590727E-2
2.102692679E1,3.360719442E0,-1.104885864E1,-2.441875458E0
2.152692679E1,6.262615204E0,-1.200838089E1,-1.528415442E0
2.202692679E1,3.165106058E0,-1.247139168E1,-2.145763636E0
2.252692679E1,8.992227554E0,-1.210469151E1,-3.025724173E0
2.302692679E1,3.069393158E0,-1.313360500E1,-1.710269928E0
2.352692679E1,6.870990276E0,-1.143470097E1,-4.031906128E-1
2.402692679E1,2.579462767E0,-1.333400440E1,-1.730608940E0
2.452692679E1,8.703293800E0,-9.995418549E0,-1.526620865E0
2.502692679E1,2.442473650E0,-1.189831066E1,-1.271785259E0
2.552692679E1,1.063669491E1,-1.058704376E1,-1.532602906E0
2.602692679E1,4.069592953E0,-1.299661636E1,-1.802393675E0
2.652692679E1,9.681360245E0,-9.550353050E0,-3.621536970E0
2.702692679E1,5.993422508E0,-9.418149948E0,-2.999403238E0
2.752692679E1,7.147959232E0,-8.508877754E0,-3.251247883E0
2.802692679E1,6.019145489E0,-8.852247238E0,-5.182853699E0
2.852692679E1,7.308876991E0,-7.054041386E0,-1.724028707E0
2.902692679E1,5.143372059E0,-7.676175117E0,-4.552943230E0
2.952692679E1,5.870192051E0,-1.027597713E1,-1.070788130E-1
3.002692679E1,6.471388817E0,-6.037689686E0,-5.709274769E0
3.052692679E1,4.937589645E0,-1.001515961E1,-1.226919770E0
3.102692679E1,5.827121258E0,-5.907280922E0,-2.807977438E0
3.152692679E1,2.501097918E0,-8.872586250E0,7.980063558E-1
3.202692679E1,5.093122959E0,-4.900500774E0,-3.925425529E0
3.252692679E1,3.524029493E0,-7.027122021E0,8.404789567E-1
3.302692679E1,7.421339512E0,-4.939982414E0,-3.244667530E0
3.352692679E1,2.998805046E0,-7.885547161E0,5.204389095E-1
3.402692679E1,4.864010334E0,-4.595416069E0,-4.198207378E0
3.452692679E1,3.710071564E0,-6.631708145E0,1.485344648E0
3.502692679E1,3.265006542E0,-4.495515347E0,-4.291527271E0
3.552692679E1,3.893720627E0,-6.369693756E0,7.435696125E-1
3.602692679E1,2.188834429E0,-5.795416355E0,-2.630908489E0
3.652692679E1,3.032902718E0,-7.964509964E0,-1.183848977E0
3.702692679E1,1.645065546E0,-7.824530125E0,-2.327618122E0
3.752692679E1,2.639881611E0,-8.323433876E0,-3.059223652E0
3.802692679E1,2.411965132E0,-8.491529465E0,-1.130608678E0
3.852692679E1,2.413759947E0,-8.943174362E0,-2.700898647E0
3.902692679E1,4.171288013E0,-1.017906761E1,-8.793623447E-1
3.952692679E1,3.117249727E0,-1.068036366E1,-1.965105653E0
4.002692679E1,7.140182972E0,-1.121635628E1,-1.555334687E0
4.052692679E1,4.380061626E0,-1.377966785E1,-2.900100946E0
4.102692679E1,9.268598557E0,-1.333460236E1,-1.875972986E0
4.152692679E1,3.736392498E0,-1.153639603E1,-2.045265198E0
4.202692679E1,7.996813297E0,-1.236012554E1,-1.228116274E0
4.252692679E1,4.299304008E0,-1.202812099E1,-1.094716311E0
4.302692679E1,9.435498238E0,-9.990633011E0,-4.135993958E0
4.352692679E1,5.458626747E0,-1.115174961E1,-3.409772217E-1
4.402692679E1,1.007198906E1,-9.081359863E0,-2.983251572E0
4.452692679E1,7.160521984E0,-8.977870941E0,-2.355733871E0
4.502692679E1,1.095553875E1,-7.624729156E0,-2.976671457E0
4.552692679E1,6.108277798E0,-7.173682213E0,-3.190230846E0
4.602692679E1,7.548159122E0,-8.464610100E0,-1.219143152E0
4.652692679E1,6.060421467E0,-5.447858810E0,-4.274777889E0
4.702692679E1,5.224728107E0,-7.773084164E0,3.493520916E-1
4.752692679E1,5.281557560E0,-4.696512699E0,-4.436293125E0
4.802692679E1,4.270590305E0,-6.213562012E0,6.951149702E-1
4.852692679E1,3.607180119E0,-4.594219685E0,-3.523431301E0
4.902692679E1,3.564109325E0,-6.458826542E0,4.630111754E-1
4.952692679E1,3.497110367E0,-4.070789337E0,-3.148954630E0
5.002692679E1,3.166900873E0,-6.789634228E0,-2.237289101E-1
5.052692679E1,3.538386583E0,-5.624927998E0,-2.499901533E0
5.102692679E1,2.375474691E0,-7.803592682E0,-2.128415823E0
5.152692679E1,2.984447956E0,-5.603990555E0,-3.399004459E0
5.202692679E1,2.635095835E0,-7.100701332E0,-3.536591768E0
5.252692679E1,3.920639992E0,-8.130811691E0,8.201399446E-1
5.302692679E1,3.600599766E0,-9.058030128E0,-1.680957913E0
5.352692679E1,4.819144726E0,-9.419346809E0,1.244267747E-1
5.402692679E1,2.447259426E0,-9.198010445E0,-1.156929731E0
5.452692679E1,3.888935089E0,-9.230313301E0,-1.286142230E0
5.502692679E1,5.186442852E0,-1.088435173E1,-2.699103832E0
5.552692679E1,7.366304398E0,-1.157647610E1,-1.118046403E0
5.602692679E1,5.581857204E0,-9.507881165E0,-1.418345571E0
5.652692679E1,7.111468792E0,-1.102911758E1,-1.740778446E0
5.702692679E1,4.307080746E0,-1.057986546E1,-1.527817249E0
5.752692679E1,7.597810268E0,-1.093639565E1,-5.389832854E-1
5.802692679E1,3.686143398E0,-1.173440266E1,-2.187039852E0
5.852692679E1,9.390632629E0,-9.971489906E0,-4.526023865E0
5.902692679E1,3.872783422E0,-9.812367439E0,-2.710469961E0
5.952692679E1,1.028435135E1,-8.055437088E0,-4.153940201E0
6.002692679E1,6.889534473E0,-1.205504036E1,-2.678166628E0
6.052692679E1,1.075035381E1,-8.730213165E0,-3.926023722E0
6.102692679E1,6.256632805E0,-1.198325539E1,-5.760720372E-1
6.152692679E1,7.439883709E0,-7.952546120E0,-3.917648792E0
6.202692679E1,6.942774773E0,-7.180262566E0,-2.252842426E0
6.252692679E1,7.323233604E0,-8.950951576E0,7.058826834E-2
6.302692679E1,7.449455261E0,-5.289334297E0,-8.626125455E-1
6.352692679E1,7.358527660E0,-5.851049423E0,2.117049932E0
6.402692679E1,5.894718647E0,-3.664009571E0,-3.870390654E0
6.452692679E1,5.600999832E0,-5.387440205E0,1.752742529E0
6.502692679E1,5.769693375E0,-4.439882278E0,-2.732603550E0
6.552692679E1,3.487539053E0,-7.027122021E0,-1.777269006E0
6.602692679E1,3.997808456E0,-7.049255371E0,-2.350948334E0
6.652692679E1,2.305484533E0,-7.720442295E0,-2.493321180E0
6.702692679E1,4.317848682E0,-7.952546120E0,-6.999006271E-1
6.752692679E1,3.634099483E0,-9.221938133E0,-1.973480463E0
6.802692679E1,6.660421848E0,-1.189232826E1,-3.529413417E-2
6.852692679E1,4.511068821E0,-1.010548782E1,-1.847259045E0
6.902692679E1,8.357531548E0,-1.111525917E1,-3.912265003E-1
6.952692679E1,4.740779877E0,-1.098664474E1,-1.107278705E0
7.002692679E1,9.790233612E0,-1.066600704E1,-1.476969719E0
7.052692679E1,7.328019142E0,-9.143573761E0,-1.309472203E0
7.102692679E1,1.090828037E1,-9.261420250E0,-3.119044304E0
7.152692679E1,5.589633465E0,-9.763913155E0,-1.769492388E0
7.202692679E1,1.052183914E1,-9.537791252E0,-3.145365477E0
7.252692679E1,7.774878979E0,-1.248275757E1,-2.633899450E0
7.302692679E1,9.266205788E0,-6.578467846E0,-5.364708424E0
7.352692679E1,7.959724426E0,-1.069232845E1,-1.898106575E0
7.402692679E1,9.301499367E0,-7.660023689E0,-4.688137531E0
7.452692679E1,8.079365730E0,-8.557929993E0,-2.033899307E0
7.502692679E1,8.528019905E0,-8.480163574E0,-2.767897606E0
7.552692679E1,7.717451096E0,-7.594819069E0,-2.549552441E0
7.602692679E1,6.397211552E0,-9.450452805E0,-2.560320139E0
7.652692679E1,6.746563435E0,-7.217949390E0,-1.587637782E0
7.702692679E1,6.267400742E0,-8.743373871E0,-6.442674994E-1
7.752692679E1,5.973681927E0,-6.398407936E0,-5.825326920E0
7.802692679E1,4.310669899E0,-6.593422890E0,-4.480560422E-1
7.852692679E1,4.530211449E0,-4.356731892E0,-5.023731232E0
7.902692679E1,3.919443607E0,-5.221138954E0,-2.889333367E-1
7.952692679E1,4.834698200E0,-4.447061062E0,-4.813162804E0
8.002692679E1,3.046661377E0,-6.315257072E0,1.061216831E0
8.052692679E1,3.677170277E0,-5.077569485E0,-2.920439959E0
8.102692679E1,3.759722471E0,-5.946762562E0,-1.708475351E0
8.152692679E1,3.372683525E0,-5.070989609E0,-2.711666346E0
8.202692679E1,2.085345030E0,-7.159325123E0,-3.607180119E-1
8.252692679E1,3.659822226E0,-5.962913990E0,-2.466402054E0
8.302692679E1,2.353341103E0,-7.002595425E0,-7.178468257E-2
8.352692679E1,2.270190477E0,-4.767699242E0,-1.896311998E0
8.402692679E1,3.134597778E0,-7.373483181E0,-5.778666735E-1
8.452692679E1,3.453441381E0,-5.698507309E0,-2.614757061E0
8.502692679E1,3.203391314E0,-8.602795601E0,-2.776870728E0
8.552692679E1,5.199005604E0,-9.540781975E0,-2.153540403E-1
8.602692679E1,5.175076962E0,-9.661021233E0,-3.008376360E0
8.652692679E1,6.960123062E0,-1.003190899E1,-2.392822653E-1
8.702692679E1,5.902495384E0,-9.987641335E0,-1.218544960E0
8.752692679E1,1.019342422E1,-1.200718403E1,-1.044467092E0
8.802692679E1,6.935596466E0,-9.658628464E0,-6.346961856E-1
8.852692679E1,1.289073372E1,-1.247737408E1,-1.003789067E0
8.902692679E1,8.504091263E0,-1.224945736E1,3.128615618E-1
8.952692679E1,1.044826031E1,-9.847661972E0,-5.184050083E0
9.002692679E1,1.063370419E1,-9.664012909E0,2.327618122E0
9.052692679E1,7.284948349E0,-8.129016876E0,-3.616751432E0
9.102692679E1,5.916254044E0,-6.416353703E0,-2.885744095E0
9.152692679E1,5.856433392E0,-8.085946083E0,1.208375469E-1
9.202692679E1,4.138386726E0,-4.954937458E0,-6.622136593E0
9.252692679E1,5.422136307E0,-5.002793789E0,1.667199135E0
9.302692679E1,3.489931822E0,-3.920639992E0,-3.218944550E0
9.352692679E1,1.919043779E0,-6.619743824E0,1.398604870E0
9.402692679E1,3.061018467E0,-5.237290382E0,-2.049452543E0
9.452692679E1,2.700300455E0,-7.505686283E0,-1.274178028E0
9.502692679E1,2.036890268E0,-8.173882484E0,-4.701896608E-1
9.552692679E1,2.694318295E0,-8.691927910E0,-1.063609719E0
9.602692679E1,3.932604074E0,-1.119482040E1,1.571486235E0
9.652692679E1,4.731806755E0,-1.073121166E1,-1.490130305E0
9.702692679E1,6.787241459E0,-1.193719387E1,-1.086341500E0
9.752692679E1,3.171686411E0,-1.108654594E1,-1.126421213E0
9.802692679E1,8.627322197E0,-1.100578785E1,-2.930609465E0
9.852692679E1,5.196014404E0,-1.297986603E1,-1.202991605E0
9.902692679E1,9.544371605E0,-1.270110226E1,-4.481158733E0
9.952692679E1,8.813961983E0,-1.009412193E1,-7.621139884E-1
1.000269268E2,8.857032776E0,-8.537590981E0,-4.128815651E0
1.005269268E2,6.033502102E0,-7.242475986E0,-2.447259426E0
1.010269268E2,6.481558323E0,-6.572485447E0,4.271188378E-1
1.015269268E2,4.155136585E0,-4.753342152E0,-4.092923164E0
1.020269268E2,3.294318676E0,-6.728617191E0,3.820739508E0
1.025269268E2,2.887538671E0,-3.597608805E0,-2.394019127E0
1.030269268E2,1.791027784E0,-6.531209469E0,-7.238288522E-1
1.035269268E2,2.315055847E0,-5.286343575E0,-3.764508247E0
1.040269268E2,1.076770186E0,-8.137392044E0,-1.353141189E0
1.045269268E2,1.386640668E0,-8.027321815E0,-2.466402054E0
1.050269268E2,1.729412556E0,-8.175676346E0,-1.789831281E0
1.055269268E2,2.598605394E0,-9.084949493E0,-9.571290575E-3
1.060269268E2,3.884149313E0,-1.015872860E1,-1.365105271E0
1.065269268E2,5.252843857E0,-1.116371441E1,-1.079761267E0
1.070269268E2,4.032504559E0,-1.054277611E1,-1.481755376E0
1.075269268E2,5.819344521E0,-1.159920788E1,-2.197807550E0
1.080269268E2,3.228515863E0,-1.153639603E1,-1.246062398E0
1.085269268E2,7.092326164E0,-1.176191998E1,-1.485344648E0
1.090269268E2,3.037090063E0,-1.091725349E1,-1.188036442E0
1.095269268E2,8.160721779E0,-1.139821053E1,-1.636690736E0
1.100269268E2,3.047259569E0,-1.146640587E1,-1.965703845E0
1.105269268E2,9.037093163E0,-9.029315948E0,-3.473181963E0
1.110269268E2,5.430510998E0,-1.085264683E1,-1.621137381E0
1.115269268E2,8.614161491E0,-8.736793518E0,-3.525225878E0
1.120269268E2,6.823133945E0,-1.025922680E1,-6.299105883E-1
1.125269268E2,6.902695179E0,-9.577272415E0,-1.981257200E0
1.130269268E2,6.988238335E0,-6.221338749E0,-4.013361931E0
1.135269268E2,4.571487427E0,-8.730213165E0,6.879365444E-2
1.140269268E2,4.292723656E0,-4.533800602E0,-4.865804672E0
1.145269268E2,4.226921082E0,-7.529016495E0,1.520040631E0
1.150269268E2,4.305285931E0,-4.236492634E0,-3.851248026E0
1.155269268E2,2.599801779E0,-6.967899323E0,2.177468538E0
1.160269268E2,3.491726398E0,-3.972085476E0,-3.343969584E0
1.165269268E2,8.835497499E-1,-9.519845009E0,-1.970489502E0
1.170269268E2,3.087937593E0,-6.331408501E0,-2.641676188E0
1.175269268E2,2.169093609E0,-8.038089752E0,-3.055036306E0
1.180269268E2,2.512463808E0,-9.026923180E0,1.387837082E-1
1.185269268E2,3.016152859E0,-1.006301594E1,-2.553740025E0
1.190269268E2,5.082355499E0,-1.177926731E1,-6.448656917E-1
1.195269268E2,3.339184046E0,-1.059541893E1,-2.177468538E0
1.200269268E2,4.596014023E0,-1.312343597E1,-7.022934556E-1
1.205269268E2,2.893520832E0,-1.224526978E1,-2.463410854E0
1.210269268E2,7.482954502E0,-1.231825066E1,-2.009970903E0
1.215269268E2,1.596610904E0,-1.104347515E1,-1.561316729E0
1.220269268E2,8.202595711E0,-1.123011494E1,-2.027917147E0
1.225269268E2,5.849853039E0,-1.168534946E1,-1.683350682E0
1.230269268E2,9.617950439E0,-8.727820396E0,-5.627918720E0
1.235269268E2,8.628518105E0,-9.258428574E0,-5.054838061E-1
1.240269268E2,6.237490654E0,-8.027321815E0,-2.264806747E0
1.245269268E2,6.674778938E0,-6.303891182E0,-1.642672777E0
1.250269268E2,5.486144066E0,-8.093722343E0,7.351947427E-1
1.255269268E2,5.278566837E0,-5.423930645E0,-3.430111170E0
1.260269268E2,3.144168854E0,-7.381259441E0,4.534398913E-1
1.265269268E2,3.531806231E0,-4.490131855E0,-4.542773724E0
1.270269268E2,1.383051515E0,-6.713063717E0,-1.214357466E-1
1.275269268E2,3.547359467E0,-4.366302967E0,-4.702494621E0
1.280269268E2,1.875972986E0,-7.118049145E0,2.871387079E-2
1.285269268E2,2.309672117E0,-4.980062008E0,-1.423131227E0
1.290269268E2,2.315055847E0,-6.558128834E0,5.712863803E-1
1.295269268E2,4.092923164E0,-5.193621635E0,-2.681756020E0
1.300269268E2,3.297309637E0,-7.210172653E0,-2.727817893E-1
1.305269268E2,3.734597921E0,-6.902096748E0,-1.571486235E0
1.310269268E2,3.006581545E0,-8.544171333E0,-1.537388563E0
1.315269268E2,3.275176048E0,-9.235098839E0,-3.158525825E-1
1.320269268E2,5.069792747E0,-9.589237213E0,-2.135594130E0
1.325269268E2,4.854438782E0,-8.623732567E0,-4.462614357E-1
1.330269268E2,5.137988567E0,-9.950552940E0,-1.154536963E0
1.335269268E2,6.393621922E0,-1.108235836E1,-2.273181453E-2
1.340269268E2,3.921238184E0,-1.039083195E1,-1.725823283E0
1.345269268E2,7.406384468E0,-8.532805443E0,4.582255483E-1
1.350269268E2,2.882154942E0,-1.368215942E1,-1.663609982E0
1.355269268E2,9.041280746E0,-1.220518970E1,-1.992024899E0
1.360269268E2,4.040280819E0,-1.123190975E1,-1.820339799E0
1.365269268E2,1.034536839E1,-1.035733318E1,-1.393819213E0
1.370269268E2,3.930809498E0,-1.050568771E1,-1.445264935E0
1.375269268E2,9.791430473E0,-8.899505615E0,-3.230310678E0
1.380269268E2,4.999803066E0,-1.053499985E1,-1.097109199E0
1.385269268E2,9.644869804E0,-7.992027760E0,-3.169891834E0
1.390269268E2,7.801798344E0,-7.834101200E0,-6.777670383E-1
1.395269268E2,8.209176064E0,-7.865806103E0,-1.571486235E0
1.400269268E2,7.140182972E0,-8.230113029E0,-2.002194405E0
1.405269268E2,9.245866776E0,-6.385845661E0,-4.035495281E0
1.410269268E2,4.758726120E0,-8.689535141E0,-9.984052777E-1
1.415269268E2,7.620542049E0,-7.865806103E0,-5.072783828E-1
1.420269268E2,3.311666489E0,-1.011565781E1,-1.858624935E0
1.425269268E2,8.165507317E0,-1.021914768E1,-6.592226624E-1
1.430269268E2,3.126222849E0,-1.253839111E1,-1.486541033E0
1.435269268E2,8.468797684E0,-1.015035343E1,1.121037364E0
1.440269268E2,2.382055044E0,-9.706484795E0,-2.056032896E0
1.445269268E2,1.022034359E1,-9.131011009E0,-1.673181176E0
1.450269268E2,3.732803345E0,-1.054636574E1,-2.265404940E0
1.455269268E2,1.084905815E1,-6.843472958E0,-4.683950424E0
1.460269268E2,5.781059742E0,-1.130010509E1,-3.409772217E-1
1.465269268E2,9.185447693E0,-6.906882763E0,-4.261018753E0
1.470269268E2,6.878767014E0,-1.060379314E1,-9.523434043E-1
1.475269268E2,8.291728973E0,-8.769096375E0,-4.150949001E0
1.480269268E2,6.277570248E0,-1.091725349E1,-6.526423693E-1
1.485269268E2,8.724231720E0,-8.995817184E0,-3.962514400E0
1.490269268E2,6.787241459E0,-9.928419113E0,-9.619147182E-1
1.495269268E2,7.363911629E0,-1.004686451E1,-2.164906263E0
1.500269268E2,6.790830612E0,-8.526823044E0,-2.625524759E0
1.505269268E2,8.003393173E0,-8.560322762E0,-2.642872572E0
1.510269268E2,6.327819347E0,-8.445467949E0,-2.800798893E0
1.515269268E2,7.951947689E0,-8.315656662E0,-1.301695466E0
1.520269268E2,5.986842155E0,-7.205387115E0,-3.567100286E0
1.525269268E2,6.999604225E0,-1.030528927E1,-3.589233849E-3
1.530269268E2,5.458626747E0,-8.416155815E0,-3.798007727E0
1.535269268E2,7.439883709E0,-8.645866394E0,-6.472585201E-1
1.540269268E2,4.889732838E0,-6.889534473E0,-4.098307133E0
1.545269268E2,4.045664787E0,-9.454640388E0,-7.674978375E-1
1.550269268E2,5.426921844E0,-6.720840454E0,-3.619742393E0
1.555269268E2,3.961317778E0,-6.098706722E0,-2.188236237E0
1.560269268E2,3.461217880E0,-6.396613121E0,-4.846064091E0
1.565269268E2,3.253042459E0,-6.752545357E0,2.037488461E0
1.570269268E2,3.986442566E0,-4.514657974E0,-2.957528830E0
1.575269268E2,3.606581926E0,-8.048258781E0,1.640279889E0
1.580269268E2,4.582853794E0,-5.256433010E0,-4.143172264E0
1.585269268E2,3.793222189E0,-6.780063152E0,2.505883455E0
1.590269268E2,4.547559261E0,-5.145765305E0,-4.183850288E0
1.595269268E2,4.944767952E0,-6.422336102E0,2.474178553E0
1.600269268E2,4.878366947E0,-5.376074314E0,-3.922434568E0
1.605269268E2,4.128815651E0,-8.526823044E0,5.485545993E-1
1.610269268E2,5.193621635E0,-4.250849247E0,-4.150351048E0
1.615269268E2,4.013361931E0,-6.715456963E0,1.451246977E0
1.620269268E2,3.955934048E0,-5.166702271E0,-2.830111027E0
1.625269268E2,3.006581545E0,-8.221738815E0,2.632105052E-1
1.630269268E2,4.495515347E0,-5.296513081E0,-3.316452265E0
1.635269268E2,3.295515060E0,-8.825926781E0,8.913264424E-2
1.640269268E2,4.101297855E0,-5.395216942E0,-2.883949518E0
1.645269268E2,6.903293133E-1,-9.272786140E0,-1.829911113E0
1.650269268E2,3.126222849E0,-7.940581799E0,-1.641476393E0
1.655269268E2,2.030309916E0,-9.087940216E0,-1.575673699E0
1.660269268E2,3.540181160E0,-9.391230583E0,-1.582253933E0
1.665269268E2,2.520240545E0,-9.644271851E0,-3.196810961E0
1.670269268E2,4.289134502E0,-1.068933678E1,-2.476571500E-1
1.675269268E2,3.759722471E0,-1.021615601E1,-3.021536827E0
1.680269268E2,6.583851337E0,-1.078325558E1,-4.965107143E-2
1.685269268E2,2.620738983E0,-1.000678444E1,-3.501895905E0
1.690269268E2,4.974080086E0,-1.145503998E1,-1.692921966E-1
1.695269268E2,3.172882795E0,-9.759127617E0,-2.517249346E0
1.700269268E2,7.974679470E0,-1.148913765E1,1.001396298E0
1.705269268E2,3.018545866E0,-1.099860954E1,-1.740180254E0
1.710269268E2,7.002595425E0,-1.129412270E1,1.491924882E0
1.715269268E2,3.846462488E0,-1.317966747E1,-4.607379913E0
1.720269268E2,8.770891190E0,-8.518448830E0,-1.257428288E0
1.725269268E2,5.619544029E0,-8.550153732E0,-4.815555513E-1
1.730269268E2,9.020941734E0,-1.043091202E1,-1.218544960E0
1.735269268E2,3.601796389E0,-1.045184898E1,-7.914260626E-1
1.740269268E2,8.024331093E0,-1.067677498E1,-1.390828133E0
1.745269268E2,2.809173822E0,-1.057328510E1,-1.190429211E0
1.750269268E2,1.032562828E1,-6.534200668E0,-4.195216179E0
1.755269268E2,5.005784988E0,-1.091605663E1,1.166501045E-1
1.760269268E2,9.553942680E0,-8.343173981E0,-2.212164640E0
1.765269268E2,4.892126083E0,-1.292483139E1,1.333400369E0
1.770269268E2,8.507082939E0,-8.122436523E0,-3.032304525E0
1.775269268E2,4.478167534E0,-1.175833035E1,-1.279561877E0
1.780269268E2,1.009292603E1,-8.191229820E0,-2.615953445E0
1.785269268E2,5.087141037E0,-9.705288887E0,-2.596212626E-1
1.790269268E2,9.455238342E0,-9.915857315E0,-1.882553220E0
1.795269268E2,5.047659397E0,-9.902696609E0,-7.292127013E-1
1.800269268E2,9.751948357E0,-9.549157143E0,-1.916052699E0
1.805269268E2,4.250849247E0,-1.021914768E1,-2.309672117E0
1.810269268E2,1.035314560E1,-8.757730484E0,-2.411965132E0
1.815269268E2,6.583253384E0,-9.620942116E0,-1.171286702E0
1.820269268E2,7.895118237E0,-8.720642090E0,-2.255833626E0
1.825269268E2,3.275176048E0,-1.039442158E1,-1.936391711E0
1.830269268E2,7.577471256E0,-9.938589096E0,-2.656033039E0
1.835269268E2,5.117051125E0,-1.223689461E1,-9.044869542E-1
1.840269268E2,7.735397339E0,-1.017906761E1,-2.084746838E0
1.845269268E2,3.710669756E0,-1.116849995E1,-5.599204898E-1
1.850269268E2,1.082812023E1,-1.280279732E1,-2.860021353E0
1.855269268E2,5.346762180E0,-1.232901859E1,-1.759921074E0
1.860269268E2,1.026879883E1,-1.230030441E1,-1.366899967E0
1.865269268E2,5.490331650E0,-1.406680584E1,-1.683350682E0
1.870269268E2,1.033400249E1,-1.121396351E1,1.858026743E0
1.875269268E2,3.332603693E0,-1.205204964E1,-1.503889084E0
1.880269268E2,9.284152031E0,-1.010608673E1,-5.200799942E0
1.885269268E2,4.341776848E0,-1.146042442E1,-2.133201361E0
1.890269268E2,9.080163956E0,-1.024965572E1,-1.207179070E0
1.895269268E2,4.533800602E0,-1.165902805E1,-7.734799385E-1
1.900269268E2,8.635098457E0,-8.721240044E0,-3.726821184E0
1.905269268E2,3.380460262E0,-1.029272652E1,-1.399203062E0
1.910269268E2,8.775078773E0,-1.064447117E1,-2.336591244E0
1.915269268E2,4.173082829E0,-1.170269775E1,-1.893919110E0
1.920269268E2,7.640881062E0,-9.763913155E0,-3.482155085E0
1.925269268E2,2.713460922E0,-1.045304585E1,-1.875972986E0
1.930269268E2,7.898109436E0,-1.094118118E1,-1.649253011E0
1.935269268E2,3.918246984E0,-1.141196918E1,-2.248056889E0
1.940269268E2,7.165307522E0,-1.073300552E1,-2.066202402E0
1.945269268E2,4.475774765E0,-1.075155067E1,-6.969096065E-1
1.950269268E2,7.316055298E0,-1.109791183E1,-1.507478237E0
1.955269268E2,3.952943087E0,-1.000379372E1,-2.737389088E0
1.960269268E2,5.292923450E0,-9.938589096E0,-7.357929647E-2
1.965269268E2,4.704289436E0,-9.207581520E0,1.076770201E-2
1.970269268E2,5.021338463E0,-1.112064362E1,2.237289101E-1
1.975269268E2,4.374079704E0,-1.010429192E1,-2.257030010E0
1.980269268E2,6.482754707E0,-1.237866974E1,8.518448472E-1
1.985269268E2,3.431307554E0,-1.042911720E1,-1.960319996E0
1.990269268E2,7.518248558E0,-1.231645679E1,2.745763958E-1
1.995269268E2,5.126622677E0,-9.711270332E0,-2.158325911E0
2.000269268E2,8.298309326E0,-1.094357395E1,1.008574724E0
2.005269268E2,4.176073551E0,-9.056235313E0,-9.128618240E-1
2.010269268E2,8.152944565E0,-1.284168053E1,1.373480201E0
2.015269268E2,4.470989227E0,-1.055533886E1,-9.349954724E-1
2.020269268E2,6.607181549E0,-1.022512913E1,-1.508674622E0
2.025269268E2,2.667398930E0,-1.169312572E1,-2.783450842E0
2.030269268E2,8.575876236E0,-1.156511021E1,2.093719840E-1
2.035269268E2,4.050450325E0,-1.031785107E1,-1.883749604E0
2.040269268E2,1.017129040E1,-8.438288689E0,1.094118118E0
2.045269268E2,3.826721668E0,-9.893723488E0,-7.740781307E-1
2.050269268E2,8.036892891E0,-1.036570740E1,-1.214357466E-1
2.055269268E2,4.046861172E0,-1.017308521E1,-2.484946251E0
2.060269268E2,9.769296646E0,-1.160519028E1,-5.300102234E-1
2.065269268E2,3.376870871E0,-9.869794846E0,-2.280958176E0
2.070269268E2,7.677969456E0,-1.164706421E1,3.433700502E-1
2.075269268E2,5.392225742E0,-9.479166985E0,-2.281556368E0
2.080269268E2,1.127677536E1,-1.249651623E1,-1.146760225E0
2.085269268E2,6.390631199E0,-1.029272652E1,-2.227119684E0
2.090269268E2,1.021854877E1,-1.061815071E1,-1.014556766E0
2.095269268E2,5.016552448E0,-9.623932838E0,-1.024128079E0
2.100269268E2,1.014676476E1,-9.963713646E0,4.498506486E-1
2.105269268E2,4.176671982E0,-1.042014408E1,-1.396211982E0
2.110269268E2,1.030947590E1,-9.534201622E0,6.556333899E-1
2.115269268E2,3.768097401E0,-1.025743294E1,-2.150549412E0
2.120269268E2,1.051406288E1,-1.044826031E1,3.511467278E-1
2.125269268E2,4.331008911E0,-1.152084255E1,-2.149951220E0
2.130269268E2,1.004865837E1,-9.952347755E0,-1.044467092E0
2.135269268E2,5.747560024E0,-1.105842972E1,-1.630110383E0
2.140269268E2,1.034836006E1,-9.667003632E0,-7.956135273E-1
2.145269268E2,5.047659397E0,-1.001336479E1,-2.638685226E0
2.150269268E2,1.021914768E1,-1.117149067E1,-1.162911773E0
2.155269268E2,4.431507587E0,-1.146341515E1,-2.332403898E0
2.160269268E2,9.093922615E0,-1.237687492E1,-8.488538265E-1
2.165269268E2,6.332605362E0,-1.243310642E1,-5.437689424E-1
2.170269268E2,8.472386360E0,-1.067498016E1,-1.417747438E-1
2.175269268E2,4.911866665E0,-1.047278690E1,-1.980060697E0
2.180269268E2,7.633104324E0,-1.049013424E1,-9.840483069E-1
2.185269268E2,2.934797049E0,-1.174038410E1,-2.429313183E0
2.190269268E2,7.710870743E0,-1.052064323E1,-6.604190469E-1
2.195269268E2,3.415156126E0,-1.117926693E1,-2.803191662E0
2.200269268E2,9.665208817E0,-1.079641533E1,-1.643270969E0
2.205269268E2,5.146363258E0,-1.094118118E1,-3.432504177E0
2.210269268E2,1.019462109E1,-7.854440212E0,-2.504088879E0
2.215269268E2,3.778865099E0,-9.247062683E0,-3.566502094E0
2.220269268E2,1.031127071E1,-1.133599758E1,-1.437488198E0
2.225269268E2,4.573282242E0,-1.091486073E1,-3.223730326E0
2.230269268E2,7.509873867E0,-9.760921478E0,-1.856830359E0
2.235269268E2,3.190829039E0,-1.071206856E1,-2.914458036E0
2.240269268E2,6.435496330E0,-1.288415337E1,-3.158525825E-1
2.245269268E2,4.853840828E0,-9.539586067E0,-3.970889091E0
2.250269268E2,5.959922791E0,-1.269751358E1,-2.174477577E0
2.255269268E2,4.375276089E0,-9.590433121E0,-3.964308977E0
2.260269268E2,7.423732281E0,-9.134002686E0,7.016952634E-1
2.265269268E2,5.029713154E0,-9.626923561E0,1.483550072E-1
2.270269268E2,4.942375183E0,-1.155135155E1,1.511067510E0
2.275269268E2,4.693521500E0,-1.006720352E1,-2.358126640E0
2.280269268E2,6.011966705E0,-1.240140152E1,-8.973085135E-2
2.285269268E2,4.211368084E0,-9.562915802E0,-2.175673962E0
2.290269268E2,5.924628735E0,-9.900303841E0,4.259224236E-1
2.295269268E2,4.611567497E0,-8.639286041E0,-2.365305185E0
2.300269268E2,5.812764645E0,-9.527023315E0,1.003789067E0
2.305269268E2,4.737788677E0,-8.811569214E0,-1.472184181E0
2.310269268E2,6.492924213E0,-8.669795036E0,9.906286001E-1
2.315269268E2,6.672984123E0,-8.435297966E0,-4.103690982E-1
2.320269268E2,6.534200668E0,-8.676374435E0,-6.029912829E-1
2.325269268E2,6.751348972E0,-8.417949677E0,-1.871187329E0
2.330269268E2,4.809573650E0,-9.299705505E0,-1.992623091E0
2.335269268E2,5.958128452E0,-8.886942863E0,-2.536391973E0
2.340269268E2,4.418346882E0,-9.714859962E0,-1.101894855E0
2.345269268E2,4.244867325E0,-7.545167923E0,-1.654636860E0
2.350269268E2,6.468996048E0,-8.164310455E0,4.893322289E-1
2.355269268E2,4.853840828E0,-7.759325504E0,-9.176474810E-1
2.360269268E2,5.775077343E0,-3.613162279E0,3.289532900E0
2.365269268E2,5.478367329E0,-5.614758492E0,4.382454872E0
2.370269268E2,4.830510616E0,-4.709074974E0,4.110869408E0
2.375269268E2,4.841278553E0,-6.707680225E0,6.077769399E-1
2.380269268E2,2.459821701E0,-7.655836105E0,6.664010882E-1
2.385269268E2,5.508277893E0,-7.853243828E0,2.069791555E-1
2.390269268E2,4.281357765E0,-1.098305607E1,3.170489967E-1
2.395269268E2,4.825725079E0,-1.051765156E1,-6.424728632E-1
2.400269268E2,3.225524902E0,-1.013779163E1,-3.302095234E-1
2.405269268E2,5.000999451E0,-1.050927734E1,-2.447259426E0
2.410269268E2,5.246263504E0,-1.318744373E1,3.792623878E-1
2.415269268E2,4.586442947E0,-1.002592659E1,-1.872981906E0
2.420269268E2,8.029116631E0,-1.356371498E1,-1.208973646E0
2.425269268E2,5.090131760E0,-9.375079155E0,-1.477568030E0
2.430269268E2,7.280761242E0,-1.299601841E1,-7.357929647E-2
2.435269268E2,3.416950703E0,-1.006062317E1,-1.510469317E0
2.440269268E2,8.912068367E0,-1.184566879E1,-4.187439755E-2
2.445269268E2,4.369294167E0,-1.324008560E1,-2.484946251E0
2.450269268E2,8.134400368E0,-1.169910812E1,-2.555534601E0
2.455269268E2,5.897709846E0,-1.229551888E1,-1.588834286E0
2.460269268E2,1.072582722E1,-1.034776115E1,-3.876372576E-1
2.465269268E2,6.385247231E0,-1.263230896E1,-1.147358418E0
2.470269268E2,1.141496086E1,-9.721440315E0,-2.057827413E-1
2.475269268E2,7.247261524E0,-1.317308712E1,-3.990031779E-1
2.480269268E2,9.114859581E0,-1.145862961E1,-7.800601721E-1
2.485269268E2,5.374279499E0,-1.097049332E1,-1.846062660E0
2.490269268E2,1.282552910E1,-8.401798248E0,-2.836691141E0
2.495269268E2,6.461817741E0,-1.026401234E1,-2.706880569E0
2.500269268E2,1.054875851E1,-9.972088814E0,-2.298904419E0
2.505269268E2,2.223530531E0,-9.601201057E0,-1.216750264E0
2.510269268E2,9.386445045E0,-8.310871124E0,-3.456432343E0
2.515269268E2,5.112265587E0,-1.084128094E1,-1.896311998E0
2.520269268E2,8.208578110E0,-8.364111900E0,-2.844467878E0
2.525269268E2,4.560719967E0,-9.428917885E0,-1.630110383E0
2.530269268E2,9.647860527E0,-7.489534855E0,-1.523629785E0
2.535269268E2,6.404987812E0,-9.732806206E0,-6.939185858E-1
2.540269268E2,1.018385315E1,-7.808976650E0,-4.448855400E0
2.545269268E2,7.301100254E0,-1.049372387E1,-1.295713425E0
2.550269268E2,9.158528328E0,-6.875775814E0,-4.941776752E0
2.555269268E2,7.603193760E0,-8.971888542E0,-2.310270309E0
2.560269268E2,7.658827305E0,-1.028076267E1,-7.722834945E-1
2.565269268E2,6.628118515E0,-6.625127792E0,-3.762713671E0
2.570269268E2,5.626124382E0,-8.015955925E0,-2.069791555E-1
2.575269268E2,4.683950424E0,-4.755136967E0,-5.127220631E0
2.580269268E2,2.870190859E0,-9.665208817E0,2.462812662E0
2.585269268E2,5.259424210E0,-4.401597023E0,-4.718646049E0
2.590269268E2,3.119044304E0,-7.196413994E0,8.249256015E-1
2.595269268E2,4.302295208E0,-4.723432064E0,-3.707678795E0
2.600269268E2,3.468396425E0,-7.856235027E0,5.102694035E-1
2.605269268E2,4.324428558E0,-4.975874901E0,-3.858426571E0
2.610269268E2,4.384847641E0,-8.601000786E0,1.610967875E0
2.615269268E2,4.275375843E0,-5.149354458E0,-3.064009428E0
2.620269268E2,2.960519791E0,-8.261219978E0,2.757728100E-1
2.625269268E2,3.513859987E0,-6.434898376E0,-1.682752490E0
2.630269268E2,3.049652576E0,-8.437092781E0,-2.285145670E-1
2.635269268E2,4.104289055E0,-6.936194420E0,-2.554338217E0
2.640269268E2,1.438684583E0,-8.834300995E0,-1.353141189E0
2.645269268E2,3.238685369E0,-7.202396393E0,-2.931805849E0
2.650269268E2,1.013360381E0,-8.501100540E0,-2.612962246E0
2.655269268E2,3.692723513E0,-8.076375008E0,-1.507478237E0
2.660269268E2,2.324028969E0,-9.536594391E0,-1.970489502E0
2.665269268E2,3.643072367E0,-9.054440498E0,-1.570888042E0
2.670269268E2,2.163111687E0,-9.062217712E0,-1.925025821E0
2.675269268E2,3.946960926E0,-9.029315948E0,-1.671984792E0
2.680269268E2,2.648256540E0,-9.177073479E0,-2.824727058E0
2.685269268E2,3.487539053E0,-9.461220741E0,-1.079761267E0
2.690269268E2,2.260020971E0,-9.271589279E0,-3.334398270E0
2.695269268E2,4.212564468E0,-1.100339508E1,-4.181457460E-1
2.700269268E2,4.380061626E0,-1.107757282E1,-3.635894060E0
2.705269268E2,4.381856441E0,-1.052183914E1,3.092723191E-1
2.710269268E2,5.390431404E0,-9.921838760E0,-1.920838356E0
2.715269268E2,7.472187042E0,-8.459824562E0,2.165504545E-1
2.720269268E2,1.858624935E0,-1.060319519E1,-1.703689694E0
2.725269268E2,6.071787357E0,-1.107518005E1,-3.846462369E-1
2.730269268E2,3.518645763E0,-9.464810371E0,-3.269792080E0
2.735269268E2,6.736393929E0,-1.168774223E1,-9.798609018E-1
2.740269268E2,3.619144201E0,-1.039621639E1,-2.807379246E0
2.745269268E2,8.084151268E0,-1.285065365E1,9.056833982E-1
2.750269268E2,4.646861553E0,-9.413364410E0,-2.088335991E0
2.755269268E2,1.097946644E1,-9.438488960E0,1.007976532E0
2.760269268E2,5.937789440E0,-1.119960594E1,-7.274180651E-1
2.765269268E2,9.552147865E0,-1.064686394E1,3.481557071E-1
2.770269268E2,3.005385160E0,-1.157468128E1,-1.112064362E0
2.775269268E2,8.599804878E0,-1.053021431E1,-2.060818434E0
2.780269268E2,3.394817114E0,-1.076291656E1,-1.819741607E0
2.785269268E2,7.588238716E0,-1.051047325E1,-2.306680918E0
2.790269268E2,3.113660574E0,-1.203709412E1,-2.295315027E0
2.795269268E2,9.829715729E0,-8.894720078E0,-3.936791420E0
2.800269268E2,5.654838085E0,-1.083649540E1,-7.190431952E-1
2.805269268E2,7.385447025E0,-8.033304214E0,-1.682752490E0
2.810269268E2,6.421139717E0,-8.090731621E0,-5.056632519E0
2.815269268E2,6.272186279E0,-7.333403111E0,-1.256830096E0
2.820269268E2,4.195216179E0,-6.501897335E0,-3.610171080E0
2.825269268E2,2.572882652E0,-8.138587952E0,2.850450039E0
2.830269268E2,4.691727161E0,-4.436293125E0,-5.132006168E0
2.835269268E2,4.147359848E0,-7.395616531E0,6.077769399E-1
2.840269268E2,5.548357487E0,-3.970290899E0,-4.448855400E0
2.845269268E2,4.811367989E0,-6.388836384E0,-2.039881349E-1
2.850269268E2,3.715455294E0,-4.836492538E0,-4.539782524E0
2.855269268E2,4.163511276E0,-8.167302132E0,2.110469580E0
2.860269268E2,4.329812527E0,-4.249652863E0,-4.549952030E0
2.865269268E2,3.601796389E0,-7.902894974E0,2.740380049E0
2.870269268E2,5.227120876E0,-4.316651821E0,-4.186243057E0
2.875269268E2,4.022933006E0,-7.637889862E0,1.721037745E0
2.880269268E2,4.645066738E0,-5.531009674E0,-2.566900492E0
2.885269268E2,3.737588882E0,-8.438887596E0,1.303490162E0
2.890269268E2,4.559523582E0,-4.161716938E0,-4.380660057E0
2.895269268E2,4.275375843E0,-9.209376335E0,1.977667928E0
2.900269268E2,4.794020176E0,-3.597608805E0,-4.677370071E0
2.905269268E2,4.746163845E0,-7.536194801E0,1.245464206E0
2.910269268E2,5.260620594E0,-3.964308977E0,-4.182653904E0
2.915269268E2,5.745765209E0,-8.226524353E0,2.416750908E0
2.920269268E2,5.060221672E0,-5.650052547E0,-2.428116798E0
2.925269268E2,5.388636589E0,-9.285347939E0,2.210968018E0
2.930269268E2,5.303691387E0,-4.664209366E0,-2.471187592E0
2.935269268E2,4.490729809E0,-1.057029438E1,2.126022816E0
2.940269268E2,5.867201328E0,-4.438087940E0,-3.815355778E0
2.945269268E2,5.143372059E0,-8.611170769E0,2.452044964E0
2.950269268E2,3.722035646E0,-5.397011280E0,-2.877369165E0
2.955269268E2,6.635895252E0,-6.940980434E0,2.484946251E0
2.960269268E2,4.096512318E0,-5.091926575E0,-4.043870449E0
2.965269268E2,6.009573936E0,-8.304888725E0,1.995614052E0
2.970269268E2,6.699903488E0,-3.831507206E0,-2.873181820E0
2.975269268E2,7.241877556E0,-7.412964344E0,1.020538807E0
2.980269268E2,7.492526054E0,-6.144768715E0,-2.402393818E0
2.985269268E2,7.179664135E0,-1.172602749E1,2.036890268E0
2.990269268E2,9.805787086E0,-9.371489525E0,-9.074779749E-1
2.995269268E2,9.036494255E0,-7.694121361E0,-3.999004841E0
3.000269268E2,7.223333359E0,-8.631509781E0,-2.105684042E0
3.005269268E2,8.703293800E0,-6.702894211E0,-4.524229527E0
3.010269268E2,7.746165276E0,-1.037647533E1,-1.553540111E0
3.015269268E2,1.042612648E1,-5.820540905E0,-6.351747513E0
3.020269268E2,8.084749222E0,-9.390632629E0,-2.315055847E0
3.025269268E2,9.818349838E0,-6.045466423E0,-5.808577061E0
3.030269268E2,7.429116249E0,-1.054158020E1,-4.448855400E0
3.035269268E2,1.047398281E1,-7.954938889E0,-4.000799656E0
3.040269268E2,6.994818687E0,-1.080598736E1,-1.730608940E0
3.045269268E2,1.020419216E1,-7.523034573E0,-3.013760090E0
3.050269268E2,9.537791252E0,-1.001635551E1,1.116850019E0
3.055269268E2,9.410373688E0,-7.017550468E0,-3.436093330E0
3.060269268E2,9.355937004E0,-9.701699257E0,-6.568298340E-1
3.065269268E2,9.472586632E0,-7.481758118E0,-3.595814228E0
3.070269268E2,5.463412285E0,-9.619147301E0,-3.320041299E-1
3.075269268E2,9.186644554E0,-7.026523590E0,-3.279363394E0
3.080269268E2,5.641079426E0,-9.726225853E0,-1.417747438E-1
3.085269268E2,9.104091644E0,-8.497511864E0,-2.967100143E0
3.090269268E2,3.769293785E0,-1.008933640E1,-8.554341197E-1
3.095269268E2,8.542376518E0,-8.432307243E0,-3.257229805E0
3.100269268E2,5.705685616E0,-1.040698433E1,-2.555534601E0
3.105269268E2,9.619147301E0,-8.763712883E0,-3.652643681E0
3.110269268E2,7.037889481E0,-9.443274498E0,-7.274180651E-1
3.115269268E2,8.965308189E0,-1.030947590E1,-3.670589924E0
3.120269268E2,4.265804768E0,-1.037707329E1,-1.889133453E0
3.125269268E2,8.770293236E0,-7.901100159E0,-4.413561344E0
3.130269268E2,4.045066833E0,-1.071147060E1,-2.271985054E0
3.135269268E2,9.260223389E0,-9.234500885E0,-2.370688915E0
3.140269268E2,3.246462107E0,-1.062413216E1,-2.267199516E0
3.145269268E2,9.991230965E0,-9.992427826E0,-2.131406784E0
3.150269268E2,3.085544825E0,-1.095793152E1,-2.319841623E0
3.155269268E2,1.024307537E1,-1.037527943E1,-1.606182218E0
3.160269268E2,5.849853039E0,-1.062293625E1,-1.791027784E0
3.165269268E2,1.057448101E1,-1.009172916E1,-2.149951220E0
3.170269268E2,3.939782381E0,-1.190847969E1,-2.202593327E0
3.175269268E2,1.039143085E1,-1.019820976E1,-1.539781332E0
3.180269268E2,3.908077478E0,-1.081735325E1,-4.007977992E-2
3.185269268E2,9.559925079E0,-9.872786522E0,-1.121635556E0
3.190269268E2,3.958925009E0,-1.107757282E1,5.102694035E-1
3.195269268E2,8.860024452E0,-1.089870930E1,3.170489892E-2
3.200269268E2,5.095515728E0,-1.238046455E1,-1.012762189E0
3.205269268E2,9.396016121E0,-1.049970531E1,-1.960319996E0
3.210269268E2,3.731008768E0,-1.172602749E1,-8.356932998E-1
3.215269268E2,9.394221306E0,-1.066720295E1,-1.625923038E0
3.220269268E2,4.025924206E0,-1.251326561E1,-2.183450699E0
3.225269268E2,1.004207802E1,-1.114217854E1,-1.322632670E0
3.230269268E2,3.248256683E0,-1.175713444E1,-2.281556368E0
3.235269268E2,1.021735287E1,-9.845269203E0,-1.600200176E0
3.240269268E2,1.783251047E0,-1.055234814E1,-2.682952404E0
3.245269268E2,9.347561836E0,-9.212367058E0,2.183450609E-1
3.250269268E2,1.167697430E0,-8.854640007E0,-2.437089920E0
3.255269268E2,9.925428391E0,-9.355937004E0,8.871390224E-1
3.260269268E2,3.507878065E0,-1.045184898E1,-2.149951220E0
3.265269268E2,7.910671711E0,-9.537791252E0,-1.649851203E0
3.270269268E2,2.268395901E0,-8.672785759E0,-2.806182861E0
3.275269268E2,1.176191998E1,-1.276331615E1,1.366899967E0
3.280269268E2,3.856033802E0,-9.976275444E0,7.004988194E-1
3.285269268E2,9.257232666E0,-9.187242508E0,1.898106575E0
3.290269268E2,3.056232691E0,-1.051884842E1,-1.228714466E0
3.295269268E2,8.501100540E0,-1.244447231E1,4.247260094E-1
3.300269268E2,3.627519131E0,-9.489934921E0,-1.486541033E0
3.305269268E2,8.127820015E0,-1.115832996E1,2.757728100E-1
3.310269268E2,4.194019794E0,-9.976275444E0,-2.026122570E0
3.315269268E2,6.479763508E0,-1.097348499E1,-4.055834413E-1
3.320269268E2,3.260220766E0,-9.225527763E0,-1.968096614E0
3.325269268E2,5.921638012E0,-1.047757244E1,-7.657032460E-2
3.330269268E2,4.415954113E0,-8.749954224E0,-2.721835852E0
3.335269268E2,5.321637630E0,-1.050329494E1,-9.930214286E-2
3.340269268E2,5.341976643E0,-8.261219978E0,-1.412961721E0
3.345269268E2,8.002795219E0,-1.354935837E1,1.863410592E0
3.350269268E2,3.201596737E0,-1.203709412E1,4.594219327E-1
3.355269268E2,9.378668785E0,-1.035733318E1,-6.999006122E-2
3.360269268E2,4.558925152E0,-8.784649849E0,-1.617548108E0
3.365269268E2,1.034477043E1,-9.319445610E0,-2.075773627E-1
3.370269268E2,6.792625427E0,-1.038843918E1,-2.092523336E0
3.375269268E2,1.050568771E1,-9.695717812E0,-3.270390272E0
3.380269268E2,7.339983463E0,-1.184327602E1,-2.611167669E0
3.385269268E2,1.005763149E1,-6.675975323E0,-2.617748022E0
3.390269268E2,1.074497032E1,-7.000202656E0,2.109273195E0
3.395269268E2,7.564310551E0,-7.028916359E0,2.770888567E0
3.400269268E2,6.060421467E0,-6.868597507E0,-4.833501875E-1
3.405269268E2,6.650850773E0,-7.551748276E0,-1.657029629E0
3.410269268E2,6.136393547E0,-5.650650501E0,-2.927020311E0
3.415269268E2,2.252842426E0,-7.646264553E0,5.074578762E0
3.420269268E2,4.059423447E0,-4.393222332E0,-4.076173306E0
3.425269268E2,4.013959885E0,-5.397011280E0,4.671986103E-1
3.430269268E2,3.257229805E0,-5.152943611E0,-3.702294827E0
3.435269268E2,2.347957134E0,-8.148159027E0,1.131206870E0
3.440269268E2,3.808177233E0,-6.034698486E0,-1.874178290E0
3.445269268E2,3.738785267E0,-7.868797302E0,-4.486542568E-2
3.450269268E2,4.549952030E0,-7.401598454E0,-4.307080805E-1
3.455269268E2,4.184448719E0,-7.530810833E0,-1.278963685E0
3.460269268E2,4.638486862E0,-8.940781593E0,-7.962117195E-1
3.465269268E2,4.222733974E0,-8.123034477E0,-2.062613010E0
3.470269268E2,6.604190350E0,-1.026401234E1,-2.286342144E0
3.475269268E2,4.144368649E0,-8.988637924E0,-1.820339799E0
3.480269268E2,4.074378967E0,-8.510073662E0,-2.005185366E0
3.485269268E2,3.198605776E0,-9.110671997E0,-2.557329178E0
3.490269268E2,4.079164505E0,-8.995817184E0,-8.135597110E-1
3.495269268E2,3.568296671E0,-7.797610760E0,-2.056631088E0
3.500269268E2,4.774877548E0,-7.277770042E0,-3.828516304E-1
3.505269268E2,2.965903759E0,-8.087740898E0,-1.531406522E0
3.510269268E2,2.289333105E0,-8.127222061E0,-1.472184181E0
3.515269268E2,1.325623751E0,-7.112665176E0,-2.999403238E0
3.520269268E2,3.309871912E0,-7.966304779E0,-1.384846091E0
3.525269268E2,2.198405743E0,-8.127820015E0,-1.846062660E0
3.530269268E2,2.523829699E0,-7.828119278E0,-1.036690354E0
3.535269268E2,2.410768747E0,-7.862815380E0,-1.800599098E0
3.540269268E2,1.721635938E0,-6.399604321E0,-4.432703853E-1
3.545269268E2,1.996810555E0,-6.580262184E0,-3.159722328E0
3.550269268E2,2.482553482E0,-7.765905857E0,-4.893322289E-1
3.555269268E2,2.352742910E0,-7.512266636E0,-4.486542568E-2
3.560269268E2,2.154736757E0,-6.247061729E0,-1.512263894E0
3.565269268E2,1.881955028E0,-7.268198967E0,3.080759048E-1
3.570269268E2,1.609771490E0,-7.252047062E0,-1.304686546E0
3.575269268E2,2.729612350E0,-6.680760860E0,7.836493850E-2
3.580269268E2,1.814955950E0,-6.066403389E0,-2.015953064E0
3.585269268E2,2.185843468E0,-7.124629498E0,-1.256231871E-2
3.590269268E2,2.349751949E0,-6.276971817E0,-8.554341197E-1
3.595269268E2,2.670390129E0,-7.012764931E0,2.488535494E-1
3.600269268E2,3.220739365E0,-5.964110374E0,-1.378265858E0
3.605269268E2,4.377668858E0,-6.623332977E0,2.123031855E0
3.610269268E2,2.733799934E0,-5.217549801E0,-2.955734253E0
3.615269268E2,2.724228621E0,-7.277172089E0,-4.187439755E-2
3.620269268E2,3.911068678E0,-6.067001820E0,-2.477169752E0
3.625269268E2,3.097508907E0,-7.516454220E0,8.488538265E-1
3.630269268E2,4.031308174E0,-4.107280254E0,-3.590430260E0
3.635269268E2,4.602594376E0,-7.767102242E0,1.896311998E0
3.640269268E2,3.247658491E0,-4.675575256E0,-2.445464849E0
3.645269268E2,3.911068678E0,-6.019145489E0,2.298904419E0
3.650269268E2,3.651447296E0,-4.539782524E0,-3.688536167E0
3.655269268E2,4.487739086E0,-7.607381344E0,1.916052699E0
3.660269268E2,3.831507206E0,-4.630710125E0,-4.406383038E0
3.665269268E2,4.249652863E0,-7.062416077E0,1.303490162E0
3.670269268E2,3.193820000E0,-4.104289055E0,-4.109673023E0
3.675269268E2,4.669593334E0,-8.221738815E0,2.137987137E0
3.680269268E2,4.226921082E0,-4.351347923E0,-4.365705013E0
3.685269268E2,4.476373196E0,-7.945367813E0,2.132603168E0
3.690269268E2,2.967100143E0,-4.650450706E0,-5.205585480E0
3.695269268E2,1.398604870E0,-7.319046497E0,4.109074593E0
3.700269268E2,2.548954248E0,-5.304289818E0,-3.672384501E0
3.705269268E2,2.164906263E0,-7.380661488E0,2.886940479E0
3.710269268E2,3.665804386E0,-4.563711166E0,-4.748556614E0
3.715269268E2,4.648656368E0,-6.071787357E0,1.579262972E0
3.720269268E2,3.287738323E0,-4.745565414E0,-4.391427994E0
3.725269268E2,3.209373474E0,-7.529016495E0,1.475773335E0
3.730269268E2,3.186043262E0,-5.208576679E0,-4.712664127E0
3.735269268E2,1.944766641E0,-7.636095047E0,1.283749342E0
3.740269268E2,2.410170555E0,-7.399804115E0,-5.278566837E0
3.745269268E2,3.810570002E0,-6.650252342E0,9.104689956E-1
3.750269268E2,2.935395241E0,-6.026922226E0,-3.920639992E0
3.755269268E2,1.871187329E0,-6.607779503E0,1.352542996E0
3.760269268E2,2.628515720E0,-5.782854080E0,-5.734997749E0
3.765269268E2,1.464407444E0,-8.490931511E0,2.976671457E0
3.770269268E2,4.203591347E0,-4.980062008E0,-4.425525665E0
3.775269268E2,4.564309120E0,-7.392625332E0,9.056833982E-1
3.780269268E2,3.695714474E0,-5.039284706E0,-4.959722996E0
3.785269268E2,4.159922123E0,-7.526025295E0,2.188236237E0
3.790269268E2,5.370690346E0,-4.485345840E0,-5.707480431E0
3.795269268E2,4.725226402E0,-7.272984505E0,3.320041299E-1
3.800269268E2,4.400999069E0,-5.327619553E0,-4.658227444E0
3.805269268E2,2.888735056E0,-7.124629498E0,5.312066078E-1
3.810269268E2,2.745165825E0,-5.278566837E0,-5.481358528E0
3.815269268E2,1.513460279E0,-9.504291534E0,2.298904419E0
3.820269268E2,4.124029636E0,-5.452046394E0,-4.291527271E0
3.825269268E2,4.109673023E0,-6.921239376E0,8.057830334E-1
3.830269268E2,4.463810444E0,-4.152145386E0,-5.037489891E0
3.835269268E2,4.616951466E0,-7.989036560E0,-6.047859192E-1
3.840269268E2,5.482554913E0,-5.234299660E0,-6.042475224E0
3.845269268E2,4.090530396E0,-8.528019905E0,1.783251047E0
3.850269268E2,5.487340450E0,-5.529214859E0,-3.643072367E0
3.855269268E2,2.971885681E0,-8.668598175E0,1.740180254E0
3.860269268E2,3.903291941E0,-9.023932457E0,-2.070987940E0
3.865269268E2,3.768097401E0,-9.964909554E0,1.830509305E-1
3.870269268E2,5.667998791E0,-7.348956585E0,-2.729014158E0
3.875269268E2,3.074178934E0,-1.005105114E1,1.065404296E0
3.880269268E2,3.067598581E0,-8.526225090E0,-4.427918434E0
3.885269268E2,2.579462767E0,-1.068156052E1,-3.014956415E-1
3.890269268E2,8.043473244E0,-7.560122967E0,-4.728217602E0
3.895269268E2,5.002195835E0,-1.086042404E1,-3.024527788E0
3.900269268E2,8.002795219E0,-7.141977310E0,-4.782654285E0
3.905269268E2,5.720042706E0,-9.801001549E0,-2.961117983E0
3.910269268E2,7.337590694E0,-1.120020485E1,-2.834896564E0
3.915269268E2,6.599404812E0,-1.078026390E1,-2.178664923E0
3.920269268E2,8.906085968E0,-9.882357597E0,-1.804188251E0
3.925269268E2,5.215157032E0,-1.026161957E1,-5.525625706E0
3.930269268E2,5.788836002E0,-9.974481583E0,-3.731606960E0
3.935269268E2,5.842076302E0,-9.258428574E0,-5.678766251E0
3.940269268E2,6.224329948E0,-1.025264645E1,-2.574677229E0
3.945269268E2,5.866004944E0,-8.360522270E0,-4.921437740E0
3.950269268E2,6.575476646E0,-1.048833942E1,-3.040679455E0
3.955269268E2,7.684549809E0,-1.112782192E1,-5.054837704E0
3.960269268E2,5.679364681E0,-1.123370457E1,-2.114058733E0
3.965269268E2,6.768098831E0,-9.023932457E0,-3.811168194E0
3.970269268E2,5.953342915E0,-1.246540928E1,-1.574477315E0
3.975269268E2,6.193821430E0,-8.370093346E0,-4.095315933E0
3.980269268E2,5.206781864E0,-9.419346809E0,-4.186243057E0
3.985269268E2,5.607579708E0,-9.013164520E0,-3.214159012E0
3.990269268E2,6.897311211E0,-9.994221687E0,-1.662413478E0
3.995269268E2,6.851249218E0,-9.358927727E0,-2.734398127E0
4.000269268E2,8.114660263E0,-8.357531548E0,-3.205185890E0
4.005269268E2,7.862815380E0,-8.031509399E0,-2.602194548E0
4.010269268E2,7.844869137E0,-7.840083599E0,-2.429911375E0
4.015269268E2,7.966304779E0,-9.038289070E0,-4.217350006E0
4.020269268E2,7.232306480E0,-7.765905857E0,-2.705085993E0
4.025269268E2,6.055635929E0,-9.521639824E0,-3.386442184E0
4.030269268E2,7.805387497E0,-8.736793518E0,-2.358126640E0
4.035269268E2,5.291727066E0,-9.503094673E0,-4.368097782E0
4.040269268E2,5.851049423E0,-9.363713264E0,-2.930011272E0
4.045269268E2,6.943971157E0,-7.955537319E0,-4.749154568E0
4.050269268E2,7.268198967E0,-9.558130264E0,-1.657029688E-1
4.055269268E2,7.316055298E0,-8.743373871E0,-1.902892232E0
4.060269268E2,4.801796913E0,-1.078863907E1,-2.763710022E-1
4.065269268E2,8.007580757E0,-8.652446747E0,-3.187239647E0
4.070269268E2,4.530809879E0,-1.478405476E1,-2.382055044E0
4.075269268E2,6.029912949E0,-1.476192093E1,-7.992027402E-1
4.080269268E2,4.348356724E0,-1.402971745E1,-2.066202402E0
4.085269268E2,7.417750359E0,-1.155135155E1,-2.341975212E0
4.090269268E2,5.134997368E0,-1.319402409E1,-8.147560954E-1
4.095269268E2,7.406982422E0,-1.145324516E1,-1.844268084E0
4.100269268E2,3.662214994E0,-1.294038486E1,-1.341177106E0
4.105269268E2,6.820741177E0,-1.127318573E1,-2.865405083E0
4.110269268E2,6.180062771E0,-1.041655540E1,-4.450650215E-1
4.115269268E2,7.859824181E0,-1.111884880E1,-1.648056626E0
4.120269268E2,5.227719307E0,-1.080120182E1,-2.210968018E0
4.125269268E2,6.760920525E0,-9.266803741E0,-1.530210137E0
4.130269268E2,5.856433392E0,-1.068993473E1,-7.369893789E-1
4.135269268E2,6.787839413E0,-1.066540909E1,-8.745766878E-1
4.140269268E2,3.483949661E0,-1.030708313E1,-1.512263894E0
4.145269268E2,6.607779503E0,-1.092203903E1,-1.992024899E0
4.150269268E2,3.410370588E0,-1.003071213E1,-9.601200819E-1
4.155269268E2,7.844869137E0,-1.056012440E1,-2.261815548E0
4.160269268E2,3.312862873E0,-1.080897808E1,-1.515254974E0
4.165269268E2,8.055437088E0,-1.103270721E1,-1.102493048E0
4.170269268E2,4.511667252E0,-1.011864853E1,-1.771885157E0
4.175269268E2,8.662017822E0,-1.223210907E1,-9.092726111E-1
4.180269268E2,4.691727161E0,-9.739984512E0,-1.306481123E0
4.185269268E2,7.020541668E0,-1.172961617E1,-1.256830096E0
4.190269268E2,3.483949661E0,-1.077069283E1,-1.678565025E0
4.195269268E2,5.581857204E0,-1.098425198E1,-1.292124242E-1
4.200269268E2,3.994219303E0,-9.807581902E0,-1.689332843E0
4.205269268E2,4.232305050E0,-8.826524734E0,-9.170492887E-1
4.210269268E2,4.490729809E0,-8.100900650E0,-9.990034699E-1
4.215269268E2,4.581058979E0,-9.793225288E0,9.930214286E-2
4.220269268E2,1.642672777E0,-7.601399422E0,-2.338984251E0
4.225269268E2,2.906681299E0,-8.007580757E0,-5.820540786E-1
4.230269268E2,3.385245800E0,-8.907880783E0,-1.348355532E0
4.235269268E2,4.788636208E0,-7.607381344E0,5.772684813E-1
4.240269268E2,5.533402443E0,-7.928617954E0,-3.230310604E-2
4.245269268E2,6.246463299E0,-8.360522270E0,1.700698733E0
4.250269268E2,4.670789719E0,-7.759325504E0,-9.780662656E-1
4.255269268E2,5.272584915E0,-6.567101955E0,8.171489239E-1
4.260269268E2,3.897309780E0,-7.950153351E0,-4.929214716E-1
4.265269268E2,4.596014023E0,-8.005187988E0,-6.969096065E-1
4.270269268E2,3.968496323E0,-8.451449394E0,-2.524427772E-1
4.275269268E2,4.485345840E0,-7.052246571E0,1.591227055E-1
4.280269268E2,4.957928658E0,-9.252447128E0,6.496513486E-1
4.285269268E2,5.313262463E0,-7.194021225E0,-8.793623000E-2
4.290269268E2,3.644867182E0,-8.907281876E0,-2.787638307E-1
4.295269268E2,4.971088886E0,-6.984051228E0,-1.004985496E-1
4.300269268E2,3.935595036E0,-8.451449394E0,-6.568298340E-1
4.305269268E2,4.925625324E0,-7.026523590E0,-1.531406492E-1
4.310269268E2,4.619942188E0,-7.582256794E0,-7.513462901E-1
4.315269268E2,4.825126648E0,-7.897511005E0,5.485545993E-1
4.320269268E2,4.516452789E0,-7.604390144E0,-4.689932466E-1
4.325269268E2,5.198407173E0,-7.588837147E0,2.392822690E-2
4.330269268E2,4.064807415E0,-7.625327587E0,-1.999203324E0
4.335269268E2,3.925425529E0,-8.277970314E0,-8.309076428E-1
4.340269268E2,4.049852371E0,-7.627122402E0,-1.872383714E0
4.345269268E2,3.232105255E0,-8.098507881E0,-1.423131227E0
4.350269268E2,2.682952404E0,-7.801798344E0,-1.469193101E0
4.355269268E2,4.729413986E0,-7.532605648E0,-7.788637877E-1
4.360269268E2,6.077769399E-1,-8.094321251E0,-2.212762833E0
4.365269268E2,1.347757339E0,-7.813164234E0,-4.803591371E-1
4.370269268E2,2.666800737E0,-8.414361000E0,-6.586244106E-1
4.375269268E2,2.103889227E0,-7.613961697E0,-7.339983582E-1
4.380269268E2,2.608176708E0,-7.933403492E0,-4.462614357E-1
4.385269268E2,2.516052961E0,-6.053841114E0,-1.843669891E0
4.390269268E2,2.608176708E0,-7.379465103E0,-1.003789067E0
4.395269268E2,2.876172781E0,-6.342176437E0,-1.288534999E0
4.400269268E2,3.534797192E0,-7.861618996E0,8.554341197E-1
4.405269268E2,2.797807932E0,-6.714260101E0,-2.202593327E0
4.410269268E2,2.471187592E0,-8.781659126E0,4.833501875E-1
4.415269268E2,2.331805706E0,-6.141179085E0,-1.925624013E0
4.420269268E2,2.203191519E0,-8.995218277E0,7.310073376E-1
4.425269268E2,3.783650875E0,-6.032904148E0,-1.743769526E0
4.430269268E2,3.334398270E0,-6.763911247E0,1.561316729E0
4.435269268E2,2.874378204E0,-6.808178425E0,-1.914258122E0
4.440269268E2,2.606382132E0,-7.848458290E0,3.349951804E-1
4.445269268E2,3.519243956E0,-5.437689304E0,-2.706880569E0
4.450269268E2,4.165306091E0,-7.034898758E0,1.931606054E0
4.455269268E2,3.759722471E0,-5.636293888E0,-2.707478762E0
4.460269268E2,3.495315790E0,-7.238886833E0,2.059023857E0
4.465269268E2,3.334398270E0,-4.779663086E0,-3.522234917E0
4.470269268E2,4.525425911E0,-6.927819729E0,2.310270309E0
4.475269268E2,4.012165546E0,-5.687141418E0,-5.926423550E0
4.480269268E2,3.993022680E0,-8.411968231E0,1.828116536E0
4.485269268E2,5.361119270E0,-5.450850010E0,-5.184050083E0
4.490269268E2,4.852644444E0,-1.035015392E1,5.874379873E-1
4.495269268E2,3.542573929E0,-6.320641041E0,-4.664209366E0
4.500269268E2,3.285943747E0,-9.552147865E0,-5.006981492E-1
4.505269268E2,7.372884750E0,-6.677171707E0,-3.260220766E0
4.510269268E2,6.615556240E0,-9.452845573E0,-1.660618901E0
4.515269268E2,7.246663570E0,-7.380661488E0,-3.215953588E0
4.520269268E2,5.093721390E0,-9.727422714E0,-1.405185103E0
4.525269268E2,7.898109436E0,-7.871190071E0,-2.284547329E0
4.530269268E2,8.164310455E0,-9.196813583E0,-2.566900492E0
4.535269268E2,6.114858150E0,-7.712665558E0,-1.422533035E0
4.540269268E2,7.439883709E0,-9.226723671E0,-2.312663078E0
4.545269268E2,6.802196503E0,-7.959724426E0,-3.458226919E0
4.550269268E2,5.413761139E0,-8.681160927E0,-6.927221417E-1
4.555269268E2,8.017151833E0,-8.483752251E0,-1.554138303E0
4.560269268E2,6.312266350E0,-8.420941353E0,-4.947160780E-1
4.565269268E2,5.543571949E0,-7.457829952E0,-3.809373617E0
4.570269268E2,6.437889099E0,-9.272786140E0,1.087537885E0
4.575269268E2,4.826921463E0,-5.004588604E0,-4.925625324E0
4.580269268E2,4.945366383E0,-8.012965202E0,1.419542074E0
4.585269268E2,6.457031727E0,-6.346961975E0,-3.932604074E0
4.590269268E2,5.954539299E0,-9.520442963E0,-5.862415582E-2
4.595269268E2,6.187839508E0,-4.907081127E0,-5.157131195E0
4.600269268E2,5.128417015E0,-7.690532207E0,9.056833982E-1
4.605269268E2,3.729812384E0,-5.432903767E0,-4.702494621E0
4.610269268E2,5.678766251E0,-7.945367813E0,6.239284873E-1
4.615269268E2,4.655236244E0,-5.128417015E0,-5.270790100E0
4.620269268E2,5.613562107E0,-9.646066666E0,2.836092949E0
4.625269268E2,5.940182209E0,-4.870590687E0,-5.227719307E0
4.630269268E2,4.624728203E0,-7.971090317E0,1.757528186E0
4.635269268E2,4.928018093E0,-4.975276470E0,-5.630909920E0
4.640269268E2,5.167300701E0,-7.642675400E0,2.118844509E0
4.645269268E2,4.659423828E0,-5.272584915E0,-3.737588882E0
4.650269268E2,4.643272400E0,-7.928019524E0,1.579262972E0
4.655269268E2,4.533800602E0,-5.291727066E0,-5.200201988E0
4.660269268E2,5.547759533E0,-6.672984123E0,2.027917206E-1
4.665269268E2,4.705485821E0,-6.387042046E0,-3.005385160E0
4.670269268E2,5.590830326E0,-7.904689789E0,2.237289101E-1
4.675269268E2,5.377270699E0,-5.490929604E0,-5.980860233E0
4.680269268E2,5.103292465E0,-7.898109436E0,1.998006850E-1
4.685269268E2,4.506283283E0,-5.599205017E0,-3.116651535E0
4.690269268E2,4.956133842E0,-7.369893551E0,-1.718046665E0
4.695269268E2,5.809773445E0,-4.631308079E0,-5.761917114E0
4.700269268E2,4.334000111E0,-1.043928719E1,1.398604870E0
4.705269268E2,5.888138294E0,-5.965905190E0,-4.664209366E0
4.710269268E2,5.758327484E0,-9.401998520E0,-1.377069473E0
4.715269268E2,7.315456867E0,-7.698906898E0,-3.892524242E0
4.720269268E2,7.922037601E0,-7.191030025E0,-2.649452925E0
4.725269268E2,6.167500496E0,-8.457431793E0,-3.965505362E0
4.730269268E2,7.674380302E0,-8.623732567E0,-2.121237278E0
4.735269268E2,8.271389961E0,-5.464010715E0,-2.552543640E0
4.740269268E2,8.457431793E0,-8.685946465E0,-3.520440340E0
4.745269268E2,9.370293617E0,-9.195018768E0,5.934200287E-1
4.750269268E2,1.095613670E1,-8.605786324E0,-2.404188633E0
4.755269268E2,9.705288887E0,-8.446663857E0,1.734796464E-1
4.760269268E2,8.011170387E0,-8.176873207E0,-3.823730469E0
4.765269268E2,9.491130829E0,-1.037827015E1,4.384847581E-1
4.770269268E2,8.591429710E0,-7.247261524E0,-4.650450706E0
4.775269268E2,4.786841869E0,-1.001934624E1,1.750349760E0
4.780269268E2,6.870990276E0,-8.627322197E0,-5.186443329E-1
4.785269268E2,6.060421467E0,-5.894718647E0,-3.448655605E0
4.790269268E2,3.601796389E0,-7.419544697E0,-3.070589542E0
4.795269268E2,3.326023579E0,-5.240281582E0,-5.320441246E0
4.800269268E2,4.247858524E0,-7.168896675E0,1.738983870E0
4.805269268E2,4.698307037E0,-4.813162804E0,-3.793820381E0
4.810269268E2,4.001996040E0,-7.496115208E0,2.019542217E0
4.815269268E2,5.932405472E0,-5.362913609E0,-4.990231514E0
4.820269268E2,4.846662045E0,-8.880961418E0,7.238288522E-1
4.825269268E2,6.803392887E0,-6.093322754E0,-2.410170555E0
4.830269268E2,3.145365477E0,-9.172286987E0,-5.742774606E-1
4.835269268E2,6.243472576E0,-5.722435474E0,-3.710669756E0
4.840269268E2,5.892923832E0,-9.389435768E0,-5.150550604E-1
4.845269268E2,5.964708805E0,-6.918248653E0,-3.932604074E0
4.850269268E2,5.969494343E0,-9.926624298E0,-1.914258122E0
4.855269268E2,6.832705021E0,-6.451049805E0,-4.224528313E0
4.860269268E2,6.481558323E0,-8.237292290E0,-1.396211982E0
4.865269268E2,4.569094658E0,-8.067401886E0,-3.437887907E0
4.870269268E2,5.281557560E0,-8.572885513E0,-2.994617462E0
4.875269268E2,5.982056618E0,-7.471588612E0,-2.748156786E0
4.880269268E2,7.141977310E0,-8.215756416E0,-1.780260086E0
4.885269268E2,6.680760860E0,-7.088737011E0,-2.602194548E0
4.890269268E2,7.531409264E0,-8.615358353E0,-4.323232174E0
4.895269268E2,8.459226608E0,-8.636893272E0,-1.627119333E-1
4.900269268E2,8.660223007E0,-7.660023689E0,-4.847858906E0
4.905269268E2,8.094321251E0,-9.793225288E0,-1.016351461E0
4.910269268E2,8.553144455E0,-6.873383045E0,-3.946362734E0
4.915269268E2,7.420741081E0,-1.001635551E1,-8.213363886E-1
4.920269268E2,8.167900085E0,-7.143173695E0,-2.730808735E0
4.925269268E2,4.970490932E0,-9.574879646E0,-6.346961856E-1
4.930269268E2,8.674580574E0,-9.711869240E0,-1.395613790E0
4.935269268E2,6.052644730E0,-1.168654537E1,-2.093121529E0
4.940269268E2,1.112303638E1,-9.885348320E0,-6.281159520E-1
4.945269268E2,4.558925152E0,-1.230090332E1,-1.630110383E0
4.950269268E2,8.502297401E0,-1.153520012E1,5.760720372E-1
4.955269268E2,4.080958843E0,-9.809376717E0,-1.667199135E0
4.960269268E2,6.320042610E0,-1.171167088E1,-4.307080805E-1
4.965269268E2,3.687937975E0,-9.450452805E0,-2.566302299E0
4.970269268E2,4.179663181E0,-1.016590691E1,-3.876372576E-1
4.975269268E2,3.595216036E0,-8.681160927E0,-1.381855130E0
4.980269268E2,4.076173306E0,-8.383254051E0,-1.091127157E0
4.985269268E2,2.511267424E0,-1.017428207E1,-1.112662554E-1
4.990269268E2,4.058227062E0,-7.147959232E0,-2.841476917E0
4.995269268E2,5.949753284E0,-9.136993408E0,1.887338877E0
5.000269268E2,3.862015724E0,-6.041278839E0,-3.753740549E0
5.005269268E2,4.829912663E0,-7.918448448E0,1.775474429E0
5.010269268E2,4.672584534E0,-4.712664127E0,-4.922634602E0
5.015269268E2,6.174678802E0,-8.611170769E0,1.451246977E0
5.020269268E2,5.526223660E0,-6.616752625E0,-3.262015581E0
5.025269268E2,7.232306480E0,-7.977670670E0,-2.630310297E0
5.030269268E2,8.447860718E0,-8.207381248E0,-1.570888042E0
5.035269268E2,7.069594383E0,-8.719446182E0,-3.268595695E0
5.040269268E2,9.950552940E0,-8.356932640E0,-8.530412912E-1
5.045269268E2,7.684549809E0,-7.360322475E0,-3.675375462E0
5.050269268E2,4.138386726E0,-9.466006279E0,-1.590030670E0
5.055269268E2,8.440681458E0,-7.579265594E0,-2.257628202E0
5.060269268E2,5.420341492E0,-9.442078590E0,-3.284149170E-1
5.065269268E2,9.285946846E0,-1.068335533E1,-1.747956991E0
5.070269268E2,5.340780258E0,-1.068335533E1,-2.300698996E0
5.075269268E2,8.066802979E0,-1.070668507E1,-3.649054468E-2
5.080269268E2,4.113860130E0,-1.040279675E1,-2.000399828E0
5.085269268E2,6.826124668E0,-1.132642555E1,-1.514058471E0
5.090269268E2,3.884747505E0,-9.826724052E0,-2.082952023E0
5.095269268E2,5.267200947E0,-8.811569214E0,-7.322037220E-1
5.100269268E2,2.868396044E0,-8.377870560E0,-4.833501875E-1
5.105269268E2,3.694518089E0,-7.770691395E0,-8.889335990E-1
5.110269268E2,5.814558983E0,-8.285746574E0,2.353341103E0
5.115269268E2,8.141578674E0,-2.911466837E0,4.465006828E0
5.120269268E2,2.475374937E0,2.675175667E0,8.993423462E0
5.125269268E2,2.821736097E0,5.758925915E0,8.548956871E0
