"Time (s)","Gyroscope x (rad/s)","Gyroscope y (rad/s)","Gyroscope z (rad/s)"
2.697429310E-1,-9.905172586E-1,4.214967042E-2,-1.840230078E-1
7.738949110E-1,-2.407418013E0,-3.017672062E0,9.098830819E-1
1.278047359E0,2.220493406E-1,5.694786906E-1,-8.115338683E-1
1.782200327E0,2.504545636E-2,5.158752799E-1,2.373209596E-1
2.286353817E0,1.841757298E-1,-4.709767401E-1,-2.125809491E-1
2.790507879E0,5.115992576E-2,-6.583595276E-1,1.435532272E-1
3.294662463E0,3.949240744E-1,-1.197294950E0,-9.170607328E-1
3.798817463E0,-5.192350596E-2,-8.353576064E-2,-3.889681399E-1
4.302972723E0,5.994110703E-1,-4.036289155E-1,-2.009745091E-1
4.807128088E0,-1.149952933E-1,2.580903657E-2,6.505709887E-2
5.311283556E0,-9.605848789E-2,5.329795480E-1,2.328922004E-1
5.815438973E0,-1.191949844E0,1.115286350E0,5.708531141E-1
6.319594234E0,-3.567450345E-1,5.326740742E-1,9.679152369E-1
6.823749442E0,7.391463965E-2,-2.127336562E-1,-3.515526950E-1
7.327904494E0,-4.948004782E-1,-3.436114267E-2,5.635227636E-2
7.832059442E0,1.516471803E-1,1.754709035E-1,3.118464649E-1
8.336214181E0,-2.681696415E-1,-1.073594838E-1,-6.763800383E-1
8.840368765E0,-2.719875574E-1,1.889099330E-1,7.962622643E-1
9.344523192E0,-2.724456787E-1,-3.191768378E-2,-8.865175247E-1
9.848677411E0,1.505781710E-1,-1.586721241E-1,1.345735073E0
1.035283158E1,-2.183841616E-1,-2.032652497E-1,-9.929606915E-1
1.085698569E1,1.160643101E-1,-2.394589931E-1,5.120574236E-1
1.136113975E1,-2.321286127E-2,5.623010397E-1,8.277218044E-2
1.186529376E1,-2.021962404E-1,-2.273944169E-1,-1.456912458E-1
1.236944752E1,2.631300092E-1,9.300415963E-2,-1.237001177E-2
1.287360090E1,-3.265072107E-1,-2.026543915E-1,-3.344484568E-1
1.337775392E1,3.367392123E-1,-3.993528485E-1,2.881754637E-1
1.388190621E1,-9.285144508E-2,-2.299905866E-1,-3.521635532E-1
1.438605746E1,3.430005610E-1,-1.372918636E-1,1.288924664E-1
1.489020752E1,-3.171915412E-1,-1.027780026E-1,2.907716334E-1
1.539435626E1,-4.705185890E-1,7.458658814E-1,-3.857611120E-1
1.589850377E1,1.624900252E-1,-4.880809486E-1,3.900371492E-1
1.640264996E1,-1.261435747E-1,5.920807123E-1,7.941242307E-3
1.690679502E1,-7.131846249E-2,-6.589703560E-1,1.343902480E-2
1.741093892E1,-6.719512492E-2,8.408553600E-1,-3.785834610E-1
1.791508173E1,5.024362728E-2,-2.984074354E-1,1.966984570E-1
1.841922350E1,-4.141663313E-1,4.367683083E-2,2.568686306E-1
1.892336429E1,-3.414734006E-1,-1.466075517E-2,-5.913171172E-1
1.942750429E1,4.729620516E-1,-9.514218569E-2,9.752455950E-1
1.993164413E1,-5.757400393E-1,-1.496618707E-2,-5.227475166E-1
2.043578413E1,2.217439115E-1,7.254019380E-2,7.493783832E-1
2.093992426E1,-4.702131748E-1,-6.322450191E-2,-8.930842876E-1
2.144406489E1,1.962403059E-1,-1.550069451E-1,8.736893535E-1
2.194820598E1,-2.283107042E-1,-7.895427197E-2,-5.969675779E-1
2.245234754E1,6.032289565E-2,-4.922043085E-1,1.075121984E-1
2.295648952E1,1.685986817E-1,1.750127524E-1,2.336557768E-2
2.346063192E1,-3.330740333E-1,-4.825831577E-2,2.838993967E-1
2.396477447E1,1.015562713E-1,5.007563829E-1,-1.736383140E-1
2.446891702E1,-4.356993139E-1,-1.957821548E-1,-1.722638607E-1
2.497305958E1,4.625773430E-1,1.540906429E-1,-7.681624591E-2
2.547720213E1,-5.896372199E-1,-6.314814687E-1,-1.773035079E-1
2.598134468E1,-4.153880477E-2,8.159626126E-1,1.252272725E-1
2.648548723E1,-2.451094985E-1,-5.123628378E-1,-5.039634705E-1
2.698962968E1,-3.901898861E-1,5.086976290E-1,5.902481079E-1
2.749377213E1,-1.847866029E-1,-5.838339925E-1,-7.460185885E-1
2.799791463E1,-1.070540547E-1,5.958985686E-1,7.052434087E-1
2.850205713E1,-2.113592178E-1,-6.081159115E-1,-8.930842876E-1
2.900619963E1,-2.226602137E-1,5.387827158E-1,8.704823256E-1
2.951034208E1,-1.032361463E-1,-4.868592322E-1,-1.349094868E0
3.001448437E1,-1.985310465E-1,2.855792828E-2,1.465770006E0
3.051862655E1,1.901316643E-1,-7.864884287E-2,-1.161712050E0
3.102276864E1,-2.194531709E-1,8.979712427E-2,9.779945016E-1
3.152691056E1,-4.382954910E-2,-8.445205539E-2,-9.786053896E-1
3.203105239E1,-8.994983882E-2,-1.803578287E-1,9.523382187E-1
3.253519447E1,3.649916872E-2,5.955931731E-3,-1.030528903E0
3.303933702E1,-1.487455666E-1,8.628465235E-2,8.512400985E-1
3.354348004E1,-2.003636509E-1,-5.192350596E-2,-7.545707226E-1
3.404762327E1,-1.675296724E-1,-3.634645417E-2,7.990111113E-1
3.455176661E1,-3.344484791E-2,-7.391463965E-2,-7.874047160E-1
3.505590994E1,1.882990748E-1,-3.196350038E-1,6.412553191E-1
3.556005307E1,-4.654789567E-1,2.025016695E-1,-5.772672296E-1
3.606419593E1,2.133445293E-1,-2.050978541E-1,7.046325207E-1
3.656833838E1,-3.098611534E-1,5.268708616E-2,-6.426297426E-1
3.707248025E1,1.374445762E-2,-1.902843714E-1,5.308414698E-1
3.757662161E1,-7.376192510E-2,1.791360974E-1,-5.028944016E-1
3.808076234E1,-1.514944583E-1,-2.761108875E-1,3.565923274E-1
3.858490244E1,-5.054906011E-2,3.144426346E-1,-2.681696415E-1
3.908904218E1,-1.145371497E-1,-3.947713673E-1,9.728021920E-2
3.959318150E1,-1.298087649E-2,4.315759540E-1,-1.896735132E-1
4.009732051E1,-1.088866442E-1,-6.432406306E-1,-6.963858753E-2
4.060145926E1,-1.576031148E-1,4.257727563E-1,-4.535670951E-2
4.110559791E1,-1.148425788E-1,-5.340485573E-1,-1.937968582E-1
4.160973640E1,2.261726856E-1,3.332267404E-1,6.811141968E-2
4.211387463E1,-2.599229515E-1,-2.939786613E-1,-8.032871783E-2
4.261801270E1,-2.904661894E-1,3.735437989E-1,8.017600328E-2
4.312215067E1,2.458730713E-2,-3.286452591E-1,-1.548542231E-1
4.362628859E1,-3.119991720E-1,2.981020212E-1,3.378082216E-1
4.413042645E1,1.259908676E-1,-6.275108457E-1,-4.696022868E-1
4.463456416E1,-3.752236962E-1,4.022544622E-1,2.582430840E-1
4.513870161E1,2.107483521E-2,-1.818849891E-1,-2.683223486E-1
4.564283874E1,2.901607752E-2,-3.695731983E-2,7.121156454E-1
4.614697546E1,-4.016436040E-1,1.895207912E-1,-9.120211005E-1
4.665111176E1,2.203694731E-1,-2.800815105E-1,1.010370374E0
4.715524775E1,-3.646862805E-1,4.566214234E-2,-7.988584042E-1
4.765938348E1,2.635881603E-1,-2.220493406E-1,9.069814682E-1
4.816351905E1,-2.307541668E-1,3.604102135E-2,-5.184714794E-1
4.866765442E1,2.470948100E-1,-4.292852283E-1,5.395463109E-1
4.917178963E1,-2.428187430E-1,2.267835438E-1,-5.908589363E-1
4.967592468E1,-7.620538026E-2,-3.069595397E-1,4.440986812E-1
5.018005958E1,-1.579085439E-1,4.937314689E-1,-4.341721535E-1
5.068419426E1,-3.416261375E-1,-2.593120933E-1,1.522580534E-1
5.118832879E1,2.506072819E-1,1.430950761E-1,-7.589995116E-2
5.169246322E1,-1.838703007E-1,-2.565632164E-1,-7.589995116E-2
5.219659734E1,-1.970038936E-2,4.587594569E-1,-1.081230640E-1
5.270073140E1,-1.586721241E-1,-3.025307953E-1,-2.906189263E-1
5.320486520E1,-2.121227980E-1,2.380845547E-1,6.690496206E-1
5.370899879E1,3.081812859E-1,-5.308414698E-1,-4.894554019E-1
5.421313228E1,-5.421425030E-2,-2.703076601E-1,-1.404988952E-2
5.471726562E1,-1.166751757E-1,-2.150243968E-1,-1.713475734E-1
5.522139890E1,1.350011230E-1,4.549415410E-1,-4.086685479E-1
5.572553218E1,-2.441931963E-1,-1.779143661E-1,3.746128380E-1
5.622966525E1,-5.345067009E-3,1.889099330E-1,1.765399277E-1
5.673379806E1,-6.261363626E-2,-2.173151523E-1,-2.167042792E-1
5.723793051E1,-4.425715208E-1,2.469420880E-1,4.674642682E-1
5.774206254E1,-1.061377525E-1,-1.450803876E-1,-3.378082216E-1
5.824619421E1,2.310595959E-1,-2.290742844E-2,4.150826037E-1
5.875032567E1,-2.029598206E-1,-2.443459118E-3,-4.531089365E-1
5.925445676E1,6.719512492E-2,8.720094711E-2,7.754928470E-1
5.975858749E1,-4.440986812E-1,2.373209596E-1,-6.154462695E-1
6.026271796E1,1.912006736E-1,-3.262017965E-1,8.503237963E-1
6.076684817E1,-1.244636998E-1,-1.806632578E-1,-9.967786074E-1
6.127097817E1,1.594357044E-1,-3.335321844E-1,7.380773425E-1
6.177510786E1,-4.153880477E-1,1.769980639E-1,-5.549706817E-1
6.227923744E1,1.632536054E-1,-5.178605914E-1,2.382372618E-1
6.278336687E1,6.001746282E-2,3.761399984E-1,-6.273581386E-1
6.328749619E1,-1.030834317E-1,-3.755291104E-1,4.474584386E-2
6.379162541E1,4.170679152E-1,1.566868126E-1,-2.681696415E-1
6.429575437E1,-5.123628378E-1,-2.350302190E-1,3.133736253E-1
6.479988317E1,-9.789107740E-2,2.209803313E-1,1.482874304E-1
6.530401176E1,-1.395826042E-1,-2.874118686E-1,-1.744018942E-1
6.580814010E1,-3.086394370E-1,2.469420880E-1,2.530507445E-1
6.631226817E1,-7.254019380E-2,-2.267835438E-1,-2.112064958E-1
6.681639598E1,-3.039052188E-1,1.038470119E-1,5.499309897E-1
6.732052364E1,1.817322709E-2,-2.562577724E-1,-7.768672705E-1
6.782465103E1,-3.124573231E-1,1.027780026E-1,9.943351150E-1
6.832877807E1,-7.024945319E-2,-1.214093715E-1,-8.999565244E-1
6.883290468E1,4.978547990E-2,3.558287397E-2,9.082031846E-1
6.933703093E1,-8.979712427E-2,-1.327103674E-1,-7.524327040E-1
6.984115692E1,2.926042378E-1,-1.840230078E-1,4.149298966E-1
7.034528338E1,-5.316050649E-1,1.554650813E-1,-4.781544209E-1
7.084941062E1,2.350302190E-1,-1.270598769E-1,5.561923981E-1
7.135353843E1,-1.892153621E-1,1.447749585E-1,-4.356993139E-1
7.185766682E1,3.588830680E-2,-4.415025115E-1,4.025598764E-1
7.236179562E1,5.039634649E-3,3.695731983E-2,-1.084285006E-1
7.286592452E1,2.443459071E-2,-3.068068326E-1,1.934914142E-1
7.337005338E1,1.802051067E-2,2.118173689E-1,-5.604684353E-2
7.387418213E1,-2.348775119E-1,-5.076286197E-1,-9.758564830E-2
7.437831082E1,1.563813835E-1,1.704312712E-1,-4.306596518E-2
7.488243947E1,-3.683514595E-1,-2.335030586E-1,3.711003438E-2
7.538656812E1,1.033888608E-1,3.543015718E-1,1.580612659E-1
7.589069682E1,-2.887863219E-1,-2.640463114E-1,-1.806632578E-1
7.639482556E1,1.685986817E-1,2.434296161E-1,1.841757298E-1
7.689895421E1,-2.440404743E-1,-2.574795187E-1,-2.547306120E-1
7.740308291E1,9.896009415E-2,1.646280587E-1,1.569922417E-1
7.790721140E1,-3.084867075E-2,-3.607156575E-1,-4.245510325E-2
7.841133973E1,-4.013381600E-1,5.745183229E-1,-7.681624591E-2
7.891546791E1,2.535088956E-1,-5.575668216E-1,3.833176568E-2
7.941959593E1,-1.392771751E-1,3.069595397E-1,8.582650125E-2
7.992372400E1,-5.253437161E-2,-4.505127668E-1,-4.428769462E-3
8.042785239E1,-2.458730787E-1,2.825249732E-1,-1.537852138E-1
8.093198153E1,7.834340632E-2,-3.240637779E-1,8.826996386E-2
8.143611039E1,-1.145371422E-2,1.481347084E-1,3.119991720E-1
8.194023940E1,3.339903057E-1,-5.467239618E-1,-9.987638891E-2
8.244436851E1,-4.182896614E-1,5.528326035E-1,1.870773435E-1
8.294849757E1,-1.298087686E-1,-1.681405306E-1,-4.283689260E-1
8.345262664E1,-6.108647957E-2,3.940077871E-2,5.409207344E-1
8.395675559E1,-1.424842030E-1,-8.307760954E-2,-7.858775258E-1
8.446088440E1,2.620609999E-1,3.069595434E-2,9.631810188E-1
8.496501299E1,-4.440986812E-1,-3.489564955E-1,-8.698714375E-1
8.546914132E1,1.820377111E-1,1.689041108E-1,9.120211005E-1
8.597326945E1,-5.994110703E-1,1.023198515E-1,-9.280562997E-1
8.647739726E1,5.317577720E-1,-5.378664136E-1,7.278453708E-1
8.698152466E1,-3.185659945E-1,3.161225319E-1,-8.162680864E-1
8.748565158E1,-8.017600328E-2,-8.115338683E-1,5.994110703E-1
8.798977815E1,1.319467872E-1,3.448331654E-1,-2.875646055E-1
8.849390450E1,-3.969093859E-1,-5.519163013E-1,2.057087123E-1
8.899803070E1,5.093085170E-1,2.109010667E-1,-2.115119249E-1
8.950215674E1,-3.546070158E-1,-4.630354941E-1,3.700313270E-1
9.000628273E1,-1.756236330E-2,8.552107029E-3,-1.343902480E-2
9.051040862E1,-2.432768941E-1,-1.062904745E-1,-1.099556610E-1
9.101453445E1,-6.032289565E-2,1.259908676E-1,1.970038861E-1
9.151866023E1,-1.391244531E-1,-2.878700197E-1,4.902189970E-2
9.202278580E1,-2.467893660E-1,1.417206228E-1,-2.764163166E-2
9.252691106E1,-2.183841616E-1,-3.856084049E-1,7.437278330E-2
9.303103596E1,2.394589931E-1,2.150243968E-1,6.855430007E-1
9.353516039E1,-5.383245945E-1,-7.299833745E-2,-4.453204274E-1
9.403928429E1,5.442805290E-1,-2.000582218E-2,5.829176903E-1
9.454340778E1,-4.028653204E-1,6.093376130E-2,-2.927569449E-1
9.504753086E1,1.547015011E-1,-2.420551628E-1,1.429423541E-1
9.555165346E1,1.250745654E-1,4.092794061E-1,6.536252797E-2
9.605577554E1,-2.009745091E-1,-3.068068326E-1,7.849612087E-2
9.655989716E1,1.829539984E-1,3.527744114E-2,-1.925751269E-1
9.706401851E1,-1.794415265E-1,-3.277289569E-1,9.651663154E-2
9.756813955E1,-1.579085439E-1,2.464839369E-1,2.133445293E-1
9.807226023E1,1.356119812E-1,-6.977602839E-1,-4.456258714E-1
9.857638049E1,-3.582721949E-1,5.687150955E-1,3.263545036E-1
9.908050039E1,2.974911332E-1,-5.085449219E-1,-3.897317350E-1
9.958461997E1,-7.428115606E-1,3.969093859E-1,1.432477981E-1
1.000887392E2,1.469129771E-1,-2.452622056E-1,-7.376192510E-2
1.005928580E2,-3.375028074E-2,-8.414662629E-2,1.481347084E-1
1.010969764E2,-2.075413018E-1,-5.543597788E-2,-4.024071693E-1
1.016010943E2,3.729329407E-1,1.637117565E-1,9.137009978E-1
1.021052118E2,-5.595521331E-1,1.171333194E-1,-2.855792940E-1
1.026093291E2,-2.076940238E-2,2.115119249E-1,5.745183229E-1
1.031134462E2,-1.530216336E-1,-2.634354234E-1,-5.031998754E-1
1.036175631E2,1.565341055E-1,2.290742937E-3,5.224421024E-1
1.041216796E2,5.100720748E-2,-1.252272818E-2,-4.619664848E-1
1.046257958E2,-1.977674663E-1,-2.220493406E-1,2.457203567E-1
1.051299117E2,1.742491722E-1,3.213148713E-1,-2.058614343E-1
1.056340277E2,-2.842048407E-1,-3.995055556E-1,-1.343902480E-2
1.061381437E2,7.925970852E-2,3.962985277E-1,-8.765909821E-2
1.066422599E2,-1.795942485E-1,-3.880518377E-1,1.237001177E-2
1.071463763E2,-4.321868345E-2,4.201222658E-1,3.481929377E-2
1.076504926E2,-2.412915789E-2,-3.051269650E-1,-1.382081509E-1
1.081546089E2,-1.707367003E-1,2.834412456E-1,2.490801066E-1
1.086587251E2,1.191186309E-1,-4.124864340E-1,-4.254673123E-1
1.091628412E2,-2.173151523E-1,3.265072107E-1,4.114174247E-1
1.096669569E2,-6.337722391E-2,-2.121227980E-1,-3.878991306E-1
1.101710724E2,-1.088866442E-1,-2.458730713E-2,6.366738081E-1
1.106751877E2,-8.155044913E-2,-1.941022873E-1,-7.780889869E-1
1.111793028E2,2.290742844E-2,2.331976295E-1,8.932369947E-1
1.116834179E2,-3.666715920E-1,6.688969582E-2,-8.323032856E-1
1.121875328E2,2.394589931E-1,-1.186604798E-1,7.941241860E-1
1.126916477E2,-3.043633699E-1,-3.833176568E-2,-8.071050644E-1
1.131957624E2,1.788306683E-1,3.481929377E-2,8.006910086E-1
1.136998771E2,-2.784016132E-1,-1.308777779E-1,-7.134900689E-1
1.142039917E2,9.178243577E-2,-1.821904182E-1,6.328558922E-1
1.147081060E2,-4.123337194E-2,4.169152305E-2,-5.432115197E-1
1.152122200E2,-2.689332068E-1,-2.643517256E-1,5.781835318E-1
1.157163337E2,1.466075480E-1,2.348775119E-1,-3.979783952E-1
1.162204470E2,-2.379318327E-1,-2.635881603E-1,8.078686893E-2
1.167245600E2,4.046979174E-2,3.483456373E-1,-1.511890292E-1
1.172286726E2,-2.629773021E-1,-1.499672979E-1,-1.725693047E-1
1.177327850E2,-1.246164143E-1,2.858847082E-1,2.674060464E-1
1.182368971E2,-3.558287397E-2,-3.527744114E-1,-3.587303460E-1
1.187410089E2,-1.731801629E-1,2.234237939E-1,4.379900396E-1
1.192451204E2,1.527161949E-4,-4.053087831E-1,-5.258018374E-1
1.197492316E2,-1.328630932E-2,1.742491722E-1,5.099193454E-1
1.202533427E2,-3.604102135E-2,-3.521635532E-1,-6.531671882E-1
1.207574537E2,-1.786779463E-1,2.770271897E-1,7.901535630E-1
1.212615647E2,-2.211330533E-1,-2.611446939E-2,-7.250964642E-1
1.217656756E2,2.402225733E-1,4.688387364E-2,8.681915402E-1
1.222697866E2,-3.564395905E-1,9.621120058E-3,-8.946114779E-1
1.227738976E2,4.532616735E-1,-3.627009690E-1,4.369210303E-1
1.232780086E2,-4.706713259E-1,9.651663154E-2,-3.006981909E-1
1.237821195E2,5.250383019E-1,-2.809978127E-1,2.718348205E-1
1.242862302E2,-2.619082630E-1,1.075121984E-1,-1.765399277E-1
1.247903408E2,-9.025526792E-2,-3.229947388E-1,1.527161949E-4
1.252944513E2,3.619373962E-2,2.985601723E-1,3.665188700E-2
1.257985618E2,-2.470948100E-1,-1.354592592E-1,1.157588735E-1
1.263026803E2,1.466075480E-1,2.492328286E-1,1.404988952E-2
1.268067822E2,-3.008508980E-1,-3.507890999E-1,5.589412898E-2
1.273108919E2,2.047924101E-1,3.480401933E-1,1.018617004E-1
1.278150014E2,-1.391244531E-1,-2.474002391E-1,-3.694204688E-1
1.283191104E2,1.693622619E-1,-1.087339297E-1,2.458730787E-1
1.288232193E2,4.993819445E-2,-3.208567202E-1,-3.718639314E-1
1.293273281E2,-1.386663020E-1,3.507890999E-1,1.238528341E-1
1.298314368E2,4.535670951E-2,-2.831358314E-1,-2.967275679E-1
1.303355454E2,-2.868010104E-1,2.762635946E-1,3.498727977E-1
1.308396539E2,-1.985310577E-2,-2.357937992E-1,-6.750056148E-2
1.313437623E2,-1.365282834E-1,2.067777216E-1,2.435823381E-1
1.318478706E2,-1.882990748E-1,-1.973093301E-1,-4.379900396E-1
1.323519789E2,-6.185005978E-2,2.504545450E-1,5.673406720E-1
1.328560871E2,-6.200277433E-2,-2.214384824E-1,-5.102248192E-1
1.333601953E2,1.148425788E-1,4.108065739E-2,7.935133576E-1
1.338643038E2,-4.004218578E-1,1.679878123E-2,-7.460185885E-1
1.343684125E2,2.425133139E-1,8.231402934E-2,7.845031023E-1
1.348725216E2,-1.679878086E-1,-2.915352285E-1,-4.920515716E-1
1.353766311E2,1.201876476E-1,-3.466657549E-2,6.278162599E-1
1.358807410E2,-3.665188551E-1,-2.565632015E-2,-7.221949100E-1
1.363848514E2,2.506072819E-1,-3.776671588E-1,5.821541548E-1
1.368889622E2,-2.040288299E-1,9.392046183E-2,-4.691441655E-1
1.373930732E2,-1.371391416E-1,-2.246455252E-1,1.270598769E-1
1.378971844E2,3.023780584E-1,2.991710305E-1,-1.922696829E-1
1.384012957E2,-3.888154328E-1,-4.124864340E-1,2.179260105E-1
1.389054071E2,7.315105945E-2,5.265654325E-1,-2.255618125E-1
1.394095187E2,-4.948004782E-1,-4.752528071E-1,-1.006399691E-1
1.399136302E2,3.133736253E-1,2.916879356E-1,5.329795182E-2
1.404177415E2,-4.289797843E-1,-5.917752385E-1,1.928805560E-1
1.409218530E2,3.313941360E-1,2.730565667E-1,-1.446222365E-1
1.414259645E2,-3.979783952E-1,-2.240346521E-1,3.640754223E-1
1.419300760E2,1.035415828E-1,1.350011230E-1,-3.211621642E-1
1.424341874E2,-1.276707351E-1,-2.379318327E-1,5.838339925E-1
1.429382987E2,-1.643226296E-1,1.689041108E-1,-5.818486810E-1
1.434424098E2,-4.948004708E-2,-4.451677203E-1,6.023126841E-1
1.439465207E2,-5.192350596E-2,8.842267841E-2,-8.176425099E-1
1.444506314E2,-1.745546162E-1,-4.547888339E-1,1.400407553E-1
1.449547418E2,2.276998460E-1,2.913824916E-1,-8.292489499E-2
1.454588521E2,-6.696605086E-1,-5.429060459E-1,-1.317940801E-1
1.459629622E2,1.380554438E-1,4.207331240E-1,4.663952589E-1
1.464670720E2,-4.810560048E-1,-4.815141559E-1,-5.384773016E-1
1.469711818E2,1.997527778E-1,3.914116025E-1,6.562215090E-1
1.474752913E2,-4.132500291E-1,-5.174024701E-1,-7.695369124E-1
1.479794006E2,7.803797722E-2,2.852738500E-1,7.748819590E-1
1.484835098E2,-2.554942071E-1,-6.152935624E-1,-9.466876984E-1
1.489876189E2,1.490510106E-1,4.204276800E-1,8.075632453E-1
1.494917283E2,-3.504836559E-1,-4.593703151E-1,-9.514219165E-1
1.499958383E2,1.739437431E-1,1.601992846E-1,7.412844300E-1
1.504999489E2,-1.547015011E-1,-4.612029195E-1,-6.530144215E-1
1.510040600E2,3.344484791E-2,2.956585586E-1,5.280926228E-1
1.515081714E2,-4.596757516E-2,-3.966039717E-1,-6.378955245E-1
1.520122828E2,-3.365865052E-1,3.222311735E-1,6.928733587E-1
1.525163945E2,2.458730787E-1,-8.500183225E-1,-9.892954826E-1
1.530205065E2,-4.828886092E-1,5.285507441E-1,9.714277387E-1
1.535246186E2,1.327103674E-1,-4.332558513E-1,-8.910989761E-1
1.540287311E2,-2.576322258E-1,6.841685623E-2,1.065042734E0
1.545328436E2,1.024725661E-1,-1.941022873E-1,-1.131474257E0
1.550369561E2,-3.433060050E-1,3.671297431E-1,1.072373152E0
1.555410685E2,3.764454126E-1,-1.050382018E0,-5.390881747E-2
1.560451806E2,1.374445739E-3,2.235765159E-1,-5.940660238E-1
1.565492927E2,3.184132576E-1,1.453858167E-1,1.450803876E-2
1.570534056E2,-6.140718460E-1,2.327394783E-1,3.582721949E-1
1.575575194E2,-5.467239767E-2,-1.814268380E-1,-2.255618125E-1
1.580616339E2,1.464548260E-1,2.661843300E-1,6.032289863E-1
1.585657492E2,-6.174315810E-1,5.192350596E-2,-1.049465656E0
1.590698652E2,2.977965772E-1,-2.171624303E-1,7.886264324E-1
1.595739815E2,-3.249800503E-1,-1.328630932E-2,-8.961386085E-1
1.600780976E2,-3.466657549E-2,-1.084285006E-1,1.182786942E0
1.605822134E2,-4.654789567E-1,3.588830680E-2,-1.349400282E0
1.610863289E2,9.544762224E-2,3.695731983E-2,1.185535789E0
1.615904441E2,-2.286161482E-1,-5.879573524E-2,-7.315105796E-1
1.620945590E2,4.460839927E-1,-4.137081802E-1,7.620537877E-1
1.625986737E2,-5.710058808E-1,2.658788860E-1,-6.860011220E-1
1.631027882E2,2.301433086E-1,-1.463021189E-1,7.619010806E-1
1.636069023E2,-4.083631039E-1,3.970621154E-3,-6.875283122E-1
1.641110163E2,2.295324355E-1,-2.822195292E-1,6.220130324E-1
1.646151299E2,-2.880227566E-1,1.325576603E-1,-3.503309488E-1
1.651192432E2,-1.634063274E-1,-4.718930423E-1,8.643736690E-2
1.656233562E2,1.253799945E-1,3.436114490E-1,-8.323032409E-2
1.661274688E2,-4.436405599E-1,-2.032652497E-1,-6.398808211E-2
1.666315815E2,2.881754637E-1,2.309068888E-1,3.298669681E-2
1.671356945E2,-4.341721535E-1,-3.404043913E-1,-2.412915826E-1
1.676398078E2,-2.017380893E-1,5.549706817E-1,1.788306683E-1
1.681439213E2,-1.689041108E-1,-8.260418773E-1,-2.736674249E-1
1.686480347E2,2.718348205E-1,5.264127254E-1,2.649625838E-1
1.691521479E2,-5.700895786E-1,1.634063199E-2,-5.027416945E-1
1.696562605E2,-3.013090491E-1,6.110175252E-1,7.603739500E-1
1.701603728E2,1.218675226E-1,-1.852447391E-1,-7.973312736E-1
1.706644845E2,-8.988875151E-1,5.189296007E-1,4.115701318E-1
1.711685958E2,-2.382372618E-1,5.319104791E-1,-2.072358727E-1
1.716727067E2,-2.768744528E-1,4.063777924E-1,1.716530025E-1
1.721768169E2,-1.363755614E-1,1.866191924E-1,-3.207040131E-1
1.726809267E2,-5.532907844E-1,5.329795182E-2,5.894845128E-1
1.731850359E2,2.076940238E-2,-5.152644515E-1,-2.799287736E-1
1.736891446E2,-4.505127668E-1,3.342957497E-1,5.713112950E-1
1.741932531E2,2.122755162E-2,-2.565632164E-1,-5.922334194E-1
1.746973620E2,-1.947131455E-1,9.666935354E-2,7.434224486E-1
1.752014714E2,2.011272311E-1,-2.696968019E-1,-9.648609161E-1
1.757055813E2,2.060141414E-1,-4.734201822E-3,6.430879235E-1
1.762096917E2,-2.541197538E-1,1.670715213E-1,-4.138608873E-1
1.767138023E2,-2.496909797E-1,-7.101303339E-2,5.963567495E-1
1.772179132E2,-9.865466505E-2,-3.732383847E-1,-5.974257588E-1
1.777220239E2,1.178968996E-1,-7.024945319E-2,4.497492015E-1
1.782261343E2,-1.401934624E-1,-1.925751269E-1,-5.797106624E-1
1.787302445E2,1.472184062E-1,1.991419196E-1,6.835576892E-1
1.792343545E2,-5.897899270E-1,5.283980444E-2,-6.159043908E-1
1.797384640E2,-1.426369250E-1,5.345066637E-2,8.167262077E-1
1.802425732E2,-1.545487940E-1,-1.786779426E-2,-7.802270651E-1
1.807466821E2,1.036942974E-1,-5.925388262E-2,7.008146048E-1
1.812507907E2,-2.695440948E-1,-9.804379940E-2,-7.186824083E-1
1.817548989E2,1.522580534E-1,3.054323979E-2,9.234748483E-1
1.822590067E2,-1.534797698E-1,-2.176205814E-1,-7.339540124E-1
1.827631142E2,-4.276053514E-3,1.847866029E-1,7.449495792E-1
1.832672214E2,-3.052796721E-1,-3.329212964E-2,-5.335903764E-1
1.837713282E2,3.156643808E-1,-4.917461425E-2,4.917461574E-1
1.842754347E2,-3.943132162E-1,1.130099874E-2,-5.794052482E-1
1.847795411E2,3.981311321E-1,-3.063486814E-1,6.713404059E-1
1.852836474E2,-3.158170879E-1,9.162971377E-2,-7.142536640E-1
1.857877535E2,1.340848207E-1,6.856957078E-2,9.448550940E-1
1.862918594E2,-2.289215773E-1,-3.200931549E-1,-6.849321127E-1
1.867959650E2,-5.323686600E-1,4.639517963E-1,4.149298966E-1
1.873000703E2,-2.919933498E-1,-1.679878086E-1,-7.023417950E-1
1.878041754E2,9.326378107E-1,-8.237511516E-1,5.668824911E-1
1.883082802E2,-4.700604379E-1,6.414080039E-3,-4.132500291E-1
1.888123846E2,1.637117565E-1,-2.093739063E-1,8.263473511E-1
1.893164889E2,-3.940077871E-2,-7.727439702E-2,-6.328558922E-1
1.898205928E2,5.207622424E-2,5.894844979E-2,5.523744822E-1
1.903246964E2,-2.707658112E-1,-1.105665267E-1,-9.498947263E-1
1.908287997E2,1.194240674E-1,-2.055560052E-1,7.822123766E-1
1.913329027E2,-2.780961990E-1,-8.918625861E-2,-1.054199934E0
1.918370053E2,5.888736248E-1,-5.439751148E-1,7.414371371E-1
1.923411077E2,-3.926333487E-1,5.207622424E-2,-9.207259417E-1
1.928452097E2,2.069304436E-1,-1.514944583E-1,8.955277801E-1
1.933493115E2,-1.415679157E-1,1.153007299E-1,-1.130405307E0
1.938534134E2,1.212566569E-1,-2.130390853E-1,1.052061915E0
1.943575158E2,-1.679878100E-3,1.493564397E-1,-1.026558280E0
1.948616185E2,-8.735366166E-2,-1.284343153E-1,8.797979951E-1
1.953657214E2,2.041815519E-1,-8.055779338E-1,-4.024071693E-1
1.958698245E2,8.315396905E-1,-2.503018379E-1,-4.150826037E-1
1.963739277E2,-3.912588954E-1,2.411388755E-1,-4.734201822E-3
1.968780309E2,-8.781181276E-2,2.133445293E-1,4.761691093E-1
1.973821342E2,-4.978547990E-1,-1.053741723E-1,-5.456549525E-1
1.978862377E2,3.353647590E-1,8.246674202E-3,8.785762787E-1
1.983903412E2,-6.272054315E-1,-3.375028074E-2,-8.756746650E-1
1.988944448E2,3.414734006E-1,-1.282816008E-2,9.343177080E-1
1.993985484E2,-5.331322551E-1,-2.025016695E-1,-1.230892539E0
1.999026519E2,5.732966065E-1,-5.665770918E-2,9.627228975E-1
2.004067558E2,-6.021599770E-1,-1.314886510E-1,-6.282744408E-1
2.009108600E2,3.078758419E-1,-1.104138121E-1,8.529199362E-1
2.014149649E2,-4.589121640E-1,1.004872546E-1,-7.081450224E-1
2.019190702E2,-2.596175298E-3,-2.512181401E-1,7.577777505E-1
2.024231762E2,-1.832594350E-2,1.221729559E-3,-6.559160352E-1
2.029272827E2,8.552107029E-3,-5.024362728E-2,5.048797131E-1
2.034313896E2,-2.342666388E-1,1.579085439E-1,-8.274163604E-1
2.039354965E2,4.234820008E-1,-4.607447684E-1,2.591593862E-1
2.044396039E2,-4.366155863E-1,2.315177470E-1,-2.898553312E-1
2.049437097E2,3.756818548E-2,-3.179551065E-1,8.518509269E-1
2.054478155E2,-4.059196413E-1,1.731801629E-1,-5.403099060E-1
2.059519209E2,5.787943676E-2,-2.541197538E-1,5.925388336E-1
2.064560257E2,-1.591302752E-1,3.420842811E-2,-3.596466482E-1
2.069601300E2,-4.978547990E-2,-1.450803876E-1,4.439459741E-1
2.074642337E2,-4.253146052E-1,3.240637779E-1,-9.422588944E-1
2.079683366E2,-5.757400393E-2,-7.208204269E-1,4.619664848E-1
2.084724391E2,-6.979130208E-2,3.649916947E-1,-2.693913579E-1
2.089765416E2,3.924806044E-2,-5.467239618E-1,1.345429718E-1
2.094806440E2,-4.796815813E-1,5.925388336E-1,8.796452731E-2
2.099847465E2,-1.547015011E-1,-6.453786492E-1,2.901607752E-2
2.104888490E2,-3.436114267E-2,2.835939825E-1,3.023780696E-2
2.109929514E2,-2.858847082E-1,-5.279398561E-1,-4.978547990E-2
2.114970538E2,1.220202371E-1,2.832885385E-1,4.902189970E-2
2.120011562E2,-5.638281703E-1,-5.160280466E-1,-9.666935354E-2
2.125052586E2,3.071122766E-1,3.407098353E-1,1.345429718E-1
2.130093610E2,-5.664243698E-1,-2.889390290E-1,-2.446513474E-1
2.135134636E2,5.342012644E-1,1.134681329E-1,2.713766694E-1
2.140175666E2,-8.248201609E-1,-1.255327165E-1,-3.594939113E-1
2.145216702E2,2.956585586E-1,3.953822255E-1,3.643808365E-1
2.150257748E2,-4.335612655E-1,-3.171915412E-1,-7.437278330E-2
2.155298801E2,1.644753367E-1,3.656025827E-1,2.179260105E-1
2.160339864E2,-2.696968019E-1,-4.248564541E-1,-8.414662629E-2
2.165380933E2,3.193295598E-1,6.597339362E-2,-3.254382014E-1
2.170422004E2,-5.192350745E-1,-4.422661066E-1,2.368628234E-1
2.175463075E2,2.061668597E-2,4.265363216E-1,1.572976820E-2
2.180504145E2,-2.298378795E-1,-5.036579967E-1,1.159115955E-1
2.185545212E2,1.927278340E-1,4.147771895E-1,1.828012913E-1
2.190586280E2,-4.459312856E-1,-5.803215504E-1,-3.619373739E-1
2.195627350E2,-1.015562713E-1,4.810560048E-1,1.551596522E-1
2.200668421E2,-3.839285076E-1,-8.410080671E-1,-5.908589363E-1
2.205709492E2,1.788306683E-1,6.658425927E-1,4.123337269E-1
2.210750560E2,-6.739365458E-1,-1.259908676E-1,-4.329504073E-1
2.215791625E2,-1.450803876E-2,5.456549525E-1,6.099484563E-1
2.220832685E2,-2.260199636E-1,-4.569268525E-1,-4.300487936E-1
2.225873741E2,8.597921580E-2,2.041815519E-1,3.956876695E-1
2.230914791E2,-3.116937578E-1,6.765327603E-2,2.260199636E-1
2.235955838E2,-8.964440972E-2,4.783071280E-1,8.903354406E-2
2.240996880E2,-4.925097227E-1,-7.463240623E-1,-4.219548404E-1
2.246037918E2,-6.108647678E-3,5.607738495E-1,5.355756879E-1
2.251078952E2,-4.337140024E-1,-4.450149834E-1,-1.430950761E-1
2.256119984E2,2.050978541E-1,2.845102847E-1,-1.470656991E-1
2.261161013E2,5.560396910E-1,-5.111411214E-1,-5.833758786E-2
2.266202038E2,-1.748600453E-1,4.922043085E-1,2.513708472E-1
2.271243059E2,-5.522217751E-1,-4.430296719E-1,-3.058905303E-1
2.276284075E2,-9.880737960E-2,5.732966065E-1,2.130390853E-1
2.281325088E2,-5.729911923E-1,-3.607156575E-1,3.527744114E-2
2.286366097E2,2.620609999E-1,2.701549530E-1,8.368847519E-2
2.291407102E2,-4.043924809E-1,-4.833467603E-1,-4.205803871E-1
2.296448104E2,7.316632867E-1,2.855792940E-1,9.819651395E-2
2.301489102E2,-6.766854525E-1,-4.317286909E-1,-9.621120058E-3
2.306530097E2,1.986837685E-1,3.410152495E-1,2.710712552E-1
2.311571090E2,-4.770853817E-1,-4.311178327E-1,-4.115701318E-1
2.316612081E2,-4.474584386E-2,4.845684767E-1,4.839576185E-1
2.321653070E2,-3.924806118E-1,-3.116937578E-1,-2.278525680E-1
2.326694057E2,-1.902843714E-1,2.474002391E-1,5.658134818E-1
2.331735042E2,1.079703495E-1,-4.952586293E-1,-5.804742575E-1
2.336776026E2,9.712749720E-2,4.321868345E-2,4.098902643E-1
2.341817010E2,-1.933387071E-1,-4.483747482E-1,-3.266599476E-1
2.346857991E2,5.436696485E-2,4.033234715E-1,3.681987524E-1
2.351898971E2,4.871646687E-2,7.192932814E-2,-4.471530318E-1
2.356939949E2,-1.727220118E-1,1.141858935E0,-1.372918636E-1
2.361980926E2,2.877173126E-1,1.670715213E-1,1.113301069E-1
2.367021901E2,-1.505781710E-1,-1.771507785E-2,-1.527161989E-2
2.372062875E2,1.685986817E-1,-1.051909208E0,4.630354941E-1
2.377103847E2,-3.582721949E-1,-3.765981495E-1,3.229947388E-1
2.382144817E2,3.756818548E-2,-2.122755051E-1,1.936441362E-1
2.387185786E2,-1.301141977E-1,1.174387559E-1,-2.490801066E-1
2.392226754E2,7.696896046E-2,-1.543960720E-1,1.021671370E-1
2.397267721E2,-3.086394370E-1,1.191186309E-1,5.497783050E-2
2.402308686E2,3.527744114E-2,-3.701840639E-1,-6.887500733E-2
2.407349649E2,-1.508836001E-1,3.181078434E-1,3.433060050E-1
2.412390610E2,5.864302069E-2,-3.695732057E-1,-6.010909677E-1
2.417431571E2,-1.710421443E-1,3.601047993E-1,4.628827870E-1
2.422472531E2,-5.696314201E-2,-3.839285076E-1,-4.563159943E-1
2.427513490E2,-3.176496923E-1,2.755000293E-1,6.131555438E-1
2.432554449E2,1.160643063E-2,-2.858847082E-1,-6.368265152E-1
2.437595408E2,-3.284925222E-1,1.102610901E-1,8.495602012E-1
2.442636366E2,6.566796452E-2,-1.067486182E-1,-6.214022040E-1
2.447677324E2,8.552107029E-3,4.245510325E-2,6.017017961E-1
2.452718281E2,-1.452330947E-1,-1.269071549E-1,-5.745183229E-1
2.457759238E2,2.504545636E-2,1.185077652E-1,2.244928032E-1
2.462800194E2,-1.789833754E-1,-2.351829410E-1,-3.880518377E-1
2.467841150E2,3.008509055E-2,-1.603520103E-2,4.787652791E-1
2.472882104E2,-8.552107215E-2,-4.697550237E-1,-3.659079969E-1
2.477923057E2,8.231402934E-2,2.170097083E-1,8.568905592E-1
2.482964007E2,-4.175260663E-1,-1.447749585E-1,-8.481857181E-1
2.488004956E2,2.328922004E-1,2.748891478E-3,9.911280870E-1
2.493045903E2,-5.688678026E-1,3.940077871E-2,-1.034652233E0
2.498086848E2,2.672533318E-2,-7.009673119E-2,1.133154154E0
2.503127790E2,-1.853974611E-1,-5.115992576E-2,-1.081994295E0
2.508168731E2,4.786125422E-1,-2.159406990E-1,1.064584613E0
2.513209670E2,-4.315759540E-1,1.568395346E-1,-6.470585465E-1
2.518250608E2,2.742782831E-1,-2.495382577E-1,6.055197120E-1
2.523291544E2,-4.257727563E-1,-1.064431891E-1,-6.212494969E-1
2.528332477E2,3.187187016E-1,-1.039997265E-1,6.493492723E-1
2.533373410E2,-4.505127668E-1,2.703076601E-2,-6.284271479E-1
2.538414341E2,3.924806044E-2,-4.514290690E-1,4.796815813E-1
2.543455271E2,-2.522871494E-1,3.639226854E-1,-3.077231348E-1
2.548496199E2,-2.076940238E-2,-4.984656572E-1,2.997818887E-1
2.553537127E2,-9.789107740E-2,3.596466482E-1,-3.123046160E-1
2.558578054E2,-4.589121640E-1,-3.791943192E-1,-1.221729559E-3
2.563618981E2,1.996000707E-1,4.031707644E-1,1.791360974E-1
2.568659907E2,-4.967857897E-1,-3.413206935E-1,-2.147189677E-1
2.573700832E2,2.620609999E-1,3.326158822E-1,1.609628648E-1
2.578741756E2,-2.614501119E-1,-3.481929302E-1,-1.531743407E-1
2.583782679E2,-1.792888194E-1,3.594939113E-1,1.704312712E-1
2.588823602E2,-5.574141070E-2,-4.057669342E-1,-5.774199367E-1
2.593864525E2,-4.130973220E-1,2.512181401E-1,6.623301506E-1
2.598905447E2,1.467602700E-1,-5.392408967E-1,-7.658717036E-1
2.603946366E2,1.817322709E-2,1.852447391E-1,7.353284955E-1
2.608987286E2,-8.460476995E-2,9.117157012E-2,-7.738129497E-1
2.614028206E2,-3.882045746E-1,7.880155742E-2,9.604321718E-1
2.619069125E2,4.199695289E-1,-3.420842886E-1,-9.014837146E-1
2.624110043E2,-7.564033270E-1,2.930623889E-1,9.162971973E-1
2.629150960E2,7.024944760E-3,-4.528035223E-1,-9.289726019E-1
2.634191877E2,-2.441931963E-1,7.086031139E-2,1.108719587E0
2.639232793E2,-8.246674202E-3,-3.303251266E-1,-1.017089844E0
2.644273707E2,-1.087339297E-1,8.323032409E-2,1.160948515E0
2.649314621E2,-7.391463965E-2,-8.567378670E-2,-1.197753072E0
2.654355534E2,-2.993237376E-1,3.313941509E-2,1.416290045E0
2.659396447E2,4.734202102E-2,-2.693913579E-1,-1.551901937E0
2.664437359E2,-1.343902498E-1,5.192350596E-2,1.510515928E0
2.669478271E2,-2.446513474E-1,-2.423606068E-1,-1.259603143E0
2.674519181E2,-7.574722916E-2,1.838703007E-1,1.411861181E0
2.679560090E2,-3.637699783E-1,-7.620538026E-2,-1.290146470E0
2.684600997E2,4.428769648E-2,-3.359756200E-3,1.504712701E0
2.689641904E2,-4.700604379E-1,-7.116574794E-2,-1.335655808E0
2.694682810E2,3.017672002E-1,-1.308777779E-1,1.428660035E0
2.699723715E2,-6.000219584E-1,6.582067907E-2,-1.387273908E0
2.704764618E2,2.803869247E-1,6.887500733E-2,1.237153888E0
2.709805520E2,-4.025598764E-1,-2.205221802E-1,-1.786473989E0
2.714846421E2,3.880518377E-1,-3.454440236E-1,1.635590434E0
2.719887320E2,-4.459312856E-1,4.123337101E-3,-5.250383019E-1
2.724928219E2,-2.414443046E-1,-2.390008420E-1,4.550942481E-1
2.729969120E2,-2.090684772E-1,2.183841616E-1,-4.741837978E-1
2.735010026E2,-6.215549260E-2,-2.504545450E-1,5.861247778E-1
2.740050939E2,1.983783394E-1,-6.841685623E-2,-7.858775258E-1
2.745091857E2,-1.656970680E-1,-4.045451880E-1,2.915352285E-1
2.750132781E2,-1.505781710E-1,3.924806118E-1,-5.010618567E-1
2.755173711E2,1.261435747E-1,-6.296488643E-1,3.633118272E-1
2.760214642E2,-1.180496216E-1,3.790415823E-1,-6.047561392E-2
2.765255573E2,-5.132791400E-1,-2.327394783E-1,1.597411335E-1
2.770296502E2,-6.673697382E-2,2.597702444E-1,-2.151771188E-1
2.775337430E2,-3.197877109E-1,-3.272708058E-1,2.724456787E-1
2.780378356E2,4.688387364E-2,2.136499584E-1,-4.016435891E-2
2.785419279E2,-1.267544478E-1,-4.903717041E-1,4.444041103E-2
2.790460201E2,-1.237001196E-1,6.140718460E-1,1.482874304E-1
2.795501120E2,-6.643154472E-2,-5.807796717E-1,-3.191768527E-1
2.800542040E2,-1.334739476E-1,3.332267404E-1,3.703367710E-1
2.805582958E2,-6.963858753E-2,-3.364337683E-1,-4.486801922E-1
2.810623875E2,-2.003636509E-1,2.385426909E-1,4.786125422E-1
2.815664792E2,-2.871064469E-2,-1.944077164E-1,-4.367683232E-1
2.820705708E2,1.464548260E-1,9.208786488E-2,6.459894776E-1
2.825746627E2,-1.533270627E-1,-6.108647678E-3,-8.239038587E-1
2.830787546E2,-8.338304609E-2,1.189659163E-1,8.265000582E-1
2.835828466E2,-2.571740746E-1,-1.366809905E-1,-7.988584042E-1
2.840869388E2,-1.989891976E-1,1.566868126E-1,6.388118267E-1
2.845910311E2,-1.114828233E-2,-2.935205400E-1,-7.111993432E-1
2.850951235E2,2.802342176E-1,-2.113592178E-1,1.097723961E0
2.855992162E2,-5.367974043E-1,-1.725693047E-2,-1.290604591E0
2.861033094E2,4.161516428E-1,-3.711003438E-2,1.211497545E0
2.866074027E2,-7.079922557E-1,-2.748891478E-3,-1.030834317E0
2.871114960E2,1.441640854E-1,-6.276635826E-2,1.062141180E0
2.876155892E2,-2.289215773E-1,5.253437161E-2,-1.016326308E0
2.881196823E2,1.102610901E-1,-1.864664704E-1,1.163697362E0
2.886237753E2,-3.582721949E-1,-1.160643063E-2,-1.331532478E0
2.891278682E2,2.967275679E-1,-2.762635946E-1,1.359784961E0
2.896319612E2,-3.746128380E-1,-4.001164436E-2,-1.296102405E0
2.901360547E2,3.286452591E-1,-1.317940801E-1,7.733548284E-1
2.906401486E2,-6.055197120E-1,-8.277218044E-2,-7.484620810E-1
2.911442429E2,7.310523987E-1,-2.278525680E-1,9.721912742E-1
2.916483377E2,-7.669407129E-1,1.272125840E-1,-9.234748483E-1
2.921524329E2,1.837175786E-1,-1.884517819E-1,1.129947066E0
2.926565287E2,-2.160934210E-1,-9.896009415E-2,-1.087186575E0
2.931606252E2,-1.482874304E-1,-3.313941360E-1,9.897536635E-1
2.936647224E2,-5.416843295E-1,-1.133154184E-1,-1.074053049E0
2.941688204E2,4.057669342E-1,-3.161225319E-1,9.587522745E-1
2.946729194E2,-2.806923687E-1,-9.132428467E-2,-8.652899861E-1
2.951770196E2,9.086613357E-2,6.337722391E-2,9.097303748E-1
2.956811209E2,-6.406444311E-1,-3.303251266E-1,-9.399681687E-1
2.961852231E2,5.097666383E-1,-7.819069177E-2,8.028290272E-1
2.966893256E2,-5.583304167E-1,-1.104138121E-1,-5.183187723E-1
2.971934284E2,1.305723488E-1,2.803869247E-1,9.169080257E-1
2.976975310E2,-7.330377102E-1,-1.632536054E-1,-9.669989347E-1
2.982016333E2,5.587885380E-1,-3.533852696E-1,1.408043265E0
2.987057353E2,-7.599157691E-1,-1.404989064E-1,-1.065653563E0
2.992098369E2,-5.543597788E-2,2.672533318E-2,1.026558280E0
2.997139380E2,-5.062541962E-1,-4.961749315E-1,-1.038470149E0
3.002180386E2,4.880809486E-1,2.000582218E-2,1.127045512E0
3.007221388E2,-5.966621637E-1,-5.451968312E-2,-1.363908291E0
3.012262385E2,-1.461493969E-1,4.886918236E-3,1.589317441E0
3.017303379E2,-5.024362728E-2,-4.027126133E-1,-1.648876786E0
3.022344368E2,4.581485875E-3,-1.258381456E-1,1.236543059E0
3.027385352E2,-4.642572403E-1,3.003927469E-1,-1.049160242E0
3.032426332E2,5.070177838E-2,1.139262840E-1,9.456186891E-1
3.037467307E2,-1.145371422E-2,-4.463894367E-1,-1.048396707E0
3.042508279E2,6.652317643E-1,-1.098029464E-1,7.136427760E-1
3.047549251E2,-7.237220407E-1,-1.432477981E-1,-5.598575473E-1
3.052590228E2,6.568323374E-1,-2.504545636E-2,7.267763615E-1
3.057631209E2,-8.964440823E-1,-8.109229803E-2,-4.973966479E-1
3.062672195E2,2.947422564E-1,-1.629481763E-1,9.688315392E-1
3.067713183E2,-7.619010806E-1,-8.246674389E-2,-7.936660647E-1
3.072754173E2,2.373209596E-1,-1.618791670E-1,9.679152369E-1
3.077795164E2,-4.682278633E-1,-9.178243577E-2,-8.988875151E-1
3.082836152E2,1.463021189E-1,2.501491308E-1,1.014951825E0
3.087877138E2,-4.315759540E-1,-2.651153207E-1,-1.066264510E0
3.092918120E2,3.611738086E-1,-1.776089370E-1,1.036332130E0
3.097959098E2,-5.876519084E-1,-3.871355653E-1,-9.179770350E-1
3.103000073E2,4.563159943E-1,4.856374860E-2,6.017017961E-1
3.108041048E2,-4.134027362E-1,-9.025526792E-2,-5.035052896E-1
3.113082025E2,5.311469436E-1,-2.134972364E-1,9.317215085E-1
3.118123003E2,-8.258891702E-1,-1.371391416E-1,-7.049379349E-1
3.123163984E2,3.639226854E-1,6.643154472E-2,1.027779937E0
3.128204965E2,-7.761036754E-1,4.578431547E-1,-1.015257239E0
3.133245941E2,2.474002391E-1,-3.733910918E-1,9.711222649E-1
3.138286913E2,-5.061014891E-1,1.282816008E-2,-1.039691806E0
3.143327880E2,5.276344419E-1,-2.898553312E-1,1.109177709E0
3.148368843E2,-5.693259835E-1,-2.967275679E-1,-9.572250843E-1
3.153409801E2,3.275762498E-1,-5.345066637E-2,9.144645929E-1
3.158450755E2,-5.291616321E-1,-2.487746775E-1,-1.166446328E0
3.163491704E2,4.169152081E-1,9.010255337E-3,1.362228513E0
3.168532649E2,-6.953168511E-1,-3.408625424E-1,-1.194087982E0
3.173573589E2,3.194822669E-1,2.535088919E-2,1.142469883E0
3.178614524E2,-6.097957492E-1,1.582139730E-1,-7.932079434E-1
3.183655455E2,1.653916389E-1,7.773254067E-2,7.528908253E-1
3.188696382E2,-3.787361681E-1,-2.515235841E-1,-6.530144215E-1
3.193737305E2,7.710640430E-1,-4.163043499E-1,3.958403766E-1
3.198778225E2,-5.219839811E-1,2.901607752E-1,-2.015853822E-1
3.203819141E2,1.556178033E-1,-1.936441362E-1,5.178605914E-1
3.208860054E2,-4.398226440E-1,6.108647957E-2,-6.545416117E-1
3.213900965E2,1.302669197E-1,-2.527453005E-1,6.824886799E-1
3.218941873E2,-2.472475171E-1,5.543597788E-2,-6.710349321E-1
3.223982780E2,5.482511222E-2,-2.927569449E-1,7.073814273E-1
3.229023686E2,-4.251618981E-1,2.026543915E-1,-6.595812440E-1
3.234064589E2,2.397644334E-2,-1.627954692E-1,7.667880058E-1
3.239105490E2,-4.384481907E-1,2.377791107E-1,-1.107803226E0
3.244146390E2,1.200349256E-1,-3.611738086E-1,1.118646145E0
3.249187287E2,-3.320049942E-1,3.665188700E-2,-1.198211312E0
3.254228183E2,-1.863137633E-1,-1.085812151E-1,1.182328820E0
3.259269078E2,-2.396117151E-1,6.078104675E-2,-1.342069864E0
3.264309977E2,-2.458730713E-2,-1.759290546E-1,1.255479813E0
3.269350879E2,-8.292489499E-2,2.049451321E-1,-1.074358463E0
3.274391783E2,7.808378935E-1,-7.651081085E-1,6.356047988E-1
3.279432687E2,-6.890554428E-1,1.556178033E-1,-7.115047574E-1
3.284473591E2,-1.244636998E-1,-3.400989771E-1,9.176716208E-1
3.289514494E2,-5.725330114E-1,2.396117151E-1,-7.363975048E-1
3.294555394E2,-1.090393662E-1,-2.651153207E-1,7.585413456E-1
3.299596291E2,-3.918697536E-1,3.494146466E-1,-9.650136232E-1
3.304637187E2,-3.292561173E-1,-2.041815519E-1,1.108719587E0
3.309678081E2,-3.092502952E-1,1.698204130E-1,-1.148425817E0
3.314718970E2,-1.488982886E-1,-1.249218509E-1,1.065500855E0
3.319759858E2,-2.078467458E-1,3.165806830E-1,-1.291368127E0
3.324800743E2,-1.510363221E-1,-2.386954129E-1,1.098640323E0
3.329841624E2,-3.833176494E-1,3.707949221E-1,-1.201876402E0
3.334882503E2,1.664606482E-2,-4.746419191E-1,1.156061649E0
3.339923379E2,-3.856084049E-1,1.823431402E-1,-1.223256707E0
3.344964252E2,5.797106624E-1,-7.483093739E-1,1.022587657E0
3.350005124E2,-3.952295184E-1,4.274526238E-1,-2.938259542E-1
3.355045999E2,-2.835939825E-1,-5.830704570E-1,-3.891208768E-1
3.360086876E2,5.390881747E-2,4.732674956E-1,-1.588248461E-2
3.365127757E2,-1.420260593E-2,-7.221949100E-1,6.093376130E-2
3.370168638E2,-5.299251899E-2,1.050687432E-1,-2.290742937E-3
3.375209518E2,-2.138026655E-1,-7.237220407E-1,-2.138026655E-1
3.380250396E2,-2.215912044E-1,5.338957906E-1,3.732383847E-1
3.385291271E2,5.461131334E-1,-5.265654325E-1,-6.553052068E-1
3.390332144E2,-4.353938699E-1,1.582139730E-1,7.296779752E-1
3.395373014E2,2.376264036E-1,-5.499309897E-1,-3.924806118E-1
3.400413881E2,-7.038689256E-1,2.306014597E-1,8.191696405E-1
3.405454745E2,-1.710421406E-2,-4.259254634E-1,-6.476693749E-1
3.410495606E2,-3.329212964E-2,-2.939786613E-1,4.013381600E-1
3.415536464E2,3.848448098E-1,-5.894845128E-1,-2.011272311E-1
3.420577321E2,-3.445277214E-1,2.177732885E-1,3.013090491E-1
3.425618176E2,-1.685986817E-1,-9.208786488E-2,-4.680751264E-1
3.430659030E2,2.252563834E-1,-1.235474050E-1,7.464767694E-1
3.435699882E2,-7.058542371E-1,-1.227838174E-1,-4.436405599E-1
3.440740733E2,7.962622643E-1,-2.098320574E-1,2.290742993E-1
3.445781587E2,-8.833104968E-1,1.038470119E-1,-8.582650125E-2
3.450822445E2,4.112647176E-1,-3.987419903E-1,1.742491722E-1
3.455863308E2,-4.054614902E-1,1.227838174E-1,2.794706449E-2
3.460904176E2,-1.797469556E-1,-2.579376400E-1,1.177441850E-1
3.465945052E2,-2.121227980E-1,3.799578846E-1,1.409570426E-1
3.470985932E2,-6.918043643E-2,-4.207331240E-1,-3.824013472E-1
3.476026818E2,1.154534444E-1,2.315177470E-1,4.334085584E-1
3.481067708E2,-3.106247485E-1,-3.597993553E-1,-2.942841053E-1
3.486108602E2,3.281871080E-1,2.539670467E-1,2.229656465E-2
3.491149497E2,-5.787943676E-2,-6.953168511E-1,1.247691289E-1
3.496190393E2,-2.252563834E-1,4.905244112E-1,-2.107483521E-2
3.501231286E2,-2.306014486E-2,-4.627300799E-1,5.696314201E-2
3.506272178E2,1.188132018E-1,2.825249732E-1,2.431241870E-1
3.511313066E2,-1.624900252E-1,-5.396990180E-1,-3.072649837E-1
3.516353951E2,4.291325063E-2,2.419024557E-1,3.170388341E-1
3.521394833E2,-1.559232324E-1,-3.842339516E-1,-1.412624866E-1
3.526435711E2,-2.107483447E-1,7.151699662E-1,2.374736816E-1
3.531476586E2,3.848448023E-2,-7.516691089E-1,-3.054323839E-3
3.536517457E2,1.942549944E-1,1.495091617E-1,3.313941509E-2
3.541558325E2,-4.163043499E-1,-2.495382577E-1,-2.095266134E-1
3.546599189E2,2.826776803E-1,3.268126398E-2,3.425424397E-1
3.551640050E2,6.108647678E-3,-5.123628378E-1,-1.133154184E-1
3.556680910E2,-1.731801629E-1,3.665188700E-2,-1.530216336E-1
3.561721773E2,-1.417206228E-1,-4.271472096E-1,1.803578287E-1
3.566762638E2,-1.346956789E-1,7.930551767E-1,4.129445851E-1
3.571803505E2,-6.078104675E-2,-4.799869955E-1,-2.296851575E-1
3.576844370E2,-6.185005978E-2,2.800815105E-1,-9.437860548E-2
3.581885233E2,-2.519817278E-2,-5.198459029E-1,2.713766694E-1
3.586926092E2,2.029598206E-1,1.339320987E-1,2.817613780E-1
3.591966947E2,-8.949168772E-2,-2.235765159E-1,-2.884808779E-1
3.597007799E2,-2.794706449E-2,1.956294477E-1,6.704241037E-2
3.602048647E2,-9.269873053E-2,-4.831940532E-1,4.856374860E-2
3.607089490E2,1.522580534E-1,4.578431547E-1,1.634063199E-2
3.612130333E2,-4.871646762E-1,-2.168570012E-1,-1.027780026E-1
3.617171172E2,2.580903769E-1,5.939132571E-1,3.793470263E-1
3.622212009E2,-4.644099474E-1,-7.800742984E-1,-3.457494676E-1
3.627252845E2,2.742782831E-1,3.396408260E-1,4.598284662E-1
3.632293678E2,-5.852084756E-1,-4.500546157E-1,-1.145371497E-1
3.637334510E2,1.632536054E-1,3.565923274E-1,1.488982886E-1
3.642375341E2,-2.903134823E-1,-3.680460155E-1,-5.238165334E-2
3.647416171E2,2.819140851E-1,1.470656991E-1,1.872300506E-1
3.652456999E2,-4.295906425E-1,-2.816086709E-1,-2.257145345E-1
3.657497824E2,1.831067204E-1,3.031416535E-1,-3.359756246E-2
3.662538651E2,-4.155407548E-1,-7.930551767E-1,-1.165224537E-1
3.667579481E2,1.992946416E-1,4.268417656E-1,2.599229515E-1
3.672620314E2,-7.379246354E-1,-3.937023580E-1,-6.704241037E-2
3.677661148E2,3.263545036E-1,5.001455545E-1,2.200640440E-1
3.682701982E2,-5.372555852E-1,-3.749182522E-1,-1.018617004E-1
3.687742812E2,4.660898149E-1,1.948658675E-1,-5.513054505E-2
3.692783640E2,-4.564687014E-1,-2.961167097E-1,2.118173689E-1
3.697824469E2,2.625191510E-1,2.252563834E-1,-3.145953640E-2
3.702865299E2,-2.385426909E-1,-3.697259128E-1,1.996000707E-1
3.707906132E2,1.588248461E-1,3.807214797E-1,1.282816008E-2
3.712946970E2,-1.999054998E-1,-5.864301920E-1,-3.103193045E-1
3.717987810E2,7.345648855E-2,4.731147587E-1,3.197877109E-1
3.723028649E2,-3.813323379E-1,-4.468475878E-1,-1.872300506E-1
3.728069489E2,2.350302190E-1,3.782780170E-1,2.197586000E-1
3.733110327E2,-3.520108163E-1,-5.925388262E-2,2.733619884E-2
3.738151165E2,1.740964651E-1,1.605047137E-1,-7.635809598E-4
3.743192003E2,-2.241873741E-1,-3.339903057E-1,1.111773923E-1
3.748232841E2,2.733619809E-1,3.370446563E-1,-6.261364091E-3
3.753273681E2,-1.149952933E-1,-4.842630625E-1,1.172860414E-1
3.758314520E2,-4.780016840E-2,3.275762498E-1,-1.000291109E-1
3.763355359E2,-4.550942779E-2,-5.410735011E-1,2.183841541E-2
3.768396197E2,-1.342375278E-1,6.223185062E-1,-4.581485689E-2
3.773437034E2,-1.023198515E-1,-3.643808365E-1,4.581485689E-2
3.778477870E2,-1.550069451E-1,4.338667095E-1,5.558869615E-2
3.783518704E2,-1.290451884E-1,-5.737547278E-1,-2.619082630E-1
3.788559537E2,-5.650499091E-2,2.438877672E-1,2.116646469E-1
3.793600368E2,-2.138026804E-2,-3.608683646E-1,-2.174678594E-1
3.798641193E2,2.138026804E-2,2.083048970E-1,3.494146466E-1
3.803682019E2,-4.245510325E-2,-3.107774556E-1,-1.414151937E-1
3.808722843E2,5.222893879E-2,1.739437431E-1,2.838993967E-1
3.813763664E2,1.053741761E-2,6.017018110E-2,-1.128572673E-1
3.818804482E2,-2.580903657E-2,1.252272818E-2,-3.118464649E-1
3.823845298E2,2.020435184E-1,-5.809323788E-1,2.113592178E-1
3.828886110E2,-1.035415828E-1,2.675587833E-1,-1.519526094E-1
3.833926919E2,-2.864955962E-1,-4.250091612E-1,2.440404743E-1
3.838967726E2,2.596175298E-3,5.276344419E-1,-4.138609022E-2
3.844008530E2,-1.023198478E-2,-3.135263622E-1,2.043342739E-1
3.849049333E2,-1.905898154E-1,-1.970038861E-1,3.753764033E-1
3.854090134E2,1.765399277E-1,2.109010667E-1,-1.386663020E-1
3.859130933E2,-1.375972927E-1,2.831358314E-1,-1.204930767E-1
3.864171730E2,1.695149690E-1,-1.985310577E-2,-6.383536756E-2
3.869212528E2,-1.794415265E-1,3.375028074E-2,8.704823256E-2
3.874253325E2,3.245218992E-1,-4.401280880E-1,2.072358727E-1
3.879294121E2,-2.657261789E-1,3.987419903E-1,-6.307178736E-2
3.884334917E2,5.574141070E-2,-3.697259128E-1,1.198822111E-1
3.889375712E2,-4.132500291E-1,3.591884971E-1,-4.734201822E-3
3.894416504E2,1.660024971E-1,-4.637990892E-1,-1.615737379E-1
3.899457295E2,-1.576031148E-1,5.386300087E-1,1.113301069E-1
3.904498084E2,9.407317638E-2,-6.050615907E-1,-2.748891478E-3
3.909538871E2,7.131846249E-2,3.539961278E-1,1.334739476E-1
3.914579656E2,-2.440404743E-1,-3.532325625E-1,-2.893971801E-1
3.919620440E2,-2.467893660E-1,6.499601007E-1,5.094612241E-1
3.924661222E2,6.307178736E-2,-9.219476581E-1,-2.892444730E-1
3.929702003E2,-2.797760665E-1,-1.029307172E-1,-7.024944760E-3
3.934742782E2,3.139844835E-1,-1.069013327E-1,-5.497783050E-2
3.939783560E2,-3.210094273E-1,4.425715208E-1,1.777616441E-1
3.944824336E2,7.055488229E-2,-5.894845128E-1,-2.306014597E-1
3.949865111E2,-1.800523996E-1,6.046034098E-1,2.089157552E-1
3.954905884E2,3.303251266E-1,-6.372846961E-1,-8.872810751E-2
3.959946655E2,-4.138609022E-2,4.564687014E-1,2.814559340E-1
3.964987426E2,-4.428769648E-2,-4.395172000E-1,-4.407389462E-1
3.970028196E2,-3.810268939E-1,7.420479655E-1,3.857611120E-1
3.975068973E2,2.419024557E-1,-9.280562997E-1,-4.735729098E-1
3.980109757E2,-2.619082630E-1,6.035344005E-1,3.794997334E-1
3.985150549E2,1.276707351E-1,-6.311760545E-1,-3.995055556E-1
3.990191343E2,-3.042106628E-1,4.143190384E-1,9.773836285E-2
3.995232138E2,8.628465235E-2,-3.370446563E-1,-2.098320574E-1
4.000272932E2,-2.052505612E-1,4.601338804E-1,9.453132749E-2
4.005313726E2,1.301141977E-1,-5.108356476E-1,1.511890348E-2
4.010354518E2,-1.075121984E-1,3.291034102E-1,-7.513637096E-2
4.015395311E2,5.650499091E-2,-3.462076187E-1,-3.451386094E-2
4.020436105E2,-2.638935745E-1,1.262962967E-1,3.820959330E-1
4.025476905E2,3.782780170E-1,-5.326740742E-1,-1.608101577E-1
4.030517711E2,-3.611738086E-1,4.192059636E-1,9.330959618E-2
4.035558523E2,3.578140438E-1,-7.770199776E-1,1.298087649E-2
4.040599336E2,-2.139553875E-1,4.036289155E-1,-2.825249545E-2
4.045640150E2,6.872228533E-2,-1.029307172E-1,-3.414734006E-1
4.050680962E2,-7.467821985E-2,5.609265566E-1,2.229656428E-1
4.055721774E2,1.904370934E-1,-6.598866582E-1,-1.614210159E-1
4.060762583E2,-2.306014597E-1,1.996000707E-1,1.733328849E-1
4.065803392E2,-1.829539984E-1,-2.006690800E-1,-1.600465775E-1
4.070844199E2,-8.124501258E-2,1.408043355E-1,7.276926637E-1
4.075885003E2,3.207040019E-3,-3.443750143E-1,-6.939423680E-1
4.080925804E2,-3.492619395E-1,3.871355653E-1,2.215912044E-1
4.085966603E2,3.608683646E-1,-4.801397026E-1,-1.427896470E-1
4.091007398E2,-2.901607659E-3,3.277289569E-1,3.315468729E-1
4.096048191E2,-4.123337101E-3,-8.151990771E-1,-2.215912044E-1
4.101088980E2,-1.256854236E-1,5.752819180E-1,1.820377111E-1
4.106129767E2,1.388190240E-1,-3.523162603E-1,-3.741546869E-1
4.111170550E2,-1.201876476E-1,1.426369250E-1,4.550942779E-2
4.116211329E2,1.710421406E-2,-1.363755614E-1,3.145953640E-2
4.121252107E2,-2.122755162E-2,4.181369543E-1,-9.880737960E-2
4.126292882E2,-9.621120244E-2,-1.931859851E-1,3.466657549E-2
4.131333655E2,-2.052505612E-1,3.367392123E-1,1.792888194E-1
4.136374426E2,7.987056673E-2,-4.381427765E-1,4.612028971E-2
4.141415194E2,-2.631300092E-1,2.365573794E-1,2.443459071E-2
4.146455959E2,2.066250145E-1,-3.022253513E-1,-2.474002354E-2
4.151496723E2,-2.437350452E-1,1.435532272E-1,2.214384824E-2
4.156537483E2,2.040288299E-1,-1.024725661E-1,-2.857320011E-1
4.161578242E2,-4.828886092E-1,3.929387629E-1,3.426951468E-1
4.166618999E2,2.927569449E-1,-5.673406720E-1,-3.074176908E-1
4.171659753E2,-1.317940801E-1,4.473057389E-1,1.931859851E-1
4.176700504E2,-6.582067907E-2,-3.194822669E-1,-1.989891976E-1
4.181741254E2,-9.743293375E-2,2.338084877E-1,9.376774728E-2
4.186782001E2,9.376774728E-2,-1.872300506E-1,4.199695215E-2
4.191822746E2,-2.383899838E-1,3.503309488E-1,1.647807807E-1
4.196863491E2,-1.725693047E-2,-5.584831238E-1,-2.057087123E-1
4.201904239E2,-1.502727419E-1,2.521344423E-1,2.460257858E-1
4.206944992E2,-1.221729536E-2,-1.328630894E-1,-2.402225733E-1
4.211985753E2,-7.269290835E-2,4.531089365E-1,4.021017551E-1
4.217026520E2,-2.808450758E-1,-3.220784664E-1,-5.560396910E-1
4.222067294E2,4.535670951E-2,7.055488229E-2,8.454368711E-1
4.227108071E2,6.444623321E-2,-8.561269641E-1,-6.736311316E-1
4.232148849E2,1.875354946E-1,1.846338809E-1,-1.951712966E-1
4.237189626E2,-1.834121495E-1,-4.549415410E-1,-6.414080411E-2
4.242230401E2,-1.145371422E-2,3.095557392E-1,2.417497337E-1
4.247271174E2,-5.085449293E-2,-5.196931958E-1,-3.958403766E-1
4.252311944E2,-3.578140438E-1,2.079994529E-1,4.137081802E-1
4.257352712E2,-1.872300506E-1,-2.561050653E-1,-1.678351015E-1
4.262393478E2,-6.414080039E-3,6.750056148E-2,2.075413018E-1
4.267434241E2,-1.757763475E-1,-7.234166265E-1,-2.984074354E-1
4.272475002E2,-1.333212405E-1,2.218966335E-1,5.557342172E-1
4.277515761E2,-7.910698652E-2,-9.291253090E-1,-4.130973220E-1
4.282556518E2,-4.886918142E-2,3.877464235E-1,5.728384256E-1
4.287597274E2,-4.251618981E-1,-3.973675370E-1,-5.471821427E-1
4.292638029E2,2.015853822E-1,1.853974611E-1,7.683151960E-1
4.297678781E2,-1.687513888E-1,-5.210676789E-1,-6.250674129E-1
4.302719532E2,-2.748891525E-2,1.249218509E-1,5.839866996E-1
4.307760280E2,-7.773254067E-2,-6.673697382E-2,-3.662134409E-1
4.312801027E2,-1.020144150E-1,2.060141414E-1,3.636172712E-1
4.317841771E2,-2.848156989E-1,-3.970621154E-2,-3.740019500E-1
4.322882514E2,-2.202167511E-1,2.296851575E-1,4.668534100E-1
4.327923254E2,4.749473557E-2,-2.330449075E-1,-3.565923274E-1
4.332963993E2,-2.840521336E-1,4.031707644E-1,3.463603258E-1
4.338004730E2,-3.370446563E-1,9.712749720E-2,-5.123628378E-1
4.343045467E2,-1.437059343E-1,-1.991419196E-1,6.632464528E-1
4.348086202E2,-2.005163580E-1,4.001164436E-2,-6.663007736E-1
4.353126936E2,-2.733619884E-2,-1.233946830E-1,8.808670044E-1
4.358167669E2,1.461493969E-1,-3.178023994E-1,-5.126682520E-1
4.363208400E2,-4.688387215E-1,5.913171172E-1,3.649916947E-1
4.368249129E2,-2.306014597E-1,-4.952586293E-1,-1.722638607E-1
4.373289856E2,-6.658425927E-2,2.875646055E-1,3.846921027E-1
4.378330581E2,7.864884287E-2,-4.108065665E-1,1.223256737E-1
4.383371303E2,-1.624900252E-1,-6.566796452E-2,-9.605848789E-2
4.388412023E2,3.885099888E-1,-1.925751269E-1,-2.550360374E-2
4.393452740E2,-2.183841616E-1,5.465712547E-1,1.759290546E-1
4.398493454E2,-1.449276656E-1,-5.926915407E-1,-2.515235841E-1
4.403534166E2,-2.868010104E-1,4.094321132E-1,4.931205809E-1
4.408574877E2,-2.544251680E-1,-4.192059636E-1,-3.090975881E-1
4.413615588E2,-2.834412456E-1,6.443096399E-1,6.522508860E-1
4.418656298E2,1.427896470E-1,-5.676460862E-1,-8.347467184E-1
4.423697008E2,-1.527161989E-2,3.927860558E-1,8.272636533E-1
4.428737718E2,3.619373962E-2,-2.310595959E-1,-7.855721116E-1
4.433778427E2,-3.497200906E-1,2.803869247E-1,4.079049528E-1
4.438819137E2,1.171333194E-1,-3.541488647E-1,-2.742782831E-1
4.443859847E2,-1.113301069E-1,2.806923687E-1,5.775726438E-1
4.448900556E2,-7.483093534E-3,-4.210385382E-1,-7.113520503E-1
4.453941264E2,-4.224129915E-1,2.506072819E-1,6.852375865E-1
4.458981975E2,3.321577311E-1,-4.109592736E-1,-3.903425932E-1
4.464022687E2,-7.742711157E-2,4.932733253E-2,2.912297845E-1
4.469063403E2,-6.429351866E-2,-1.965457499E-1,-3.901898861E-1
4.474104121E2,4.001164436E-2,8.368847519E-2,5.270236135E-1
4.479144843E2,-5.574141070E-2,-2.762635946E-1,-3.101665974E-1
4.484185569E2,-3.782780170E-1,2.542724609E-1,5.283980370E-1
4.489226301E2,2.081521749E-1,-2.988655865E-1,-3.167333901E-1
4.494267038E2,-1.832594275E-1,-1.487455666E-1,3.304778337E-1
4.499307779E2,2.736674249E-1,-1.082757786E-1,-2.982547283E-1
4.504348524E2,-5.667297840E-1,4.735729098E-1,2.947422564E-1
4.509389276E2,3.407098353E-1,-4.152353406E-1,-3.695732057E-1
4.514430037E2,-1.096502244E-1,2.327394783E-1,4.995346665E-1
4.519470808E2,4.581485991E-4,-4.392117858E-1,-2.594648004E-1
4.524511588E2,-1.377500147E-1,2.617555559E-1,1.527161920E-3
4.529552377E2,8.124501258E-2,-4.227184355E-1,-9.605848789E-2
4.534593174E2,-2.353356630E-1,2.128863782E-1,2.493855506E-1
4.539633977E2,6.169734150E-2,-4.825831652E-1,-4.557051361E-1
4.544674786E2,-2.580903769E-1,4.729620516E-1,3.020726442E-1
4.549715600E2,3.817904741E-2,-3.524689674E-1,-1.488982886E-1
4.554756419E2,-1.646280587E-1,3.572031856E-1,2.396117151E-1
4.559797242E2,1.114828214E-1,-4.868592322E-1,-1.224783882E-1
4.564838067E2,-4.210385382E-1,5.777253509E-1,1.757763475E-1
4.569878895E2,3.604102135E-2,-3.219257295E-1,-4.476111531E-1
4.574919725E2,-5.488619804E-1,3.741546869E-1,6.374374032E-1
4.579960557E2,3.353647590E-1,-6.368265152E-1,-6.310232878E-1
4.585001389E2,-3.856084049E-1,2.464839369E-1,7.476984859E-1
4.590042222E2,3.481929302E-1,-6.235402226E-1,-9.468404055E-1
4.595083051E2,-5.948295593E-1,3.955349326E-1,8.542944193E-1
4.600123878E2,2.779434621E-1,-5.015199780E-1,-6.374374032E-1
4.605164701E2,-2.541197538E-1,2.761108875E-1,9.511164427E-1
4.610205524E2,1.519526094E-1,-3.669770062E-1,-1.179274440E0
4.615246349E2,-4.615083337E-1,3.014617562E-1,1.285870314E0
4.620287180E2,2.061668634E-1,-4.466948807E-1,-8.407026529E-1
4.625328014E2,-3.622428179E-1,5.589412898E-2,9.251546860E-1
4.630368848E2,1.221729591E-1,-2.941313982E-1,-1.138346553E0
4.635409680E2,-4.468475878E-1,2.637408674E-1,1.153770804E0
4.640450508E2,3.619373739E-1,-4.109592736E-1,-1.252578259E0
4.645491332E2,-3.937023580E-1,1.945604384E-1,1.034194112E0
4.650532151E2,-1.282816008E-2,-3.068068326E-1,-8.672752976E-1
4.655572967E2,-1.534797698E-1,1.241582632E-1,7.449495792E-1
4.660613778E2,7.483093441E-2,-1.366809905E-1,-6.983711720E-1
4.665654585E2,-1.912006736E-1,1.679878100E-3,5.820014477E-1
4.670695386E2,-1.391244531E-1,-2.993237413E-2,-3.691150546E-1
4.675736183E2,-2.732092738E-1,1.989891976E-1,7.031053901E-1
4.680776975E2,5.971203372E-2,-2.125809491E-1,-6.056724191E-1
4.685817763E2,-4.124864340E-1,-6.872228533E-2,8.255837560E-1
4.690858547E2,-1.035415828E-1,-3.133736253E-1,-1.162781119E0
4.695899327E2,9.117157012E-2,-3.100138716E-2,1.130558014E0
4.700940105E2,-8.261945844E-2,1.287397593E-1,-9.153808951E-1
4.705980882E2,-2.474002391E-1,7.422006875E-2,1.192713499E0
4.711021658E2,1.191186346E-2,-5.242747068E-1,-1.251661897E0
4.716062434E2,1.130099874E-2,9.636391699E-2,8.950695992E-1
4.721103208E2,-1.589775532E-1,-3.564395905E-1,-6.670643687E-1
4.726143979E2,2.070831656E-1,6.795870513E-2,6.174315810E-1
4.731184747E2,-2.617555559E-1,8.231402934E-2,-5.864301920E-1
4.736225512E2,-2.820668221E-1,2.854265571E-1,6.386591196E-1
4.741266273E2,1.944077164E-1,-3.214675784E-1,-7.954986691E-1
4.746307031E2,-5.004509687E-1,4.263836145E-1,8.672752976E-1
4.751347786E2,9.758564830E-2,-3.387245238E-1,-9.795216918E-1
4.756388538E2,-7.402154207E-1,3.601047993E-1,1.027932763E0
4.761429288E2,5.390881747E-2,-4.821250141E-1,-1.145218730E0
4.766470035E2,-2.078467458E-1,-6.108647957E-2,1.325423837E0
4.771510780E2,3.132209182E-1,-6.317868829E-1,-1.084285021E0
4.776551522E2,5.543597788E-2,3.817904741E-2,9.401208758E-1
4.781592263E2,-3.335321844E-1,2.008218020E-1,-8.417716622E-1
4.786633003E2,2.474002354E-2,-1.721111536E-1,1.007621408E0
4.791673742E2,-2.692386508E-1,-1.649334840E-2,-7.496837974E-1
4.796714481E2,3.704894781E-1,-1.658497900E-1,7.585413456E-1
4.801755219E2,-6.798924804E-1,2.218966335E-1,-6.531671882E-1
4.806795955E2,4.715875983E-1,-1.861610413E-1,6.850848794E-1
4.811836690E2,-5.965094566E-1,4.459312931E-2,-5.933024287E-1
4.816877423E2,3.752236962E-1,-1.811214089E-1,6.119337678E-1
4.821918155E2,-6.913462281E-1,1.872300506E-1,-6.717985272E-1
4.826958887E2,1.201876476E-1,-1.125518382E-1,7.638863921E-1
4.831999618E2,-2.768744528E-1,4.612028971E-2,-6.956222653E-1
4.837040349E2,1.957821548E-1,-8.445205539E-2,7.153226733E-1
4.842081079E2,-1.695149690E-1,-4.764745384E-2,-9.981530309E-1
4.847121806E2,2.316704690E-1,-1.831067204E-1,9.613484740E-1
4.852162533E2,-4.755582213E-1,-4.546361268E-1,-9.103412628E-1
4.857203259E2,2.214384824E-1,1.658497900E-1,1.064890027E0
4.862243983E2,-3.520108163E-1,-9.697478265E-2,-9.176716208E-1
4.867284705E2,3.732383847E-1,-1.214093715E-1,9.011782408E-1
4.872325425E2,-5.713112950E-1,1.612683088E-1,-5.859720111E-1
4.877366145E2,1.925751269E-1,-1.768453568E-1,6.004800797E-1
4.882406862E2,-4.541779757E-1,-1.325576603E-1,-8.900299668E-1
4.887447577E2,3.442223072E-1,2.183841541E-2,9.552397728E-1
4.892488291E2,-6.664534807E-1,-2.611446939E-2,-8.859066367E-1
4.897529002E2,4.471530318E-1,-3.365865052E-1,1.002429128E0
4.902569711E2,-6.255255342E-1,1.328630894E-1,-9.679152369E-1
4.907610419E2,1.879936308E-1,-1.449276656E-1,1.028085470E0
4.912651125E2,-4.995346665E-1,-1.685986817E-1,-1.134375930E0
4.917691829E2,8.704823256E-2,4.001164436E-2,1.145524144E0
4.922732530E2,-4.300487936E-1,-2.811505198E-1,-1.140026450E0
4.927773229E2,1.346956789E-1,-1.230892539E-1,8.087849617E-1
4.932813926E2,-3.608683646E-1,-9.529490769E-2,-8.892664313E-1
4.937854621E2,-2.173151523E-1,1.137735620E-1,7.261655331E-1
4.942895316E2,3.054323897E-4,-1.753181964E-1,-9.091194868E-1
4.947936009E2,-2.003636509E-1,1.463021189E-1,1.145066023E0
4.952976702E2,-8.093958721E-3,-3.488037884E-1,-1.198822141E0
4.958017394E2,-1.617264450E-1,2.321286201E-1,9.969313145E-1
4.963058085E2,-2.107483521E-2,-3.691150546E-1,-9.763146043E-1
4.968098775E2,-7.516691089E-1,3.051269650E-1,1.023656607E0
4.973139463E2,2.461785078E-1,-6.687442064E-1,-1.222645879E0
4.978180149E2,-2.557996213E-1,2.883281708E-1,1.199585676E0
4.983220834E2,-2.901607659E-3,-7.279980779E-1,-1.105207086E0
4.988261516E2,-3.654498458E-1,6.440041661E-1,9.198096395E-1
4.993302196E2,-3.130681813E-2,-1.087339282E0,-6.076577306E-1
4.998342880E2,-5.253437161E-2,5.832231641E-1,2.067777216E-1
5.003383556E2,-2.075413018E-1,-6.716458201E-1,1.130099874E-2
5.008424230E2,8.765909821E-2,7.156280875E-1,2.211330533E-1
5.013464903E2,-3.767508566E-1,-8.104648590E-1,1.117882580E-1
5.018505575E2,-2.985601723E-1,4.195113778E-1,-3.552178741E-1
5.023546244E2,8.613193035E-2,-7.362447977E-1,8.162680864E-1
5.028586912E2,9.926552325E-2,2.935205400E-1,-2.455676347E-1
5.033627579E2,-5.464185476E-1,-1.053741723E-1,5.711585656E-2
5.038668244E2,3.817904741E-2,4.731147587E-1,5.421425030E-2
5.043708906E2,-1.904370934E-1,-3.733910918E-1,1.514944583E-1
5.048749569E2,-1.711948514E-1,2.926042378E-1,-1.366809905E-1
5.053790229E2,9.972367436E-2,-2.388481349E-1,-1.172860414E-1
5.058830887E2,-1.078176349E-1,3.014617562E-1,1.528689116E-1
5.063871542E2,1.985310465E-1,-3.297142684E-1,5.687150955E-1
5.068912196E2,-7.104357481E-1,3.211621642E-1,-6.814196706E-1
5.073952848E2,1.001818255E-1,2.935205400E-1,9.066760540E-1
5.078993498E2,-4.917461574E-1,-3.145953715E-1,-8.518509269E-1
5.084034147E2,8.414662629E-2,2.054032832E-1,9.795216918E-1
5.089074794E2,-3.171915412E-1,-1.003345400E-1,-9.822705388E-1
5.094115441E2,1.641699076E-1,-5.054906011E-2,9.524909258E-1
5.099156085E2,-6.200277433E-2,-2.429714650E-1,-1.208901405E0
5.104196728E2,-3.155116439E-1,4.717403352E-1,1.002581835E0
5.109237368E2,-1.527161949E-4,-2.780961990E-1,-1.035721183E0
5.114278008E2,7.150171995E-1,2.576322317E0,-1.102916360E0
5.119318645E2,9.334014058E-1,5.071704984E-1,3.601047993E-1
5.124359281E2,1.522580534E-1,-4.581485991E-4,3.588830680E-2
