"Time (s)","Linear Acceleration x (m/s^2)","Linear Acceleration y (m/s^2)","Linear Acceleration z (m/s^2)"
0.000000000E0,-5.730621815E-1,1.632520199E0,-2.130908966E-1
0.000000000E0,1.595639706E0,3.601484299E-1,1.952934265E-1
4.576037650E-1,-1.243260622E0,1.733730197E0,4.179582596E-1
9.576037650E-1,7.654013634E-1,-6.041861534E0,6.694776416E-1
1.457603765E0,1.261632442E0,-3.816614151E0,-2.135722637E-1
1.957603765E0,-1.706221104E0,-2.404898643E0,1.125235081E0
2.457603765E0,6.107597351E-1,-2.755748272E0,1.052870989E0
2.957603765E0,4.348747730E-1,-2.385610580E0,1.713357449E0
3.457603765E0,3.777112961E-1,-2.705340862E0,2.322170258E0
3.957603765E0,5.883669853E-1,-2.938923359E0,7.516078949E-1
4.457603765E0,-3.475065231E-1,1.010911465E0,1.288677692E0
4.957603765E0,5.231122971E-1,-1.131338120E0,1.681500673E0
5.457603765E0,-2.077657700E0,2.103490353E0,3.085062504E-1
5.957603765E0,-3.595333815E0,-2.703090668E0,2.000932932E0
6.457603765E0,6.292107105E-1,2.940455914E0,1.707023978E0
6.957603765E0,-3.710887909E0,1.107672691E0,-2.540382624E0
7.457603765E0,-2.666197777E0,1.368412971E-1,2.158339977E0
7.957603765E0,-1.001811981E0,1.721253395E0,4.235672951E-1
8.457603765E0,-3.968270540E0,-4.526410103E-1,1.897535205E0
8.957603765E0,-2.541433811E0,1.872591496E0,4.338047504E-1
9.457603765E0,-3.475342989E0,-1.704679489E0,1.332203150E0
9.957603765E0,-1.262149096E0,3.053999424E0,1.272449493E-1
1.045760376E1,-2.865628481E0,-6.472835064E0,2.676150799E0
1.095760376E1,3.564656258E0,-1.307803154E0,2.775686979E0
1.145760376E1,-1.381835938E-1,-3.284995079E0,1.638186455E0
1.195760376E1,3.071711540E0,-2.412704468E0,3.118696451E0
1.245760376E1,-2.838520050E0,-3.413297176E0,2.017398834E0
1.295760376E1,5.220713615E0,-2.460656166E0,2.345894337E0
1.345760376E1,-2.451799154E0,-3.175936222E0,1.752559543E0
1.395760376E1,2.248263836E0,-2.439469337E0,8.572306633E-1
1.445760377E1,6.120518684E0,-1.893648148E0,5.864596367E-1
1.495760377E1,4.985955238E0,-2.541307449E0,4.220888615E-1
1.545760377E1,1.155754566E0,-3.506938934E0,1.154015541E0
1.595760377E1,4.841315269E0,1.535377502E-1,-1.533119678E-1
1.645760376E1,1.066885710E0,-2.974645615E0,1.997200489E0
1.695760376E1,3.986988068E0,1.179643154E0,2.114818573E0
1.745760376E1,-9.243936539E-1,-1.995325565E0,-2.910380363E-1
1.795760376E1,9.124398232E-1,2.172947884E0,2.696872234E0
1.845760376E1,7.878637314E-1,8.212428093E-1,-3.687858582E-2
1.895760376E1,-1.898466349E0,7.740688324E-1,3.088690996E0
1.945760376E1,1.119820595E0,2.149624348E0,-1.416387200E0
1.995760376E1,-1.931124926E0,-6.980104446E-1,3.492357969E0
2.045760376E1,2.399280071E-1,3.102048874E0,-5.086135864E-1
2.095760376E1,-2.873198271E0,-2.134923458E0,2.402105331E0
2.145760376E1,-1.026349783E0,1.789728642E0,1.553874016E-1
2.195760376E1,-3.672693491E0,-3.114437103E0,1.440140486E0
2.245760376E1,8.347859383E-1,1.598781586E0,2.971529961E-1
2.295760376E1,-2.316050768E0,-2.885123730E0,2.102082729E0
2.345760376E1,-1.931911230E0,4.819688797E-1,-1.048972607E-1
2.395760376E1,-1.931911230E0,4.819688797E-1,-1.048972607E-1
2.445760376E1,1.434321165E0,-7.447204590E-1,2.552379847E0
2.495760376E1,-3.854316473E0,-1.998489857E0,1.087262273E0
2.545760376E1,2.106272936E0,-9.920120239E-1,1.560710549E0
2.595760376E1,-4.703537941E0,-2.423235416E0,1.633754015E0
2.645760376E1,3.571299314E0,-1.874367714E0,2.352596998E0
2.695760376E1,-4.841585159E0,-3.794215202E0,-3.693535328E-1
2.745760376E1,5.875811577E0,-1.765600204E0,8.611800671E-1
2.795760376E1,-4.812606812E0,-4.941457748E0,1.158791304E0
2.845760376E1,6.927075386E0,-2.033447266E0,1.478384495E0
2.895760376E1,-4.942173958E0,-4.818505764E0,9.183065891E-1
2.945760376E1,8.080453873E0,-1.665296555E0,1.635723114E0
2.995760376E1,-5.291808128E0,-5.789446354E0,5.943188667E-1
3.045760376E1,5.294785976E0,-4.499225616E-1,9.291105270E-1
3.095760376E1,-3.727165461E0,-3.934347153E0,3.400692940E-1
3.145760376E1,3.516695976E0,-1.521690369E0,1.473924160E0
3.195760376E1,-2.247284651E0,-3.410653591E0,6.133008003E-1
3.245760376E1,6.567392349E-1,-1.333920479E0,1.495172143E0
3.295760376E1,-1.445758104E0,-3.893089771E0,1.817458749E0
3.345760376E1,7.591118813E-1,-9.885287285E-1,1.815522313E0
3.395760376E1,5.807933807E-1,-2.873003006E0,9.793684483E-1
3.445760376E1,2.423558712E0,-4.458293915E-1,1.641674995E0
3.495760376E1,-5.875105858E-1,-2.867312908E0,1.413652062E0
3.545760376E1,2.337341309E-1,2.049250603E-1,3.271774769E0
3.595760376E1,5.119018555E-1,-8.683557510E-1,-7.335639000E-2
3.645760376E1,4.737616539E0,-1.689475060E0,8.561015129E-1
3.695760376E1,4.474229813E-1,1.046374798E0,-1.013030648E0
3.745760376E1,3.876873732E0,-1.584550858E0,2.087476254E0
3.795760376E1,-8.459353447E-1,1.804690361E0,-7.393248081E-1
3.845760376E1,2.507992268E0,-6.720333099E-1,2.214802265E0
3.895760376E1,-1.270184994E0,2.351962090E0,-2.579886913E-1
3.945760376E1,5.369791985E-1,-1.183094978E-1,1.179907084E0
3.995760376E1,-2.805800438E-1,1.199735641E0,1.884388924E-1
4.045760376E1,-1.683279037E0,-3.656625748E-1,2.652063608E0
4.095760376E1,-3.398430347E-1,-1.170016289E0,2.216824055E0
4.145760376E1,-3.340890646E0,-1.014249325E0,3.210767269E0
4.195760376E1,-1.377023220E0,-1.397192001E0,1.203588128E0
4.245760376E1,-2.910310030E0,-8.150806427E-1,1.588736176E0
4.295760376E1,1.186176777E0,-2.040049553E0,1.112532616E0
4.345760376E1,-3.257513046E0,-1.628802776E0,1.273389697E0
4.395760376E1,3.892190695E0,-2.406230927E0,1.969727397E0
4.445760376E1,-2.117217541E0,-3.004913330E0,1.765257597E0
4.495760376E1,6.054787636E0,-1.521450996E0,1.316143870E0
4.545760376E1,-2.141609669E0,-3.839316845E0,1.458890676E0
4.595760376E1,5.438638687E0,-1.253129005E0,1.584345937E0
4.645760376E1,-2.717280388E0,-4.733797550E0,9.321911335E-1
4.695760376E1,4.191371441E0,-8.325829506E-1,1.924629807E0
4.745760376E1,-5.631833076E-1,-3.010736942E0,1.556582332E0
4.795760376E1,3.778542995E0,4.558792114E-1,2.119026184E0
4.845760376E1,4.829497337E-1,-2.617126465E0,4.560685158E-1
4.895760376E1,3.486176491E0,-3.238806725E0,1.595325470E0
4.945760376E1,7.011466026E-1,-1.465703011E0,1.356607676E-1
4.995760376E1,5.226595879E0,-2.561397552E0,1.286354184E0
5.045760376E1,2.616162300E-1,3.436565399E-2,-7.446780205E-1
5.095760376E1,4.999869823E0,-1.585132599E0,1.404495001E0
5.145760376E1,1.247682571E0,6.800894737E-1,-1.438241959E0
5.195760376E1,3.075162888E0,-1.724968910E0,2.496828079E0
5.245760376E1,-1.979293823E-1,1.704429626E0,-1.048076391E0
5.295760376E1,1.764446259E0,-6.800537109E-1,1.727028966E0
5.345760376E1,1.940052748E0,2.248666286E0,4.564070702E-1
5.395760376E1,-1.545572281E-1,1.273899078E-1,1.400358677E0
5.445760376E1,-2.736358643E0,1.661468983E0,-9.739947319E-2
5.495760376E1,1.887824059E0,1.527346134E0,2.944427252E0
5.545760376E1,-2.987876892E0,2.720203400E-1,5.232882500E-1
5.595760376E1,-6.621952057E-1,1.014259815E0,2.800044298E0
5.645760376E1,-2.953262329E-1,-5.395412445E-1,7.507964373E-1
5.695760376E1,-2.937734842E0,-2.738857269E-2,2.619097710E0
5.745760376E1,2.223098278E-1,-1.600965500E0,2.451479435E0
5.795760376E1,-1.912451029E0,-5.679440498E-1,1.316923618E0
5.845760376E1,3.486984968E0,-1.450448036E0,3.898348808E-1
5.895760376E1,-1.684948444E0,-1.724834442E0,1.224700451E0
5.945760376E1,5.610276222E0,-1.077568054E0,3.338720798E-1
5.995760376E1,-2.338592291E0,-2.256946087E0,1.249339581E0
6.045760376E1,6.682593822E0,-1.265403748E0,1.504813790E0
6.095760376E1,-3.262444496E0,-3.440680504E0,-2.028734684E-1
6.145760376E1,8.663742542E-1,-9.662294388E-1,2.373791695E0
6.195760376E1,-1.940494537E0,-3.820500851E0,1.161509275E0
6.245760376E1,2.645509243E0,-8.639078140E-1,2.318442822E0
6.295760376E1,-7.867298126E-1,-2.940213680E0,1.432530880E0
6.345760376E1,4.373874664E0,6.275653839E-2,2.386441708E0
6.395760376E1,6.121091843E-1,-8.430852890E-1,1.142110467E0
6.445760376E1,6.053858757E0,-2.636709213E-1,1.578970313E0
6.495760376E1,9.664368629E-1,5.943436623E-1,4.173275232E-1
6.545760376E1,6.024769306E0,-3.952426910E-1,1.649276614E0
6.595760376E1,9.777717590E-1,2.374148369E0,-9.401500225E-1
6.645760376E1,4.858600140E0,-2.301530838E-1,2.480688572E0
6.695760376E1,6.849246025E-1,2.739824772E0,-5.648636818E-2
6.745760376E1,2.252624512E0,3.798613548E-1,2.480910301E0
6.795760376E1,4.710803032E-1,1.166077614E0,1.535001516E0
6.845760376E1,-1.233452320E0,-6.457414627E-1,3.403651714E0
6.895760376E1,1.524517298E0,5.676689148E-1,1.780360818E0
6.945760376E1,-2.474076509E0,3.109979630E-1,2.207274675E0
6.995760376E1,1.301106453E0,-1.235029221E0,2.177663803E0
7.045760376E1,-2.142241001E0,-1.181112289E0,2.230742455E0
7.095760376E1,3.050635338E0,-1.125073433E0,2.566607475E0
7.145760376E1,-1.939572811E0,-2.256884575E0,9.067937136E-1
7.195760376E1,5.023506165E0,-8.665323257E-1,1.497777462E0
7.245760376E1,-2.026179790E0,-2.192916870E0,1.063177109E0
7.295760376E1,6.004784584E0,-5.287418365E-1,5.681800842E-2
7.345760376E1,-2.755257368E0,-3.255144119E0,1.338898420E0
7.395760376E1,9.654493332E-1,-2.456307411E-1,2.913616657E0
7.445760376E1,-1.844589233E0,-3.935000420E0,1.644168615E0
7.495760376E1,1.694849253E0,-3.418569565E-1,2.118476868E0
7.545760376E1,-1.074672222E0,-3.629066944E0,1.464815378E0
7.595760376E1,2.044563293E0,-5.463066101E-1,1.905242324E0
7.645760376E1,-1.192269325E-1,-3.352964401E0,1.238714933E0
7.695760376E1,2.729121923E0,-8.644742966E-1,1.904090643E0
7.745760376E1,1.137330532E0,-2.529295921E0,4.611177444E-1
7.795760376E1,2.471929789E0,-1.416421890E0,1.421143651E0
7.845760376E1,2.149857998E0,-9.800424576E-1,1.874523163E-1
7.895760376E1,3.617953539E0,-2.142968178E0,2.248888016E-1
7.945760376E1,8.031716347E-1,7.577457428E-1,-5.801615715E-1
7.995760376E1,4.869393349E0,-9.360027313E-1,-4.049587250E-2
8.045760376E1,7.992062569E-1,6.476736069E-1,-8.118941784E-1
8.095760376E1,5.533921242E0,-1.312765121E0,4.345664978E-1
8.145760376E1,6.540322304E-1,1.699293137E0,-4.937996864E-1
8.195760376E1,3.701341629E0,-9.140691757E-1,3.223676682E-1
8.245760376E1,6.895163059E-1,1.727041721E0,-5.024194717E-3
8.295760376E1,3.203776360E0,-1.229546547E0,4.519617558E-1
8.345760376E1,-8.178830147E-1,2.751754284E0,-1.555445910E0
8.395760376E1,3.123189449E0,-2.677316666E-1,1.148383617E0
8.445760376E1,-1.275211811E0,2.774158955E0,-1.705358505E0
8.495760376E1,1.106610775E0,9.867730141E-1,2.858720779E0
8.545760376E1,2.054939270E-1,-2.549905777E-1,-4.810178280E-1
8.595760376E1,-1.355555534E0,-4.314618111E-1,3.335293055E0
8.645760376E1,2.862277031E-1,1.173917294E0,-1.340990305E0
8.695760376E1,-2.463038921E0,-9.556021690E-1,2.510626316E0
8.745760376E1,-2.088418961E0,1.441587925E0,-1.680032372E0
8.795760376E1,-2.428885460E0,-2.379291534E0,1.812334776E0
8.845760376E1,-2.262225866E0,2.754719734E0,-5.461983681E-1
8.895760376E1,-2.384041786E0,-4.268542767E0,2.630242109E0
8.945760376E1,-1.658885479E0,1.581585884E0,7.770862579E-1
8.995760376E1,1.213827610E0,-5.201910973E0,4.669887543E0
9.045760376E1,7.565329075E-1,-1.959370613E0,4.335908890E0
9.095760376E1,3.670652390E0,-3.398928165E0,4.173096180E0
9.145760376E1,3.996169090E0,-2.076820374E0,2.379692078E0
9.195760376E1,4.200153351E0,-1.909838676E0,1.646587372E0
9.245760376E1,6.280723095E0,-2.538942337E0,3.049188852E-1
9.295760376E1,1.960069180E0,7.752037048E-1,2.234196663E-2
9.345760376E1,5.809949875E0,-1.639226913E0,8.311674595E-1
9.395760376E1,8.094625473E-1,2.330713272E0,-6.682398319E-1
9.445760376E1,3.499248505E0,-2.102460861E-1,2.201953411E0
9.495760376E1,-1.303570986E0,1.600375652E0,9.997620583E-1
9.545760376E1,1.305084229E-1,1.357618332E0,2.566859245E0
9.595760376E1,-1.072885036E0,-2.244768143E-1,3.153958321E0
9.645760376E1,4.414184093E-1,2.125984669E0,2.021543503E0
9.695760376E1,1.605992794E0,-1.505457878E0,1.997198105E0
9.745760376E1,-2.743780613E-1,-1.209821701E-1,1.938428044E0
9.795760376E1,6.282260418E-1,3.162605286E0,1.694522381E0
9.845760376E1,-1.992864370E0,-1.309481144E0,1.701402903E0
9.895760376E1,-4.212331772E-1,2.404031754E0,2.123795509E0
9.945760376E1,-1.564242840E0,-3.504004002E0,1.506772637E0
9.995760376E1,-7.292454243E-1,-7.339558601E-1,3.195766211E0
1.004576038E2,-4.346055984E-1,-4.071248055E0,2.439536095E0
1.009576038E2,1.851802349E0,-1.313280106E0,2.229472637E0
1.014576038E2,1.982068539E0,-1.058371544E0,6.221462488E-1
1.019576038E2,3.733992577E0,-1.480639458E0,1.671957970E-1
1.024576038E2,5.445668697E-1,-1.465255737E0,9.562383890E-1
1.029576038E2,4.463040352E0,-2.331837654E0,7.527849674E-1
1.034576038E2,4.051413536E-1,9.691600800E-1,-1.385901332E0
1.039576038E2,3.672583103E0,-1.178345680E0,1.307032347E0
1.044576038E2,-1.134753942E0,1.950122356E0,-1.913292050E0
1.049576038E2,2.609429121E0,-4.460248947E-1,2.225664139E0
1.054576038E2,-1.464593649E0,1.672312260E0,-6.761527061E-2
1.059576038E2,-2.763702869E-1,7.603564262E-1,2.467945099E0
1.064576038E2,-9.936878681E-1,8.234567642E-1,7.131990194E-1
1.069576038E2,-1.577669859E0,6.289753914E-1,2.626502037E0
1.074576038E2,2.614486217E-1,-1.399574280E-1,7.397668362E-1
1.079576038E2,-2.779423475E0,3.701820374E-1,1.632674336E0
1.084576038E2,1.782737255E0,-1.322368622E0,1.327275276E0
1.089576038E2,-3.599808693E0,-1.179109573E0,1.340478897E0
1.094576038E2,3.819742203E0,-1.598270416E0,5.470117331E-1
1.099576038E2,-3.437810421E0,-1.979273796E0,1.101749778E0
1.104576038E2,-9.346549511E-1,1.800703526E0,4.320640564E-1
1.109576038E2,-3.119524956E0,-3.579422951E0,1.384248018E0
1.114576038E2,-2.968611717E-1,2.041702271E-1,1.188888431E0
1.119576038E2,-2.518489361E0,-3.698993683E0,9.395184517E-1
1.124576038E2,1.168108225E0,-8.224573135E-1,2.337387085E0
1.129576038E2,-1.186814308E0,-3.214003563E0,1.090944648E0
1.134576038E2,2.685000420E0,-1.358552933E0,1.383977413E0
1.139576038E2,-5.969333649E-2,-2.423340797E0,3.070163727E-1
1.144576038E2,5.055743217E0,-1.738771439E0,1.106171370E0
1.149576038E2,-1.753625870E-1,-3.172922134E-1,-1.047875047E0
1.154576038E2,6.560425758E0,-1.388577461E0,4.035735130E-2
1.159576038E2,6.302785873E-2,6.873517036E-1,-2.118235111E0
1.164576038E2,4.876766205E0,-3.163337708E-1,3.714957237E-1
1.169576038E2,-6.342120171E-1,2.223749638E0,-1.626855254E0
1.174576038E2,1.580269337E0,-5.612001419E-1,1.620484114E0
1.179576038E2,-7.874929905E-1,2.032725811E0,-1.803696156E-1
1.184576038E2,-8.017463684E-1,-3.051023483E-1,2.215964317E0
1.189576038E2,-1.470775604E-1,9.411568642E-1,6.968975067E-1
1.194576038E2,-2.905397177E0,-5.191202164E-1,2.824762821E0
1.199576038E2,2.717802525E-1,-5.983972549E-1,9.525769949E-1
1.204576038E2,-3.938607693E0,-9.672899246E-1,2.457628250E0
1.209576038E2,1.754451990E0,-1.661557198E0,1.368503690E0
1.214576038E2,-3.371974468E0,-1.532331944E0,1.545354605E0
1.219576038E2,-8.965170383E-1,1.923024654E0,-6.870491505E-1
1.224576038E2,-3.303100824E0,-2.687325954E0,1.031728029E0
1.229576038E2,-1.480287313E0,1.083263874E0,1.414381027E0
1.234576038E2,-1.753663063E0,-3.402957439E0,8.125851154E-1
1.239576038E2,3.803319931E-1,-7.217292786E-1,2.557943106E0
1.244576038E2,-1.710271835E-2,-3.066127777E0,2.053125620E0
1.249576038E2,1.789689541E0,-5.990629196E-1,1.438370347E0
1.254576038E2,1.237534523E0,-1.726218224E0,1.278441906E0
1.259576038E2,2.706276894E0,-1.532882690E0,1.271486282E0
1.264576038E2,1.338401794E0,-1.160896301E0,1.044946909E-1
1.269576038E2,4.136367321E0,-1.576481819E0,7.413468361E-1
1.274576038E2,9.817278385E-1,-2.817363739E-1,-1.325800061E0
1.279576038E2,4.130723000E0,-1.595553398E0,-6.813359261E-1
1.284576038E2,9.705009460E-1,2.122114182E0,-1.560376883E0
1.289576038E2,2.398211479E0,-1.845739365E0,-1.091476679E0
1.294576038E2,-1.318292618E-1,1.959435463E0,-1.817422867E0
1.299576038E2,3.869011879E0,3.678159714E-1,2.240446806E-1
1.304576038E2,-7.263121605E-1,2.295243263E0,-1.641507387E0
1.309576038E2,2.068911076E0,8.284592628E-1,2.809258699E-1
1.314576038E2,-1.764650345E0,1.654118061E0,-6.509599686E-1
1.319576038E2,-1.213775158E0,6.751394272E-2,2.196702003E0
1.324576038E2,-1.662062407E0,5.964865685E-1,1.453155279E0
1.329576038E2,-1.497776031E0,7.611222267E-1,2.038264513E0
1.334576038E2,8.488416672E-2,-1.814737320E-1,1.363682628E0
1.339576038E2,-2.817903280E0,-2.002139091E-1,2.017313242E0
1.344576038E2,4.385089874E-2,2.044539928E0,-1.487462401E0
1.349576038E2,-3.601596355E0,-7.491397858E-1,2.808469534E-1
1.354576038E2,-1.603518963E0,1.921390057E0,-7.161378860E-1
1.359576038E2,-3.038467646E0,-2.397452831E0,1.403680086E0
1.364576038E2,-2.144054174E0,2.055901527E0,-1.607973456E0
1.369576038E2,-3.323039770E0,-4.384924889E0,1.209447622E0
1.374576038E2,-4.171652794E-1,7.244267464E-1,5.929067135E-1
1.379576038E2,-2.009697914E0,-3.227002144E0,6.414752007E-1
1.384576038E2,-3.680367470E-1,-3.108420372E-1,1.877335668E0
1.389576038E2,-1.642893791E0,-4.287676811E0,1.654116631E0
1.394576038E2,1.964041233E0,-1.534214020E0,2.430063248E0
1.399576038E2,-1.494082928E0,-3.715593815E0,1.295054555E0
1.404576038E2,2.348092794E0,-1.445652962E0,2.802733421E0
1.409576038E2,-2.497497559E0,-3.906755447E0,1.886482954E0
1.414576038E2,7.360234261E-1,-4.399042130E-1,1.389845014E0
1.419576038E2,-2.587126255E0,-3.827893734E0,1.363582611E0
1.424576038E2,3.447041512E-1,1.140440941E0,1.828969836E0
1.429576038E2,-4.353243828E0,-3.933548450E0,1.489346027E-1
1.434576038E2,1.196073294E0,8.302664757E-1,2.556787968E0
1.439576038E2,-3.845508814E0,-5.446161270E0,1.231679082E0
1.444576038E2,1.827457905E0,-6.082344055E-2,1.856740594E0
1.449576038E2,-1.971223354E0,-4.093594551E0,1.516003013E0
1.454576038E2,3.563848257E0,-1.449142456E0,2.285876036E0
1.459576038E2,-1.579700470E0,-3.328871727E0,1.298339605E0
1.464576038E2,5.440226078E0,-1.480577469E0,2.105430603E0
1.469576038E2,-3.494298458E0,-3.542305470E0,1.985503316E0
1.474576038E2,6.991433144E0,-1.628118515E0,3.020282745E0
1.479576038E2,-3.850787401E0,-3.325887203E0,9.171342850E-1
1.484576038E2,7.518144131E0,-1.245111465E0,2.310146809E0
1.489576038E2,-4.060305595E0,-3.856656075E0,1.090488791E0
1.494576038E2,8.027929306E0,-8.447189331E-1,1.858645439E0
1.499576038E2,-3.752419233E0,-3.540636063E0,1.131983757E0
1.504576038E2,6.620574951E0,-6.529846191E-1,1.515257001E0
1.509576038E2,-1.754182339E0,-2.669290066E0,1.248597383E0
1.514576038E2,7.279715061E0,-6.578760147E-1,1.535008550E0
1.519576038E2,-3.659803629E0,-3.910051823E0,1.057987213E-1
1.524576038E2,7.204253197E0,-1.981077194E-1,7.123215199E-1
1.529576038E2,-3.419313431E0,-3.927779198E0,8.575735092E-1
1.534576038E2,7.615716934E0,-4.885005951E-2,1.340013623E0
1.539576038E2,-3.393640757E0,-4.104674339E0,6.574203968E-1
1.544576038E2,4.543056965E0,-5.695505142E-1,9.101192951E-1
1.549576038E2,-2.620780706E0,-3.467786789E0,9.138146639E-1
1.554576038E2,2.387235165E0,1.104048729E0,2.897826433E-1
1.559576038E2,-1.004859209E0,-3.865367889E0,1.723265886E0
1.564576038E2,2.800230265E0,2.908525467E-1,8.076725602E-1
1.569576038E2,1.294866562E0,-2.342981339E0,2.141049862E0
1.574576038E2,2.615305901E0,8.696808815E-1,6.584503651E-1
1.579576038E2,1.364500284E0,-1.850172043E0,1.579751253E0
1.584576038E2,2.484734774E0,5.265312195E-1,3.240960360E0
1.589576038E2,6.306886673E-2,-1.922633171E0,6.433386803E-1
1.594576038E2,4.260392189E0,-9.231710434E-1,6.711823940E-1
1.599576038E2,-3.189253807E-1,-1.877388000E0,5.548464656E-1
1.604576038E2,6.144165516E0,-5.792303085E-1,2.778901577E0
1.609576038E2,1.693831921E0,-5.517215729E-1,1.120517254E-1
1.614576038E2,5.215932846E0,-6.218214035E-1,1.875012875E0
1.619576038E2,8.333678246E-1,1.647977829E-1,-4.573684931E-1
1.624576038E2,5.755147457E0,-5.800943375E-1,1.599304438E0
1.629576038E2,9.288392067E-1,1.046301365E0,-5.502545834E-1
1.634576038E2,4.795777321E0,1.958637238E-1,9.942530394E-1
1.639576038E2,1.354332685E0,1.367219448E0,-7.898124456E-1
1.644576038E2,4.237653732E0,-5.552864075E-1,9.171428680E-1
1.649576038E2,1.369586468E0,2.116197109E0,-7.208523750E-1
1.654576038E2,2.648754120E0,-9.552617073E-1,2.461413860E0
1.659576038E2,1.344149351E0,2.373305798E0,-9.758009911E-1
1.664576038E2,2.113218307E-1,-1.097211838E0,2.421647310E0
1.669576038E2,-2.822225094E-1,1.446983337E0,5.015192032E-1
1.674576038E2,-1.296460152E0,-1.237756729E0,3.135523319E0
1.679576038E2,8.323314190E-1,6.389999390E-2,2.259380341E0
1.684576038E2,-1.004664898E0,-2.280150890E0,4.181311607E0
1.689576038E2,6.466464996E-1,4.439578056E-1,1.320741296E0
1.694576038E2,-4.003924370E0,-2.337324142E0,2.324472427E0
1.699576038E2,2.026569605E0,-1.824355125E0,3.173840284E0
1.704576038E2,-4.482764244E0,-2.520462036E0,-2.319188714E-1
1.709576038E2,1.448753119E0,-2.363892555E0,3.904984474E0
1.714576038E2,-5.223672867E0,-3.051585674E0,-1.692857981E0
1.719576038E2,-1.552591801E0,9.526729584E-2,-1.685053468E0
1.724576038E2,-4.467012405E0,-3.776470184E0,6.646635532E-1
1.729576038E2,-1.281198978E0,1.103309631E0,1.252078533E0
1.734576038E2,-3.545667410E0,-2.370748520E0,1.894247770E0
1.739576038E2,-1.492027283E0,1.550425053E0,6.274917126E-1
1.744576038E2,-4.140264511E0,-4.116442204E0,1.319887757E0
1.749576038E2,-5.725631714E-1,2.071413994E-1,1.929637194E0
1.754576038E2,-2.827188492E0,-3.757623672E0,1.045741677E0
1.759576038E2,-8.967623711E-1,9.979009628E-2,1.159133077E0
1.764576038E2,-3.301038980E0,-3.401483536E0,1.134823918E0
1.769576038E2,-1.453641176E0,-9.072732925E-1,3.081457138E0
1.774576038E2,-2.480295420E0,-3.641941071E0,1.721675158E0
1.779576038E2,-9.672684669E-1,-5.864558220E-1,2.566361189E0
1.784576038E2,-9.598174095E-1,-3.361695766E0,2.276134968E0
1.789576038E2,-1.073904514E0,-2.253532410E-2,1.531300783E0
1.794576038E2,-1.772045135E0,-3.412748337E0,1.849488854E0
1.799576038E2,-1.590483427E0,-1.023280621E0,1.893433094E0
1.804576038E2,-1.393036842E0,-3.721440792E0,1.022178173E0
1.809576038E2,-2.934074402E-2,-6.838579178E-1,1.326962709E0
1.814576038E2,-6.500768661E-1,-3.007206440E0,1.964284658E0
1.819576038E2,1.737774849E0,-5.636444092E-1,2.822799921E0
1.824576038E2,-1.628622532E0,-3.493474960E0,1.886096001E0
1.829576038E2,1.096935034E0,-9.186363220E-2,1.502313733E0
1.834576038E2,-2.023548841E0,3.713288307E-1,2.380100012E0
1.839576038E2,-1.010751724E-1,-2.617969513E-1,1.177076697E0
1.844576038E2,-2.447504759E0,4.054727554E-1,1.527796865E0
1.849576038E2,1.749413013E-1,1.294040680E-2,1.836330771E0
1.854576038E2,-3.598037243E0,-2.434034348E-1,1.936445355E0
1.859576038E2,-2.934291363E-1,-2.565031052E-1,2.224224806E0
1.864576038E2,-2.868377686E0,1.290514469E0,2.291930914E0
1.869576038E2,-1.321159124E0,-4.372110367E-1,3.310367107E0
1.874576038E2,-2.037335396E0,1.597535610E0,1.821771502E0
1.879576038E2,1.687237740E0,-1.670770645E0,1.650091290E0
1.884576038E2,-2.540803671E0,1.820101738E-1,2.426278353E0
1.889576038E2,2.601542473E0,-2.356411934E0,2.460558414E0
1.894576038E2,-3.214581490E0,-1.407586098E0,9.914040565E-1
1.899576038E2,3.738924503E0,-1.716485977E0,1.359316945E0
1.904576038E2,-3.086239100E0,-1.836992264E0,1.333325267E0
1.909576038E2,4.326987267E0,-1.727326393E0,1.452783108E0
1.914576038E2,-2.936755896E0,-1.665990829E0,2.737985134E0
1.919576038E2,3.010607719E0,-1.429281235E-1,-4.845643044E-2
1.924576038E2,-3.575408220E0,-1.594843388E0,2.321639538E0
1.929576038E2,2.040057182E0,-5.412302017E-1,1.380974889E0
1.934576038E2,-4.121857643E0,-1.586657524E0,1.576194763E0
1.939576038E2,1.745816708E0,-3.767099380E-1,6.911376715E-1
1.944576038E2,-2.778148651E0,-3.407411575E-1,6.552783847E-1
1.949576038E2,4.521155357E-1,-5.717983246E-1,9.183609486E-1
1.954576038E2,-2.441128016E0,9.123187065E-1,2.455223322E0
1.959576038E2,-4.435296059E-1,4.599504471E-1,-1.672946095E0
1.964576038E2,-2.121290922E0,1.410864353E0,1.430629969E0
1.969576038E2,1.261515617E0,1.618190765E0,-1.412411213E0
1.974576038E2,-1.868699551E0,7.298421860E-2,3.100056887E0
1.979576038E2,-4.135627747E-1,1.948022842E0,-2.200963020E0
1.984576038E2,-3.306539536E0,-1.243184090E0,2.371340036E0
1.989576038E2,4.886026382E-1,2.360966682E0,-1.450026393E0
1.994576038E2,-3.250989199E0,-1.583232403E0,2.275884628E0
1.999576038E2,6.377329826E-1,2.365211487E0,-1.779580593E0
2.004576038E2,-3.063731194E0,-1.196653366E0,1.667868972E0
2.009576038E2,1.893377304E-1,2.641341686E0,-1.898026705E0
2.014576038E2,-3.372471094E0,-2.069015980E0,1.424203873E0
2.019576038E2,2.449183464E-1,1.940682411E0,-9.222788811E-1
2.024576038E2,-4.355058670E0,-2.432149887E0,-1.133999825E-1
2.029576038E2,-5.820736885E-1,2.218475342E0,-3.966860771E-1
2.034576038E2,-3.993776083E0,-3.511479378E0,4.738116264E-1
2.039576038E2,-4.649515152E-1,1.520196915E0,8.684706688E-1
2.044576038E2,-4.485548973E0,-4.208628178E0,1.380616188E0
2.049576038E2,1.196598053E0,2.029692173E0,1.094431400E0
2.054576038E2,-4.215270042E0,-3.879959106E0,6.004133224E-1
2.059576038E2,-3.780961037E-1,8.426852226E-1,1.951519012E0
2.064576038E2,-3.885953903E0,-3.422485352E0,1.443105698E0
2.069576038E2,-8.289206028E-1,9.163465500E-1,1.947542906E0
2.074576038E2,-3.658882141E0,-4.748973370E0,6.734290123E-1
2.079576038E2,2.071812630E0,3.719792366E-1,3.368291378E0
2.084576038E2,-1.906119823E0,-4.461351871E0,4.229306221E0
2.089576038E2,1.544056892E0,7.454071045E-1,1.781800389E0
2.094576038E2,-2.208778381E0,-2.359600067E0,3.950069666E0
2.099576038E2,7.289266586E-1,-1.401638508E0,3.694562674E0
2.104576038E2,-2.638252258E0,-3.260195732E0,4.108724594E0
2.109576038E2,2.362263203E0,-1.075030804E0,3.529884577E0
2.114576038E2,-2.358459949E0,-3.543775558E0,4.359814644E0
2.119576038E2,2.519314289E0,-8.110675812E-1,3.049172401E0
2.124576038E2,-2.299227238E0,-3.253230095E0,4.089133263E0
2.129576038E2,4.554904461E0,-1.017002106E0,2.390509129E0
2.134576038E2,-3.464791536E0,-2.181331635E0,3.558026552E0
2.139576038E2,2.699908257E0,-8.571767807E-1,1.689122319E0
2.144576038E2,-3.442234993E0,-1.688185215E0,2.654403925E0
2.149576038E2,2.278391361E0,-1.515958786E0,3.016264915E0
2.154576038E2,-3.053066015E0,-1.745536327E0,2.488100290E0
2.159576038E2,2.145174980E0,-1.999477386E0,2.343760967E0
2.164576038E2,-2.352027178E0,-1.671180725E-1,1.913118005E0
2.169576038E2,1.809125185E0,-1.286067963E0,2.041100502E0
2.174576038E2,-1.734179497E0,-7.110452652E-1,2.902408361E0
2.179576038E2,1.818091869E0,-6.890077591E-1,2.662591219E0
2.184576038E2,-2.179236174E0,-7.974653244E-1,2.662108898E0
2.189576038E2,2.307852745E0,-1.748330116E0,2.649028063E0
2.194576038E2,-3.258570910E0,-1.626318455E0,1.927057147E0
2.199576038E2,5.217590809E0,-1.300065041E0,2.243134022E0
2.204576038E2,-2.898826838E0,-3.467640877E0,3.279492855E0
2.209576038E2,4.908118248E-1,2.171916962E0,-1.702882051E0
2.214576038E2,-3.985299826E0,-3.098904610E0,-3.264379501E-2
2.219576038E2,9.057354927E-1,2.210633755E0,7.613372803E-2
2.224576038E2,-3.761843204E0,-3.018238544E0,1.116284132E0
2.229576038E2,2.685222626E-1,2.398412704E0,3.512949944E-1
2.234576038E2,-2.137109041E0,-4.610090256E-1,1.335397482E0
2.239576038E2,1.453091621E0,2.593572617E0,-2.239243984E-1
2.244576038E2,-3.540268421E0,-2.530537128E0,2.733090162E0
2.249576038E2,1.538815022E0,2.424537182E0,-5.378119946E-1
2.254576038E2,-2.446787596E0,-2.659911633E0,2.767874241E0
2.259576038E2,8.524026871E-1,2.136218548E0,-7.703258991E-1
2.264576038E2,-2.524021864E0,-1.812796593E-1,1.694376826E0
2.269576038E2,8.511795998E-1,2.402763844E0,-1.377808332E0
2.274576038E2,-3.686787367E0,-1.732143402E0,1.675754309E0
2.279576038E2,-3.666038513E-1,1.740610600E0,-6.412274837E-1
2.284576038E2,-3.655912161E0,-2.427897453E0,3.275703192E0
2.289576038E2,4.612431526E-1,2.034655094E0,-6.571066380E-1
2.294576038E2,-3.585933685E0,-1.588420868E0,2.270723104E0
2.299576038E2,-3.575839996E-1,2.201819420E0,-2.774156332E0
2.304576038E2,-2.927073479E0,-1.886813164E0,2.372320175E0
2.309576038E2,9.685111046E-1,2.543923855E0,-1.249787450E0
2.314576038E2,-2.440549850E0,-1.192565441E0,2.896438360E0
2.319576038E2,5.001544952E-2,2.709873676E0,-9.246003628E-1
2.324576038E2,2.403856277E0,8.951115608E-1,1.818589330E0
2.329576038E2,4.758820534E-1,2.422533035E0,1.730170250E-1
2.334576038E2,1.151661873E0,4.371833801E-1,1.870939255E0
2.339576038E2,-8.241167068E-1,2.085599899E0,1.118149757E-1
2.344576038E2,4.077658176E0,3.758096695E-1,1.494984388E0
2.349576038E2,-5.073151588E-1,2.984561443E0,-8.533585072E-1
2.354576038E2,5.013656616E-2,2.209186554E-3,1.746068597E0
2.359576038E2,-8.870258331E-1,8.493976593E-1,-1.082287550E0
2.364576038E2,-5.255494118E-1,1.541805267E-1,1.902346611E0
2.369576038E2,-1.609884739E0,8.235530853E-1,-3.416953087E-1
2.374576038E2,-5.689625740E-1,2.137317657E-1,2.631563425E0
2.379576038E2,-1.513728142E0,1.398778439E0,2.382619381E-1
2.384576038E2,5.512676239E-1,1.444613934E0,1.721318722E0
2.389576038E2,-2.897433043E0,1.216052055E0,-1.911597252E-1
2.394576038E2,-5.666108131E-1,1.230036259E0,2.589516163E0
2.399576038E2,-2.615932703E0,6.587448120E-1,1.084224939E0
2.404576038E2,-1.499743700E0,1.576914787E-1,3.470936537E0
2.409576038E2,-1.117349625E0,7.917685509E-1,1.172960043E0
2.414576038E2,-2.987906218E0,-5.105624199E-1,3.088806391E0
2.419576038E2,-2.693638802E-1,2.044363022E-1,9.275895357E-1
2.424576038E2,-3.160190582E0,-1.008811474E0,3.342773914E0
2.429576038E2,6.452953815E-1,-6.819562912E-1,2.002965927E0
2.434576038E2,-3.067548990E0,-1.669465065E0,2.915753841E0
2.439576038E2,2.119070530E0,-1.120294571E0,2.622462034E0
2.444576038E2,-2.972936869E0,-2.176856995E-1,2.378696203E0
2.449576038E2,4.927368164E-1,1.867063522E0,-1.603020072E0
2.454576038E2,-2.344656229E0,-3.699235916E-1,1.596450686E0
2.459576038E2,-1.834695339E0,1.496045113E0,-7.531883717E-1
2.464576038E2,-2.397426128E0,-1.135409832E0,1.682525635E0
2.469576038E2,-2.219124317E0,8.856592178E-1,-5.580191612E-1
2.474576038E2,-1.930071354E0,-1.407292366E0,2.760621071E0
2.479576038E2,-9.243009090E-1,1.762465954E0,2.230904102E-1
2.484576038E2,-1.654165745E0,-2.051344872E0,2.380698442E0
2.489576038E2,-2.146527290E0,1.021818161E0,3.949007988E-1
2.494576038E2,-2.280020714E0,-2.675765038E0,1.384418726E0
2.499576038E2,4.341444969E-1,4.629702568E-1,2.968822956E0
2.504576038E2,-3.427711010E0,-4.905662537E0,4.849793911E-1
2.509576038E2,1.368793011E0,1.743192673E-1,1.365898490E0
2.514576038E2,-1.704878807E0,-2.523290634E0,9.553388357E-1
2.519576038E2,8.395056725E-1,4.528331757E-2,2.114614010E0
2.524576038E2,-1.963534594E0,-3.254641056E0,1.471307516E0
2.529576038E2,8.589451313E-1,-8.961563110E-1,2.032195091E0
2.534576038E2,-1.155699730E0,-3.323052883E0,2.173536301E0
2.539576038E2,2.587634087E0,-7.247819901E-1,1.624327540E0
2.544576038E2,-1.221021652E0,-3.171859264E0,1.677657366E0
2.549576038E2,4.575707436E0,-1.444813728E0,2.873278141E0
2.554576038E2,-6.312656403E-2,-2.497579575E0,8.213596344E-1
2.559576038E2,7.487648010E0,-5.400772095E-1,1.228460670E0
2.564576038E2,1.021723747E0,-1.180143356E0,2.716038227E-1
2.569576038E2,7.368961811E0,-1.052110672E0,2.425539970E0
2.574576038E2,-3.131156445E0,-4.463095665E0,1.193779469E0
2.579576038E2,7.583661079E0,-2.061367035E-1,1.635802746E0
2.584576038E2,-2.567748308E0,-3.411729336E0,1.314655304E0
2.589576038E2,5.576395035E0,-6.755914688E-1,1.741972208E0
2.594576038E2,-7.134761810E-1,-3.741183281E0,2.170854092E0
2.599576038E2,3.787653923E0,-3.685312271E-1,2.411480904E0
2.604576038E2,-4.444427490E-1,-2.913729191E0,1.821718216E0
2.609576038E2,3.374918461E0,-1.722288132E-1,3.003489256E0
2.614576038E2,5.393619537E-1,-2.389152527E0,9.955902100E-1
2.619576038E2,7.960414886E-1,-2.617139816E-1,2.884130955E0
2.624576038E2,1.608333588E0,-1.896434784E0,1.795461416E0
2.629576038E2,-4.708371162E-1,-1.092896938E0,3.911593676E0
2.634576038E2,1.751291275E0,-6.439609528E-1,5.359442234E-1
2.639576038E2,-1.197425365E0,-2.259498119E0,4.168156624E0
2.644576038E2,1.500218391E0,-3.674163818E-1,1.706702709E-1
2.649576038E2,-1.711965084E0,-3.241454124E0,4.351394653E0
2.654576038E2,2.063234806E0,1.841430664E-1,3.026921749E-1
2.659576038E2,-2.480484486E0,-3.295241356E0,3.986676931E0
2.664576038E2,3.088239670E0,1.069611073E0,-2.280716896E-1
2.669576038E2,-2.279207468E0,-2.744822979E0,4.132451057E0
2.674576038E2,1.585563660E0,1.267277241E0,-8.575839996E-1
2.679576038E2,-2.608453512E0,-2.044318199E0,3.162457228E0
2.684576038E2,1.929615498E0,1.809817791E0,-5.008685589E-1
2.689576038E2,-3.390268564E0,-3.172818661E0,3.330458403E0
2.694576038E2,2.066370010E0,2.519999504E0,-1.255098104E0
2.699576038E2,5.073653698E0,-1.497249603E0,2.791850567E0
2.704576038E2,3.043330193E0,1.945638657E0,8.403780460E-1
2.709576038E2,3.145525455E0,-6.812868118E-1,1.651151299E0
2.714576038E2,1.759036064E0,3.260687351E0,-5.157328844E-1
2.719576038E2,3.533686161E0,1.265316486E0,2.961941242E0
2.724576038E2,1.135513067E0,2.440225124E0,1.064586639E0
2.729576038E2,5.305442810E-1,-9.416298866E-1,3.110614777E0
2.734576038E2,8.083684444E-1,1.466078281E0,9.350290298E-1
2.739576038E2,1.213107586E0,-1.015021801E0,3.463172913E0
2.744576038E2,7.054598331E-1,6.068029404E-1,1.979264379E0
2.749576038E2,-2.167849541E0,-3.561307430E0,3.852521181E0
2.754576038E2,1.529400826E0,1.037405014E0,2.793462992E0
2.759576038E2,-2.115505219E0,-1.192188263E0,3.368936539E0
2.764576038E2,2.137002945E0,-1.179817200E0,3.701505184E0
2.769576038E2,-1.909458637E0,-9.635410309E-1,2.953555107E0
2.774576038E2,4.512289047E0,-2.222369194E0,2.342182636E0
2.779576038E2,-1.892329216E0,-1.821040630E0,3.088970423E0
2.784576038E2,4.959923267E0,-2.241970062E0,1.926728487E0
2.789576038E2,-2.088378191E0,-2.305155277E0,2.793240309E0
2.794576038E2,5.932496548E0,-1.901367188E0,1.877478361E0
2.799576038E2,-2.513407946E0,-2.992542267E0,1.629666924E0
2.804576038E2,5.270315170E0,-1.403416634E0,1.801098824E0
2.809576038E2,-1.328980923E0,-3.303789616E0,1.468666196E0
2.814576038E2,4.576296806E0,-7.621059418E-1,1.061070442E0
2.819576038E2,-6.080393791E-1,-3.334262371E0,1.804123163E0
2.824576038E2,3.551136255E0,-1.270364761E0,1.076128960E0
2.829576038E2,-3.834829330E-1,-3.056913376E0,1.236536145E0
2.834576038E2,3.608685493E0,-1.645047188E0,1.587020636E0
2.839576038E2,1.385157585E0,-1.576522827E0,2.915126085E-1
2.844576038E2,3.928284883E0,-2.200039864E0,2.284120798E0
2.849576038E2,-2.934608459E-1,-1.993356705E0,3.818473816E-1
2.854576038E2,6.389006615E0,-1.263243675E0,1.090918064E0
2.859576038E2,8.629436493E-1,-9.068298340E-1,4.122650623E-1
2.864576038E2,6.725455284E0,-3.731822968E-1,-2.218313217E-1
2.869576038E2,2.504197598E0,1.793937683E-1,-5.718946457E-2
2.874576038E2,6.478072166E0,-7.443351746E-1,1.720569491E0
2.879576038E2,1.007936001E0,5.638298988E-1,-3.664033413E-1
2.884576038E2,7.145998001E0,1.171112061E-3,8.906512260E-1
2.889576038E2,5.731520653E-1,8.455085754E-2,-1.008912325E0
2.894576038E2,7.983301163E0,-5.263042450E-1,6.498117447E-1
2.899576038E2,1.736129761E0,6.439242363E-1,-7.773354053E-1
2.904576038E2,6.885080338E0,-2.915763855E-1,1.018213034E0
2.909576038E2,2.842744350E0,1.607910633E0,-8.145165443E-2
2.914576038E2,7.573678970E0,9.450283051E-1,-6.465704441E-1
2.919576038E2,1.812418938E0,5.222711563E-1,3.161396980E-1
2.924576038E2,6.879493713E0,5.873899460E-1,1.084123254E0
2.929576038E2,2.659811020E0,1.634796143E0,-6.723231077E-1
2.934576038E2,7.348111629E0,9.076533318E-1,6.152677536E-1
2.939576038E2,2.598602295E0,1.728197575E0,8.254436255E-1
2.944576038E2,7.204095840E0,1.161661625E0,1.966640949E-1
2.949576038E2,-7.364807129E-1,-3.056949139E0,2.052887917E0
2.954576038E2,7.167149544E0,1.063222885E0,5.561732054E-1
2.959576038E2,-2.213858604E0,-4.258868217E0,3.004976034E0
2.964576038E2,6.258872032E0,9.108695984E-1,-4.209799767E-1
2.969576038E2,-9.719648361E-1,-2.520123482E0,1.296664834E0
2.974576038E2,7.616940975E0,9.508628845E-1,-2.321881056E-1
2.979576038E2,-2.357089043E0,-3.697762012E0,2.264032602E0
2.984576038E2,9.129457474E0,-1.136655807E-1,-4.811542034E-1
2.989576038E2,-1.729533672E0,-2.374065876E0,2.619331598E0
2.994576038E2,8.123732567E0,-1.610614777E0,2.554015160E0
2.999576038E2,-9.269804955E-1,-3.420989513E0,3.090342045E0
3.004576038E2,8.182990074E0,-1.533195496E0,1.105826974E0
3.009576038E2,-1.315427303E0,-2.540329456E0,1.978512406E0
3.014576038E2,9.837279320E0,-1.336163521E0,1.870585442E0
3.019576038E2,-1.401204586E0,-3.148393631E0,2.070212603E0
3.024576038E2,8.406068802E0,-8.646678925E-1,1.943302155E-1
3.029576038E2,-2.672051430E0,-3.001595497E0,1.149183512E0
3.034576038E2,6.231868744E0,-1.273183823E0,1.894272566E0
3.039576038E2,-2.662549973E0,-3.062075615E0,1.809459925E0
3.044576038E2,6.423177719E0,-3.855485916E-1,4.988166690E-2
3.049576038E2,-2.205125809E0,-3.417036057E0,2.825816631E0
3.054576038E2,6.574539661E0,2.944507599E-1,-1.670470238E-1
3.059576038E2,-2.199134350E0,-4.060504436E0,3.747404575E0
3.064576038E2,-1.337482452E0,-1.117653847E-1,2.264680147E0
3.069576038E2,-1.777328014E0,-4.067068577E0,3.218694687E0
3.074576038E2,6.898052692E-1,-2.969250679E-1,3.176582336E0
3.079576038E2,-1.426507473E0,-3.257275581E0,3.005361319E0
3.084576038E2,1.120638371E0,2.198247910E-1,2.910173893E0
3.089576038E2,-2.565279722E0,-4.703246593E0,2.843061924E0
3.094576038E2,5.841777325E-1,-1.038494110E-1,2.083012819E0
3.099576038E2,-1.558835506E0,-3.919848442E0,3.101563454E0
3.104576038E2,-5.317301750E-1,6.855010986E-2,2.540440798E0
3.109576038E2,-4.428935051E-1,-3.328372002E0,3.186623096E0
3.114576038E2,-5.166561604E-1,-5.915827751E-1,2.690886497E0
3.119576038E2,-2.167689085E0,-4.032634258E0,2.771104097E0
3.124576038E2,5.424718857E-1,-9.018039703E-1,2.546737909E0
3.129576038E2,-2.087669849E0,-3.508233070E0,1.784076214E0
3.134576038E2,7.738740444E-1,-1.126846790E0,3.907941341E0
3.139576038E2,-2.666321993E0,-4.699318409E0,1.407902002E0
3.144576038E2,1.645800829E0,-5.300302505E-1,2.963840961E0
3.149576038E2,-2.494825602E0,-3.476182938E0,2.289178371E0
3.154576038E2,1.084513664E0,-1.774497032E-1,2.578572989E0
3.159576038E2,-1.287333488E0,-3.482168674E0,2.892007828E0
3.164576038E2,2.296887398E0,-6.882781982E-1,3.150933266E0
3.169576038E2,-1.645604372E0,-3.921369076E0,2.835386753E0
3.174576038E2,2.162474871E0,-1.044176102E0,3.571814537E0
3.179576038E2,-1.262160301E0,-3.931770325E0,3.212064743E0
3.184576038E2,1.720319748E0,-8.506970406E-1,3.010647774E0
3.189576038E2,-1.479346037E0,2.863154411E-1,3.552197218E0
3.194576038E2,1.926221848E-1,-2.479934692E-1,1.044994116E0
3.199576038E2,-7.419943810E-1,5.386624336E-1,3.418308496E0
3.204576038E2,1.550662518E-1,-1.500881195E0,3.197547197E0
3.209576038E2,-1.696400404E0,-7.290072441E-1,3.543973207E0
3.214576038E2,2.168591022E0,-1.050606728E0,2.886581659E0
3.219576038E2,-2.363373518E0,-1.461040974E0,3.392727137E0
3.224576038E2,2.601845026E0,-2.263731003E0,3.296115637E0
3.229576038E2,-2.805005789E0,-2.210134983E0,3.262833357E0
3.234576038E2,3.367842913E0,-1.667000771E0,2.947688103E0
3.239576038E2,-2.298465729E0,-2.982041836E0,3.014271021E0
3.244576038E2,4.660356998E0,-1.034292221E0,3.025987864E0
3.249576038E2,-2.566034317E0,-4.618952751E0,2.086029530E0
3.254576038E2,3.151395559E0,-1.981483459E0,4.471273422E0
3.259576038E2,-2.816384315E0,-4.339857101E0,1.921589613E0
3.264576038E2,4.962933064E0,7.296562195E-2,2.439384699E0
3.269576038E2,-2.796696663E0,-3.372152328E0,2.412677765E0
3.274576038E2,3.022480011E0,-1.193224907E0,3.373349428E0
3.279576038E2,-2.778830528E0,-2.695318222E0,2.631865740E0
3.284576038E2,4.378199577E0,-7.294855118E-1,3.881309748E0
3.289576038E2,-2.593653202E0,-2.160312176E0,2.309064150E0
3.294576038E2,3.882007837E0,-1.579415321E0,3.730605125E0
3.299576038E2,-2.971030235E0,-3.001908302E0,2.066670895E0
3.304576038E2,4.016578674E0,-1.443351746E0,4.171863556E0
3.309576038E2,-3.030075788E0,-2.988585949E0,2.061726809E0
3.314576038E2,3.263825655E0,1.168467999E0,-9.764102697E-1
3.319576038E2,-1.969619274E0,-3.164032459E0,3.583322048E0
3.324576038E2,2.021357536E0,8.209576607E-1,-9.179799557E-1
3.329576038E2,-2.822292328E0,-3.212166309E0,3.086114883E0
3.334576038E2,2.200430393E0,7.312397957E-1,4.870414734E-2
3.339576038E2,-2.815193653E0,-1.033476830E0,2.785292864E0
3.344576038E2,2.434705734E0,1.870045662E0,-1.251164675E0
3.349576038E2,-4.398162842E0,-3.084056854E0,1.151500463E0
3.354576038E2,1.789540768E0,1.507887840E0,2.644003630E0
3.359576038E2,-3.449236393E0,-5.534720898E0,1.196262598E0
3.364576038E2,9.894509315E-1,1.143499851E0,1.781093121E0
3.369576038E2,-1.475808620E0,-3.795000076E0,3.114382029E0
3.374576038E2,6.098141670E-1,2.714810371E-1,1.685665369E0
3.379576038E2,-8.680000305E-1,-3.651992798E0,1.533356190E0
3.384576038E2,2.082452297E0,-5.187511444E-3,2.589475632E0
3.389576038E2,1.171655655E0,-2.882266045E0,3.529851913E0
3.394576038E2,6.381583214E0,1.414136887E-1,3.990552902E0
3.399576038E2,-3.568902016E-1,-1.568440437E0,1.263140559E0
3.404576038E2,7.532034397E0,-1.399376869E0,3.840369463E0
3.409576038E2,1.619242668E0,-3.878154755E-1,1.384434938E0
3.414576038E2,6.981129646E0,-9.540109634E-1,1.917935848E0
3.419576038E2,5.225787163E-1,6.210989952E-1,-8.518534899E-1
3.424576038E2,5.106886387E0,1.594619751E-1,9.609587193E-1
3.429576038E2,3.255987167E-2,2.688650608E0,-8.610084057E-1
3.434576038E2,4.316798210E0,1.583098412E0,1.448417783E0
3.439576038E2,2.781032085E0,-1.719072819E0,3.377922297E0
3.444576038E2,1.264405727E0,2.340948582E0,1.336329818E0
3.449576038E2,2.830829620E0,-6.411523819E-1,2.475039721E0
3.454576038E2,-1.103398323E0,6.163091660E-1,2.986262321E0
3.459576038E2,1.729562283E0,7.397680283E-1,3.508803844E-1
3.464576038E2,-1.780173779E0,-7.771158218E-1,3.985115767E0
3.469576038E2,1.989910603E0,1.092661381E0,5.842676163E-1
3.474576038E2,-2.633288860E0,-2.738055706E0,4.679792404E0
3.479576038E2,2.449851513E0,1.386292458E0,-1.392214298E-1
3.484576038E2,-2.276581526E0,-4.729366302E-2,4.099440098E0
3.489576038E2,6.289877892E-1,1.032878399E0,2.592744827E-1
3.494576038E2,-1.195326567E0,2.299551964E-1,4.575785637E0
3.499576038E2,1.056196213E0,1.430803299E0,1.815845966E-1
3.504576038E2,-1.335736752E0,-2.970495224E-1,4.125995159E0
3.509576038E2,3.089566231E0,1.690922737E0,-1.155833244E0
3.514576038E2,-2.061364651E0,-6.681795120E-1,3.297810316E0
3.519576038E2,3.069457769E0,1.690021992E0,-6.358757019E-1
3.524576038E2,-1.779217482E0,2.470302582E-2,4.339153290E0
3.529576038E2,2.093719482E0,1.685838223E0,-5.489649773E-1
3.534576038E2,-1.794312239E0,-2.068614960E-1,3.481179714E0
3.539576038E2,2.369050741E0,1.400208473E0,-4.858316183E-1
3.544576038E2,-2.095856190E0,1.377620697E0,2.312715054E0
3.549576038E2,2.324416876E0,2.525068283E0,-7.757403851E-1
3.554576038E2,-1.030899286E0,3.884515762E-1,3.010765314E0
3.559576038E2,2.677479744E0,1.778371334E0,-1.532258987E-1
3.564576038E2,6.020389557E0,-3.229303360E-1,-1.488629580E0
3.569576038E2,2.897778034E0,1.763807774E0,-2.344305515E-1
3.574576038E2,4.944495678E0,-8.190803528E-1,-1.638154507E0
3.579576038E2,1.313287258E0,1.433289051E0,-9.651601315E-1
3.584576038E2,5.426604748E0,-7.548685074E-1,-4.770128727E-1
3.589576038E2,2.402326584E0,1.308291912E0,-1.233129025E0
3.594576038E2,3.467744589E0,-1.577032089E0,-7.788889408E-1
3.599576038E2,1.523062468E0,1.327999115E0,-4.928503036E-1
3.604576038E2,4.316243649E0,-9.669599533E-1,-1.714103937E0
3.609576038E2,1.130574942E0,1.554029465E0,-1.722704887E0
3.614576038E2,4.107813835E0,-1.067300797E0,-2.599406242E-2
3.619576038E2,2.265855312E0,1.958071232E0,-2.321336985E0
3.624576038E2,4.141303062E0,-6.997680664E-1,-1.124869347E0
3.629576038E2,3.441118956E0,1.918192863E0,-2.123227596E0
3.634576038E2,6.390107155E0,-2.803039551E-1,-1.002416849E0
3.639576038E2,2.480739117E0,2.360211849E0,-1.939121246E0
3.644576038E2,5.549860954E0,-1.536466599E0,-1.244063616E0
3.649576038E2,3.467676163E0,1.863519192E0,-1.916678905E0
3.654576038E2,6.012397766E0,-3.219671249E-1,-8.282284737E-1
3.659576038E2,1.986591816E0,1.895673752E0,-1.949949980E0
3.664576038E2,4.787725925E0,-3.100490570E-1,4.000353813E-1
3.669576038E2,1.667869329E0,2.155072689E0,-2.667882919E0
3.674576038E2,6.172319889E0,-5.574531555E-1,-3.934950829E-1
3.679576038E2,-2.817146778E0,-3.870202541E0,8.302743435E-1
3.684576038E2,4.737578392E0,-2.274274826E-1,-9.404854774E-1
3.689576038E2,-2.063384771E0,-3.385117531E0,8.774788380E-1
3.694576038E2,4.935252190E0,8.904361725E-2,-1.695466042E-1
3.699576038E2,-1.721613407E-1,-2.912473679E0,2.051966190E0
3.704576038E2,4.368172646E0,5.923480988E-1,-8.535335064E-1
3.709576038E2,9.985828400E-2,-2.341492653E0,1.953167796E0
3.714576038E2,3.466105938E0,2.604064941E-1,-1.372509003E-1
3.719576038E2,1.139679432E0,-2.064562798E0,1.742244363E0
3.724576038E2,3.730905056E0,1.879205704E-1,-4.138693810E-1
3.729576038E2,9.843654633E-1,-2.038790703E0,1.573041439E0
3.734576038E2,2.350132704E0,-2.405796051E-1,4.343397617E-1
3.739576038E2,1.793351173E0,-1.760590553E0,2.079273701E0
3.744576038E2,3.414701223E0,7.152080536E-2,1.058245897E0
3.749576038E2,5.941724777E-1,-2.109043121E0,1.388828874E0
3.754576038E2,3.269508839E0,-1.331967354E0,1.303806901E0
3.759576038E2,5.961174965E-1,-2.828634262E0,1.693364024E0
3.764576038E2,2.861686468E0,-2.897472382E-1,7.831153870E-1
3.769576038E2,2.522964478E-1,-2.755275726E0,1.603858590E0
3.774576038E2,4.552282810E0,5.283517838E-1,-1.571607590E-2
3.779576038E2,7.396435738E-1,-2.627134323E0,1.808665633E0
3.784576038E2,3.168941021E0,-8.321371078E-1,1.905109644E0
3.789576038E2,7.174191475E-1,-2.409994125E0,1.882015586E0
3.794576038E2,2.961067677E0,2.145318985E-1,9.861283302E-1
3.799576038E2,1.747736931E0,-1.770212173E0,1.527102113E0
3.804576038E2,3.636132717E0,-6.029691696E-1,7.510435581E-1
3.809576038E2,7.899045944E-1,-2.171542168E0,1.015668988E0
3.814576038E2,4.081674099E0,-9.699831009E-1,3.606106043E-1
3.819576038E2,2.062738895E0,-1.700610161E0,1.314031720E0
3.824576038E2,1.769031048E0,-1.631852150E0,1.285533667E0
3.829576038E2,2.826759338E0,-2.341649055E0,1.256941199E0
3.834576038E2,3.700591564E0,-1.436215401E0,8.049923778E-1
3.839576038E2,2.200483084E0,-1.692378998E0,1.117317557E0
3.844576038E2,3.045132875E0,-8.587255478E-1,-8.996105194E-2
3.849576038E2,2.046244621E0,-1.344699860E0,1.078433037E0
3.854576038E2,1.924185991E0,-1.287170410E0,-1.046568632E0
3.859576038E2,1.498941898E0,-1.427632332E0,-3.548073769E-1
3.864576038E2,2.157197714E0,-5.689373016E-1,-4.756045341E-2
3.869576038E2,2.222466469E0,-1.777274132E0,1.453746796E0
3.874576038E2,2.378527403E0,-9.620304108E-1,-8.902477026E-1
3.879576038E2,2.617465258E0,-1.496516228E0,-6.033773422E-1
3.884576038E2,2.321656466E0,-1.867115021E0,-8.618298769E-1
3.889576038E2,2.470360994E0,-2.422433853E0,6.697273254E-2
3.894576038E2,3.195201397E0,-1.145957947E0,-8.577866554E-1
3.899576038E2,2.361557722E0,-2.355648994E0,2.828742266E-1
3.904576038E2,3.611966848E0,-1.085843086E0,7.383537292E-2
3.909576038E2,4.466691017E-1,-2.946068764E0,1.052511930E0
3.914576038E2,4.861619473E0,-1.353823662E0,4.387080669E-2
3.919576038E2,1.712944508E0,-2.674974442E0,5.608422756E-1
3.924576038E2,4.042252541E0,-1.258910179E0,1.147616863E0
3.929576038E2,-2.990800381E0,-1.771616936E-1,2.157452345E0
3.934576038E2,3.249248981E0,-1.481663704E0,-1.346219063E0
3.939576038E2,-2.660968304E0,-8.895778656E-2,1.816743135E0
3.944576038E2,3.272588253E0,-1.658026695E0,-8.400368690E-1
3.949576038E2,-3.201274633E0,-5.478901863E-1,2.488782883E0
3.954576038E2,3.588526249E0,-7.670907974E-1,-4.030640125E-1
3.959576038E2,-3.691067934E0,-7.094841003E-1,1.586041689E0
3.964576038E2,4.991612911E0,-1.481249809E0,-4.231753349E-1
3.969576038E2,-4.482903004E0,-1.126231670E0,8.306754827E-1
3.974576038E2,4.916701317E0,-1.557835579E0,2.555259466E-1
3.979576038E2,-3.803660870E0,-3.245954037E0,1.662556291E0
3.984576038E2,5.178418159E0,-1.538273811E0,-6.761598587E-2
3.989576038E2,-3.163557529E0,-2.415223122E0,1.008380175E0
3.994576038E2,5.055181026E0,-1.525820732E0,-2.995250225E-1
3.999576038E2,-3.031338930E0,-2.616959095E0,1.162636876E0
4.004576038E2,4.233684063E0,-1.609933853E0,3.826776743E-1
4.009576038E2,-1.398478746E0,-2.268562317E0,1.911028743E0
4.014576038E2,4.663035393E0,-1.603152275E0,-5.922839642E-1
4.019576038E2,-1.820963860E0,-3.286782742E0,1.383347273E0
4.024576038E2,3.602354765E0,-1.564229965E0,-9.428589344E-1
4.029576038E2,-8.348073959E-1,-2.364869118E0,2.447263241E0
4.034576038E2,3.602977514E0,-1.995209694E0,-8.131332397E-1
4.039576038E2,-8.682372570E-1,-1.713744164E0,1.657089472E0
4.044576038E2,2.764236927E0,-1.773951530E0,-1.775126100E0
4.049576038E2,-1.695791721E0,-2.435892105E0,1.468648314E0
4.054576038E2,-1.757150650E0,1.233363628E0,2.267022133E-1
4.059576038E2,-1.189198494E-1,-1.756999016E0,1.779191136E0
4.064576038E2,-1.962680221E0,1.262296200E0,1.380724907E0
4.069576038E2,-3.236306667E0,-1.478282452E0,2.227164030E0
4.074576038E2,-7.652891874E-1,3.410261154E0,1.261093140E0
4.079576038E2,-3.610198975E0,-2.357916355E0,2.419640541E0
4.084576038E2,-1.489237547E0,1.265703201E0,1.583772898E0
4.089576038E2,-2.452952862E0,-5.500445366E-1,1.882514834E0
4.094576038E2,-1.186230421E0,2.244280815E0,2.013597488E-1
4.099576038E2,-2.855096340E0,-4.196920395E-1,2.340140581E0
4.104576038E2,-1.220171213E0,1.802614689E0,1.952168941E-1
4.109576038E2,-3.170669079E0,-3.694777489E-1,1.131703138E0
4.114576038E2,-1.775982618E0,1.596842289E0,5.980123281E-1
4.119576038E2,-2.312674046E0,1.724038124E-1,7.098923326E-1
4.124576038E2,-1.601275444E0,1.004569530E0,-1.083308935E0
4.129576038E2,-1.580755949E0,3.908691406E-1,1.315562725E0
4.134576038E2,-2.110264778E0,1.349656105E0,9.150016308E-2
4.139576038E2,-2.257902861E0,-3.461837769E-1,8.976057768E-1
4.144576038E2,-2.457976341E0,1.562841892E0,4.564909935E-1
4.149576038E2,-2.813190222E0,-7.420234680E-1,9.013253450E-1
4.154576038E2,-2.207133293E0,1.343030930E0,8.204401731E-1
4.159576038E2,-3.878203630E0,-1.517626762E0,6.631464958E-1
4.164576038E2,-2.163882971E0,1.325276375E0,1.674581409E0
4.169576038E2,-2.996804714E0,-1.872026920E0,1.391806006E0
4.174576038E2,-2.037432432E0,1.914378643E0,-7.459378242E-1
4.179576038E2,-1.189849377E0,-6.504964828E-2,2.621507168E0
4.184576038E2,-2.957588911E0,1.103044987E0,7.507586479E-2
4.189576038E2,-8.857488632E-2,-5.965089798E-2,3.520974636E0
4.194576038E2,-2.300739050E0,1.446981430E0,1.733502150E-1
4.199576038E2,5.224800110E-1,1.923227310E-2,3.174638033E0
4.204576038E2,-8.215084076E-1,1.923970699E0,4.346663952E-1
4.209576038E2,3.066635132E-2,-1.505579948E-1,1.788354874E0
4.214576038E2,-6.988370419E-1,2.166348934E0,-1.196719289E0
4.219576038E2,4.304065704E-1,-1.304039955E0,2.928436756E0
4.224576038E2,1.727985859E0,3.075385571E0,-2.610378265E-1
4.229576038E2,-3.190579414E-1,-1.447432518E0,2.291858435E0
4.234576038E2,-9.213829041E-1,1.679925442E0,-7.989739180E-1
4.239576038E2,2.487431049E0,1.062425613E0,2.085742474E0
4.244576038E2,-5.587930679E-1,2.422603607E0,-7.215520144E-1
4.249576038E2,2.483299255E0,1.151405334E0,2.626535416E0
4.254576038E2,6.308269501E-2,2.382880688E0,5.210108757E-1
4.259576038E2,2.006318092E0,4.920382500E-1,2.013559818E0
4.264576038E2,-4.414925575E-1,1.772101402E0,-4.758284092E-1
4.269576038E2,2.475453377E0,1.168577671E0,3.288620472E0
4.274576038E2,3.994789124E-1,2.398838520E0,6.618789434E-1
4.279576038E2,2.573657513E0,7.615709305E-1,2.376220942E0
4.284576038E2,1.137101650E0,2.537792206E0,4.824824333E-1
4.289576038E2,3.267604828E0,7.892751694E-2,3.596477509E0
4.294576038E2,1.876092672E0,2.720867634E0,6.207561493E-2
4.299576038E2,2.467597485E0,-5.768799782E-1,3.558964252E0
4.304576038E2,2.274292469E0,-1.145710945E0,1.063092470E0
4.309576038E2,2.506332397E-1,1.381397247E-1,2.367865086E0
4.314576038E2,2.997041225E0,-1.514368057E-1,1.892352700E-1
4.319576038E2,-1.385126591E0,-2.181735039E-1,3.021843195E0
4.324576038E2,2.398667812E0,8.797507286E-1,-3.368349075E-1
4.329576038E2,-1.933924675E0,-2.307977676E-1,3.871525288E0
4.334576038E2,2.542791843E0,1.135699749E0,-5.117278099E-1
4.339576038E2,-2.104494095E0,-1.647197247E0,3.690080643E0
4.344576038E2,3.355648518E0,1.498320103E0,7.507658005E-2
4.349576038E2,-2.146945953E0,-2.713600159E0,3.905811310E0
4.354576038E2,2.828147411E0,1.459215164E0,-4.374403954E-1
4.359576038E2,-1.176913738E0,-1.479160786E0,6.185492039E0
4.364576038E2,3.134931564E0,1.350447178E0,-5.056391954E-1
4.369576038E2,-1.819633961E0,-1.409012794E0,4.783067226E0
4.374576038E2,1.400811195E0,8.517765999E-1,-2.257673740E-1
4.379576038E2,-7.725799084E-1,2.439889908E-1,4.511531830E0
4.384576038E2,1.426582336E0,-7.734298706E-4,-3.453927040E-1
4.389576038E2,-4.277715683E-1,6.533246040E-1,2.962842941E0
4.394576038E2,1.062864780E0,-8.009233475E-1,1.778005362E-1
4.399576038E2,1.975412369E-1,-8.172111511E-1,4.765065670E0
4.404576038E2,1.344468832E0,-3.282327652E-1,-6.342720985E-2
4.409576038E2,9.299755096E-3,-1.651773453E0,4.388886452E0
4.414576038E2,1.316589832E0,-9.932823181E-1,7.979989052E-2
4.419576038E2,1.316589832E0,-9.932823181E-1,7.979989052E-2
4.424576038E2,1.916573048E0,-1.572599411E-1,-4.426403046E-1
4.429576038E2,4.923607826E0,-1.106138229E0,1.336050034E-1
4.434576038E2,1.230218410E0,3.972740173E-1,-9.810445309E-1
4.439576038E2,6.288486004E0,-4.445352554E-1,2.009463310E-2
4.444576038E2,2.848319292E0,4.604587555E-1,3.865069151E-1
4.449576038E2,5.062850952E0,-7.952661514E-1,-1.420722008E-1
4.454576038E2,2.959956169E0,4.821095467E-1,-6.139299870E-1
4.459576038E2,6.145150185E0,-9.719610214E-1,4.581706524E-1
4.464576038E2,2.250773907E0,-7.627525330E-1,8.530110121E-1
4.469576038E2,5.578622341E0,-6.610374451E-1,-7.270424366E-1
4.474576038E2,3.461858988E0,-3.449010849E-1,9.749988317E-1
4.479576038E2,5.572843552E0,-1.027527809E0,7.498191595E-1
4.484576038E2,3.057598114E0,-8.620767593E-1,1.039230108E0
4.489576038E2,4.812195778E0,-7.751321793E-1,6.494078636E-1
4.494576038E2,2.193219423E0,-1.904713631E0,1.014401913E0
4.499576038E2,4.344858646E0,-1.087523460E0,6.281371117E-1
4.504576038E2,1.831965923E0,-1.664737701E0,1.649617791E0
4.509576038E2,4.271774292E0,-7.657241821E-1,1.038427472E0
4.514576038E2,1.738313437E0,-1.496497154E0,1.403390288E0
4.519576038E2,4.346944809E0,-1.514065742E0,1.182925582E0
4.524576038E2,2.142388105E0,-1.335009575E0,1.335818648E0
4.529576038E2,3.277083635E0,-9.801921844E-1,8.546141386E-1
4.534576038E2,2.113175392E-1,-2.073152542E0,1.108607173E0
4.539576038E2,4.597676277E0,-8.874292374E-1,5.070385933E-1
4.544576038E2,-2.672566414E0,-3.137963295E0,1.901630759E0
4.549576038E2,6.163125038E0,-4.824781418E-1,2.792619467E-1
4.554576038E2,-2.423890352E0,-2.258104801E0,2.184128284E0
4.559576038E2,4.640821457E0,-1.442145348E0,9.453228712E-1
4.564576038E2,-2.444406033E0,-2.823221684E0,1.692049742E0
4.569576038E2,6.458198547E0,-4.394826889E-1,2.965176105E-1
4.574576038E2,-3.326342821E0,-3.922052383E0,6.718776226E-1
4.579576038E2,6.737613678E0,-3.605251312E-1,-5.641815662E-1
4.584576038E2,-2.866194248E0,-3.941935062E0,2.738478899E0
4.589576038E2,6.063773155E0,-1.803588867E-1,2.370240688E-1
4.594576038E2,-2.633391380E0,-3.677937508E0,1.236641407E0
4.599576038E2,5.825138569E0,2.341308594E-1,7.216503620E-1
4.604576038E2,-1.465317726E0,-3.161553383E0,1.655071855E0
4.609576038E2,5.689314842E0,-6.318302155E-1,8.726457357E-1
4.614576038E2,-1.525002956E0,-4.163622379E0,2.014952660E0
4.619576038E2,6.134626389E0,6.940755844E-1,1.262352467E-1
4.624576038E2,-2.277234554E0,-3.115721703E0,1.732474446E0
4.629576038E2,4.908536911E0,4.425315857E-1,9.358507395E-1
4.634576038E2,-1.205659389E0,-3.126060009E0,1.415721655E0
4.639576038E2,4.704618931E0,1.070833206E-1,1.727691650E0
4.644576038E2,-7.296981812E-1,-2.518822193E0,8.531861305E-1
4.649576038E2,3.355257034E0,3.689918518E-1,1.144851089E0
4.654576038E2,-1.690793037E-1,-1.993923187E0,8.843579292E-1
4.659576038E2,1.658821583E0,3.717422485E-3,8.479076624E-1
4.664576038E2,4.160932064E0,-1.314107895E0,3.694612980E-1
4.669576038E2,2.429365158E0,-3.127450943E-1,1.269888878E0
4.674576038E2,1.040080070E0,-2.125726700E0,1.513020039E0
4.679576038E2,2.925396919E0,-7.490034103E-1,2.017450809E0
4.684576038E2,7.268533707E-1,-2.444523811E0,2.738528252E-1
4.689576038E2,4.895705223E0,-1.607086182E0,2.534006596E0
4.694576038E2,2.313451767E-1,-2.194484234E0,1.037068844E0
4.699576038E2,6.433252335E0,-1.363973618E-1,-1.099789143E-1
4.704576038E2,1.993090868E0,-2.132369041E0,7.271964550E-1
4.709576038E2,5.305357456E0,-1.331150055E0,2.455171585E0
4.714576038E2,1.756939888E-1,-1.858588219E0,1.119628787E0
4.719576038E2,3.903307915E0,-1.025502205E0,1.693004131E0
4.724576038E2,7.373809814E-2,-2.159029961E0,1.627299786E0
4.729576038E2,3.509310007E0,-5.983581543E-1,7.417923212E-1
4.734576038E2,1.422021866E0,-1.803292274E0,1.032592416E0
4.739576038E2,4.017785072E0,-1.788825989E-1,1.797541142E0
4.744576038E2,-2.230563164E-1,-2.695887566E0,1.229762316E0
4.749576038E2,3.366826296E0,-6.371145248E-1,2.564402580E0
4.754576038E2,-8.179326057E-1,-3.208354473E0,1.545419216E0
4.759576038E2,3.933171988E0,-9.385576248E-1,3.584411860E0
4.764576038E2,-5.053472519E-1,-3.413648129E0,2.276341438E0
4.769576038E2,5.550189495E0,-2.022070885E0,2.802541971E0
4.774576038E2,-2.532698631E0,-6.090548038E0,3.488113165E0
4.779576038E2,5.949952602E0,-1.265988350E0,1.537511110E0
4.784576038E2,7.688374519E-1,-8.711757660E-1,-1.838574409E-1
4.789576038E2,6.737801552E0,-6.072092056E-1,1.185829759E0
4.794576038E2,-5.800561905E-1,-2.673440933E0,2.264488220E0
4.799576038E2,6.443586826E0,-5.232191086E-1,-1.474094391E-1
4.804576038E2,-2.352257252E0,-2.769397736E0,1.440218925E0
4.809576038E2,5.673604012E0,-8.104591370E-1,-1.437919140E-1
4.814576038E2,-2.846916437E0,-3.620349884E0,1.842104793E0
4.819576038E2,5.415427685E0,-2.363004684E-1,1.905226707E-2
4.824576038E2,-3.490349531E0,-3.193870068E0,4.269709587E-1
4.829576038E2,5.185454369E0,-8.993854523E-1,8.445742130E-1
4.834576038E2,-3.124501944E0,-3.509074688E0,1.096071839E0
4.839576038E2,5.153573513E0,-3.324508667E-3,1.154832959E0
4.844576038E2,-4.116272926E0,-3.718509674E0,1.334469318E-1
4.849576038E2,5.701974869E0,-3.440923691E-1,-4.084428549E-1
4.854576038E2,-3.568554878E0,-4.300862312E0,1.709256768E0
4.859576038E2,5.931502342E0,-2.770080566E-1,6.196949482E-1
4.864576038E2,-2.097048521E0,-3.539815426E0,1.941804528E0
4.869576038E2,4.835030079E0,4.114303589E-1,-8.286180496E-1
4.874576038E2,-1.177340508E0,-2.541070461E0,1.711281538E0
4.879576038E2,5.766432762E0,-8.239841461E-2,2.637960911E-1
4.884576038E2,-3.094511032E0,-3.769546509E0,1.216711044E0
4.889576038E2,6.334643364E0,6.650791168E-1,-7.627766132E-1
4.894576038E2,-2.927346230E0,-4.066571236E0,1.087611675E0
4.899576038E2,7.647290230E0,3.070831299E-1,-3.061614037E-1
4.904576038E2,-3.488904238E0,-3.402156830E0,7.098218203E-1
4.909576038E2,6.768742561E0,5.609140396E-1,-2.895271778E-1
4.914576038E2,-2.958207846E0,-3.775075436E0,2.109661102E0
4.919576038E2,-9.821550846E-1,-6.183438301E-1,2.327548504E0
4.924576038E2,-3.070320368E0,-3.162964821E0,2.009107113E0
4.929576038E2,-1.734606504E0,7.526297569E-1,1.292300463E0
4.934576038E2,-3.259957552E0,-2.251814842E0,2.028572083E0
4.939576038E2,-2.814216137E0,2.454972267E-1,1.148804903E0
4.944576038E2,-2.171378136E0,-2.113943577E0,2.004814386E0
4.949576038E2,-5.532979965E-1,1.393081188E0,-2.241903782E0
4.954576038E2,-3.064780951E0,-2.749403000E0,2.509177446E0
4.959576038E2,5.708670616E-1,1.461445332E0,-1.421802521E0
4.964576038E2,-2.443626881E0,-2.513514996E0,3.570990562E0
4.969576038E2,1.576746464E0,1.049786091E0,-8.213487864E-1
4.974576038E2,-3.807253838E-1,-3.325073242E0,4.969821453E0
4.979576038E2,2.485558033E0,-9.810447693E-3,-7.953155041E-1
4.984576038E2,3.705644608E-2,-3.800386429E0,4.877527237E0
4.989576038E2,1.562565804E0,-1.038140774E0,7.646775246E-1
4.994576038E2,3.024447918E0,-7.416586876E-1,2.928890228E0
4.999576038E2,1.282763481E-1,-1.918923378E0,1.494472623E0
5.004576038E2,3.507860661E0,2.232155800E-1,1.859072208E0
5.009576038E2,-6.902465820E-1,-2.901802540E0,1.253936887E0
5.014576038E2,4.913751125E0,1.460522175E0,2.038209438E-1
5.019576038E2,-6.263012886E-1,-2.454547405E0,5.532934666E-1
5.024576038E2,7.148416042E0,1.006137848E0,-1.306421399E0
5.029576038E2,-2.778356552E0,-2.998303890E0,1.259581327E0
5.034576038E2,4.825581551E0,1.787023544E-1,-4.609591961E-1
5.039576038E2,-2.047299862E0,-2.939187527E0,1.511942029E0
5.044576038E2,4.798126221E-1,1.055202484E-1,2.635591030E0
5.049576038E2,-1.494874477E0,-2.532325268E0,2.034701347E0
5.054576038E2,-5.054798126E-1,7.277922630E-1,1.683929324E0
5.059576038E2,-1.558291435E0,-2.122583866E0,2.137121677E0
5.064576038E2,-6.641850471E-1,1.207372665E0,7.258626223E-1
5.069576038E2,-3.504493237E0,-2.398706913E0,2.168877840E0
5.074576038E2,3.180737495E-1,1.253904819E0,7.818310261E-1
5.079576038E2,-2.110251904E0,-1.576928616E0,3.140921593E0
5.084576038E2,-2.020874023E-1,1.147516251E0,-4.128298759E-1
5.089576038E2,-2.293161869E0,-1.057743073E0,3.080433607E0
5.094576038E2,1.021397114E0,1.076259136E0,-6.502032280E-2
5.099576038E2,-1.673159599E0,-2.252829552E0,3.671156406E0
5.104576038E2,1.370913982E0,-7.065839767E-1,8.337342739E-2
5.109576038E2,2.314741135E0,-7.318639755E-1,2.403882265E0
5.114576038E2,1.428187370E0,-2.917039394E0,-2.092595100E-1
5.119576038E2,-5.588312149E-1,1.056375504E-1,4.864587784E-1
