"Time (s)","Acceleration x (m/s^2)","Acceleration y (m/s^2)","Acceleration z (m/s^2)"
6.848447000E-3,1.484746456E0,6.366104603E0,6.845267296E0
2.785396800E-2,1.668993831E0,6.591628075E0,7.033103943E0
5.278539680E-1,9.439685345E-1,3.943371773E0,1.000498962E1
1.027853968E0,-3.864408433E-1,5.473581553E-1,1.097468090E1
1.527853968E0,-2.709871531E-1,1.375873089E-1,8.638090134E0
2.027853968E0,-1.063609719E0,1.256231871E-2,9.874580383E0
2.527853968E0,-3.942175210E-1,-3.050848842E-1,9.699306488E0
3.027853968E0,3.736392498E0,3.017947674E0,8.863015175E0
3.527853968E0,1.919043779E0,5.066802025E0,4.572085857E0
4.027853968E0,-2.598605394E0,2.379662037E0,8.634500504E0
4.527853968E0,-9.762716293E-1,2.918047190E0,8.223533630E0
5.027853968E0,-1.325623751E0,2.799602509E0,9.582656860E0
5.527853968E0,-3.254238665E-1,3.932604074E0,8.766105652E0
6.027853968E0,-1.168893814E0,2.311466694E0,9.012566566E0
6.527853968E0,-7.908278704E-1,3.003590584E0,9.047860146E0
7.027853968E0,9.397810698E-1,2.940180779E0,9.735198975E0
7.527853968E0,-1.369891018E-1,3.008376360E0,9.788438797E0
8.027853968E0,-9.206385016E-1,2.146960020E0,8.668598175E0
8.527853968E0,-1.910668850E0,2.243271112E0,9.419944763E0
9.027853968E0,-2.322832584E0,2.261815548E0,9.854840279E0
9.527853968E0,-2.975475073E0,1.914258122E0,9.084351540E0
1.002785397E1,-3.370888948E0,2.134397745E0,8.423932076E0
1.052785397E1,-3.321237803E0,2.073979139E0,9.574879646E0
1.102785397E1,-3.192025423E0,2.257030010E0,8.330014229E0
1.152785397E1,-3.270390272E0,2.321038008E0,9.321240425E0
1.202785397E1,-3.193820000E0,1.363908887E0,7.968099594E0
1.252785397E1,-3.466003656E0,2.402393818E0,9.349954605E0
1.302785397E1,-2.408974171E0,2.619542599E0,9.017352104E0
1.352785397E1,-1.264606714E0,2.537588358E0,8.723034859E0
1.402785397E1,-1.962114573E-1,2.985046148E0,8.883354187E0
1.452785397E1,-6.969096065E-1,2.258824587E0,9.413364410E0
1.502785397E1,-4.037888348E-1,2.485544443E0,8.995218277E0
1.552785397E1,2.245664120E0,4.045066833E0,9.834501266E0
1.602785397E1,1.797608018E0,3.635295868E0,9.317651749E0
1.652785397E1,9.942178130E-1,3.055036306E0,9.314062119E0
1.702785397E1,1.973480463E0,3.771088600E0,9.008378983E0
1.752785397E1,2.510669231E0,4.125226021E0,9.544371605E0
1.802785397E1,1.000199914E0,2.604587555E0,1.094596672E1
1.852785397E1,2.762513638E0,4.131806374E0,8.909674644E0
1.902785397E1,1.683350682E0,3.034099102E0,8.145168304E0
1.952785397E1,2.370090723E0,3.954737663E0,8.595019341E0
2.002785397E1,2.424527645E0,3.859024763E0,8.357531548E0
2.052785397E1,4.899304509E-1,2.172683001E0,8.931808472E0
2.102785397E1,6.400800347E-1,2.710469961E0,8.232506752E0
2.152785397E1,1.013360381E0,3.035295486E0,9.346364975E0
2.202785397E1,4.037888348E-1,3.232105255E0,8.657232285E0
2.252785397E1,-4.037888348E-1,2.624328136E0,8.805587769E0
2.302785397E1,-7.549355626E-1,2.094317913E0,9.890133858E0
2.352785397E1,-9.014959335E-1,1.836491346E0,9.014361382E0
2.402785397E1,1.752742529E-1,2.994617462E0,9.320642471E0
2.452785397E1,-1.371685624E0,1.478764415E0,1.046022415E1
2.502785397E1,-5.862415582E-2,2.619542599E0,1.006600666E1
2.552785397E1,-1.567897081E0,8.315058947E-1,7.607979774E0
2.602785397E1,-1.000199914E0,1.743769526E0,8.382656097E0
2.652785397E1,-1.094716311E0,1.640279889E0,8.923434258E0
2.702785397E1,-6.508477330E-1,1.808973908E0,9.826126099E0
2.752785397E1,-1.456032634E0,1.001396298E0,8.526823044E0
2.802785397E1,5.539384484E-1,2.758326292E0,1.085204887E1
2.852785397E1,-4.803591371E-1,2.015953064E0,1.024786091E1
2.902785397E1,-4.660021961E-1,2.026122570E0,9.881160736E0
2.952785397E1,-1.800599098E-1,2.534597397E0,1.063250732E1
3.002785397E1,-1.068993568E0,1.013360381E0,8.465806961E0
3.052785397E1,1.043270707E0,3.223730326E0,1.085503960E1
3.102785397E1,-7.573283911E-1,1.743769526E0,9.698708534E0
3.152785397E1,5.659025311E-1,2.667398930E0,9.826724052E0
3.202785397E1,-3.888336718E-1,2.169093609E0,1.028435135E1
3.252785397E1,-8.243274093E-1,1.631905079E0,9.706484795E0
3.302785397E1,-5.216353536E-1,1.920240164E0,9.404989243E0
3.352785397E1,-1.220339537E0,1.313061476E0,8.183453560E0
3.402785397E1,-4.510470629E-1,1.603191137E0,9.797411919E0
3.452785397E1,-5.216353536E-1,1.628315806E0,9.860223770E0
3.502785397E1,-1.102493048E0,1.137787223E0,9.376873970E0
3.552785397E1,-8.793623000E-2,2.117049932E0,1.021256733E1
3.602785397E1,1.349551916E0,3.745365620E0,1.095793152E1
3.652785397E1,-1.998006850E-1,2.011167526E0,8.227720261E0
3.702785397E1,-5.533402562E-1,1.588834286E0,8.331808090E0
3.752785397E1,-1.585245013E0,5.282155871E-1,9.136993408E0
3.802785397E1,3.559323549E-1,1.410568953E0,1.013958549E1
3.852785397E1,-8.291130662E-1,3.876372576E-1,9.706484795E0
3.902785397E1,-3.948157281E-2,1.083350420E0,1.069113159E1
3.952785397E1,1.136590764E-1,1.670190215E0,1.009292603E1
4.002785397E1,4.666004330E-2,1.633101463E0,1.006122112E1
4.052785397E1,-6.879365444E-2,1.960918188E0,9.760921478E0
4.102785397E1,-4.666004330E-2,2.248056889E0,9.665806770E0
4.152785397E1,-5.012963414E-1,2.142174482E0,9.711270332E0
4.202785397E1,-4.558327198E-1,3.047259569E0,8.673383713E0
4.252785397E1,-6.161518097E-1,2.997608662E0,9.343374252E0
4.302785397E1,-6.095715761E-1,3.295515060E0,8.943174362E0
4.352785397E1,1.417747438E-1,4.209573269E0,9.191430092E0
4.402785397E1,-1.112662554E-1,3.899104595E0,9.014959335E0
4.452785397E1,6.556333899E-1,4.784449100E0,9.567701340E0
4.502785397E1,-5.084748268E-1,3.622733593E0,8.644071579E0
4.552785397E1,-1.740778446E0,3.001796007E0,8.248658180E0
4.602785397E1,2.057827413E-1,4.146163464E0,9.538987160E0
4.652785397E1,9.876375198E-1,4.849055290E0,9.903294563E0
4.702785397E1,8.291130662E-1,4.036093712E0,9.552147865E0
4.752785397E1,-2.590828657E0,1.578066587E0,7.620542049E0
4.802785397E1,-8.201399446E-1,3.310470104E0,9.647860527E0
4.852785397E1,-1.128215909E0,2.276770830E0,9.944570541E0
4.902785397E1,-8.362914920E-1,2.711666346E0,9.858428955E0
4.952785397E1,-1.036690354E0,2.685943365E0,9.475577354E0
5.002785397E1,7.142575383E-1,4.329214573E0,9.323633194E0
5.052785397E1,-3.314059377E-1,3.299104214E0,9.713663101E0
5.102785397E1,-9.870393574E-2,3.473181963E0,9.818947792E0
5.152785397E1,7.387840152E-1,3.920639992E0,9.196813583E0
5.202785397E1,-4.528416991E-1,2.936591625E0,9.702297211E0
5.252785397E1,-2.931207716E-1,2.324028969E0,9.121439934E0
5.302785397E1,-1.637887120E0,1.651047587E0,8.830712318E0
5.352785397E1,-7.645068169E-1,3.257827997E0,9.406784058E0
5.402785397E1,1.223330617E0,4.444069862E0,1.076471043E1
5.452785397E1,6.759724021E-1,3.678964853E0,1.068275642E1
5.502785397E1,2.512463741E-2,2.787040234E0,1.040518951E1
5.552785397E1,-1.663011760E-1,2.485544443E0,8.998209953E0
5.602785397E1,-1.103689432E0,2.480758905E0,8.869595528E0
5.652785397E1,-3.302095234E-1,3.260818958E0,9.680164337E0
5.702785397E1,-6.041877270E-1,2.305484533E0,9.482157707E0
5.752785397E1,-1.204187989E0,2.030309916E0,8.349156380E0
5.802785397E1,-6.729813814E-1,2.531606436E0,1.007737255E1
5.852785397E1,-8.578268886E-1,2.672184706E0,1.109432220E1
5.902785397E1,-7.896314859E-1,1.700698733E0,8.531010628E0
5.952785397E1,-1.185045362E0,2.241476536E0,9.637093544E0
6.002785397E1,-8.261220455E-1,1.846062660E0,8.381459236E0
6.052785397E1,-9.302098155E-1,3.195614576E0,9.615557671E0
6.102785397E1,-1.016351461E0,1.989632010E0,8.982656479E0
6.152785397E1,-3.074777126E-1,2.827120066E0,9.797411919E0
6.202785397E1,-1.442273855E0,1.697707653E0,8.727222443E0
6.252785397E1,-5.042873621E-1,2.774477959E0,9.287740707E0
6.302785397E1,-2.356930375E-1,2.906083107E0,9.242277145E0
6.352785397E1,-7.812566161E-1,2.510669231E0,9.552147865E0
6.402785397E1,-2.739782035E-1,3.067598581E0,9.314660072E0
6.452785397E1,-1.762912035E0,1.673181176E0,9.821938515E0
6.502785397E1,1.539781332E0,4.670789719E0,1.019342422E1
6.552785397E1,-1.011565804E0,1.903490424E0,9.412167549E0
6.602785397E1,-1.298704505E0,1.597209096E0,8.464012146E0
6.652785397E1,-1.061216831E0,2.214557409E0,9.638289452E0
6.702785397E1,2.309073806E-1,3.104687452E0,9.704092026E0
6.752785397E1,-1.501496136E-1,3.299104214E0,9.108279228E0
6.802785397E1,-1.191625714E0,3.144168854E0,8.029116631E0
6.852785397E1,-5.503492355E-1,2.687737942E0,9.865009308E0
6.902785397E1,-1.015753269E0,3.463610888E0,9.253643036E0
6.952785397E1,-1.109073281E0,1.942971945E0,8.952746391E0
7.002785397E1,-1.398604870E0,2.592025042E0,8.276175499E0
7.052785397E1,-4.247260094E-1,3.360719442E0,9.169296265E0
7.102785397E1,5.294120312E-1,3.708875179E0,1.045005512E1
7.152785397E1,7.962117195E-1,4.167100430E0,1.075992489E1
7.202785397E1,-1.705484390E0,1.279561877E0,8.290532112E0
7.252785397E1,-9.170492887E-1,9.696913958E-1,7.607979774E0
7.302785397E1,-1.654636860E0,1.305284739E0,9.409774780E0
7.352785397E1,-2.871387079E-2,1.700698733E0,9.287740707E0
7.402785397E1,-9.218349457E-1,1.440479279E0,8.497511864E0
7.452785397E1,1.806581169E-1,2.130808592E0,9.791430473E0
7.502785397E1,-3.750749528E-1,1.898106575E0,8.443074226E0
7.552785397E1,-1.284347534E0,1.557129383E0,9.440881729E0
7.602785397E1,-8.913264275E-1,1.671386600E0,9.792626381E0
7.652785397E1,5.569294691E-1,3.279961586E0,1.065882874E1
7.702785397E1,-5.611169338E-1,1.667199135E0,9.609575272E0
7.752785397E1,-6.807580590E-1,1.534397483E0,9.006584167E0
7.802785397E1,-3.026920557E-1,2.654238462E0,9.071788788E0
7.852785397E1,3.577269912E-1,3.250649452E0,1.041176987E1
7.902785397E1,-9.218349457E-1,2.126022816E0,8.988637924E0
7.952785397E1,-1.030708313E0,2.313261271E0,9.241081238E0
8.002785397E1,-1.422533035E0,2.066202402E0,9.622138023E0
8.052785397E1,-1.148554832E-1,2.879761934E0,9.375079155E0
8.102785397E1,-4.773681164E-1,2.633301258E0,9.413364410E0
8.152785397E1,2.561516523E0,5.029713154E0,1.209512043E1
8.202785397E1,1.030708313E0,3.507878065E0,1.080239773E1
8.252785397E1,-5.724828243E-1,1.620539188E0,1.038843918E1
8.302785397E1,-6.221339107E-1,1.660618901E0,8.813364029E0
8.352785397E1,2.709871531E-1,2.615953445E0,1.006122112E1
8.402785397E1,-3.864408433E-1,1.864607096E0,9.282955170E0
8.452785397E1,-7.292127013E-1,1.853241086E0,1.028076267E1
8.502785397E1,-5.922235847E-1,2.073380709E0,9.009575844E0
8.552785397E1,-7.627122402E-1,1.311266780E0,9.141778946E0
8.602785397E1,-5.772684813E-1,1.071984529E0,9.537791252E0
8.652785397E1,-9.092726111E-1,1.512263894E0,9.866804123E0
8.702785397E1,-4.630111754E-1,1.847259045E0,9.751350403E0
8.752785397E1,-7.770691514E-1,1.671984792E0,9.354142189E0
8.802785397E1,-8.883354068E-1,1.807179332E0,9.416355133E0
8.852785397E1,-7.178468257E-2,2.075175524E0,8.692526817E0
8.902785397E1,-8.673982024E-1,1.603191137E0,1.046261692E1
8.952785397E1,4.395017147E0,6.083751678E0,1.236969662E1
9.002785397E1,-1.414756417E0,8.315058947E-1,7.000202656E0
9.052785397E1,1.495514214E-1,2.553740025E0,1.000977516E1
9.102785397E1,1.591227055E-1,2.532802820E0,1.066241741E1
9.152785397E1,-4.295116663E-1,2.115255117E0,8.963513374E0
9.202785397E1,-3.469592705E-2,2.231905222E0,8.956933022E0
9.252785397E1,-7.034898400E-1,1.746760488E0,9.504291534E0
9.302785397E1,2.003390789E0,4.554738045E0,1.182353497E1
9.352785397E1,1.232303679E-1,1.822134495E0,9.732208252E0
9.402785397E1,-3.284149170E-1,1.761117458E0,1.016829967E1
9.452785397E1,-1.280758262E0,1.670190215E0,9.309276581E0
9.502785397E1,6.047859192E-1,2.788236618E0,9.352347374E0
9.552785397E1,-1.144965649E0,2.190629244E0,8.630312920E0
9.602785397E1,-7.034898400E-1,2.236092806E0,9.043673515E0
9.652785397E1,-6.239284873E-1,2.483749866E0,9.689137459E0
9.702785397E1,-1.838884234E0,1.992623091E0,9.041280746E0
9.752785397E1,1.131206870E0,4.523631096E0,1.034656525E1
9.802785397E1,-1.704886079E0,1.243071318E0,8.677571297E0
9.852785397E1,-1.022931695E0,2.396411896E0,9.406784058E0
9.902785397E1,6.257231236E-1,3.924229145E0,1.012762165E1
9.952785397E1,-2.327020019E-1,2.830111027E0,9.684949875E0
1.000278540E2,-1.062413216E0,2.169692039E0,9.887143135E0
1.005278540E2,-4.187439755E-2,2.853441000E0,1.029033375E1
1.010278540E2,1.758724600E-1,2.959323406E0,9.229715347E0
1.015278540E2,-1.121635556E0,1.880758643E0,9.473783493E0
1.020278540E2,1.657029688E-1,2.891726255E0,8.770293236E0
1.025278540E2,-7.657032609E-1,1.987239242E0,1.012044334E1
1.030278540E2,-1.197607756E0,1.805384636E0,9.100502968E0
1.035278540E2,-1.612762451E0,1.834098577E0,8.285148621E0
1.040278540E2,-2.709871531E0,7.447660565E-1,7.864609718E0
1.045278540E2,-1.678565025E0,2.191825628E0,6.821339130E0
1.050278540E2,-1.680957913E0,1.375274777E0,7.625327587E0
1.055278540E2,-1.545763373E0,2.324028969E0,8.780462265E0
1.060278540E2,-7.722834945E-1,2.341377020E0,9.775279045E0
1.065278540E2,-7.686942816E-1,2.303689957E0,1.030827999E1
1.070278540E2,-1.357926846E0,2.022533417E0,8.523234367E0
1.075278540E2,-3.984049559E-1,2.468196630E0,1.024726295E1
1.080278540E2,-5.246263742E-1,2.046461582E0,9.282955170E0
1.085278540E2,-2.040479422E0,1.448255897E0,9.013164520E0
1.090278540E2,1.974078715E-1,3.166302681E0,1.187438202E1
1.095278540E2,-1.290927768E0,1.789831281E0,1.022572803E1
1.100278540E2,-6.089733839E-1,2.381456852E0,1.082034397E1
1.105278540E2,-1.779063582E0,1.488335729E0,9.486345291E0
1.110278540E2,2.183450699E0,4.777270317E0,1.157647610E1
1.115278540E2,-2.073380709E0,1.269990563E0,8.280363083E0
1.120278540E2,-2.901297510E-1,2.331805706E0,8.548956871E0
1.125278540E2,-8.865407705E-1,2.030908108E0,8.086544037E0
1.130278540E2,2.392822653E-1,3.029313564E0,8.531609535E0
1.135278540E2,-7.453642488E-1,2.590230465E0,9.564710617E0
1.140278540E2,1.384846091E0,3.074178934E0,9.129216194E0
1.145278540E2,7.058826834E-2,2.653042078E0,9.393025398E0
1.150278540E2,-1.052841991E-1,2.132603168E0,9.647860527E0
1.155278540E2,-3.032902777E-1,2.069193363E0,9.297312737E0
1.160278540E2,-1.257428288E0,1.381256819E0,9.409774780E0
1.165278540E2,-7.704889178E-1,1.853839397E0,9.094520569E0
1.170278540E2,2.093719840E-1,1.844268084E0,9.034101486E0
1.175278540E2,5.886343718E-1,2.893520832E0,9.260223389E0
1.180278540E2,-1.121037364E0,1.427318692E0,8.453244209E0
1.185278540E2,-3.589233849E-3,2.442473650E0,9.793225288E0
1.190278540E2,1.365703583E0,3.556930780E0,1.085025406E1
1.195278540E2,6.879365444E-2,2.135594130E0,9.442078590E0
1.200278540E2,9.152546525E-1,2.980260611E0,9.774082184E0
1.205278540E2,-2.991028363E-3,2.407179594E0,8.631509781E0
1.210278540E2,-4.821537733E-1,1.625324726E0,9.612566948E0
1.215278540E2,4.767699242E-1,2.145763636E0,9.620942116E0
1.220278540E2,2.009970903E0,2.946162939E0,9.318847656E0
1.225278540E2,1.848455518E-1,1.994417667E0,9.644271851E0
1.230278540E2,6.508477330E-1,2.360519648E0,1.013958549E1
1.235278540E2,-1.066002488E0,9.888339639E-1,9.312865257E0
1.240278540E2,7.878368497E-1,2.391027927E0,9.908080101E0
1.245278540E2,5.467599630E-1,1.792822361E0,1.024487019E1
1.250278540E2,2.267199457E-1,1.558923960E0,9.861420631E0
1.255278540E2,1.202393413E0,2.490330219E0,9.472586632E0
1.260278540E2,8.201399446E-1,2.239681959E0,9.144171715E0
1.265278540E2,6.233302951E-1,2.201396942E0,9.279366493E0
1.270278540E2,4.737788737E-1,2.042274237E0,9.777072906E0
1.275278540E2,2.069791555E-1,2.112264156E0,8.903095245E0
1.280278540E2,9.828519225E-1,2.405983210E0,9.317651749E0
1.285278540E2,2.137388945E0,2.643470764E0,9.576076508E0
1.290278540E2,4.307080805E-2,1.463211060E0,9.791430473E0
1.295278540E2,-8.009973764E-1,1.033699393E0,8.998209953E0
1.300278540E2,3.523431420E-1,1.636690736E0,9.680164337E0
1.305278540E2,2.872583628E0,3.728017569E0,1.109133148E1
1.310278540E2,6.975077987E-1,1.826321840E0,9.330213547E0
1.315278540E2,1.222134113E0,2.597409010E0,1.103091240E1
1.320278540E2,-0.000000000E0,2.159522533E0,9.395418167E0
1.325278540E2,3.075375319E0,4.353740692E0,9.262018204E0
1.330278540E2,2.860021353E0,5.105087280E0,1.089033413E1
1.335278540E2,4.187439755E-2,2.133201361E0,8.322237015E0
1.340278540E2,6.831508875E-1,2.813959360E0,9.168100357E0
1.345278540E2,7.298108935E-2,2.027917147E0,9.230313301E0
1.350278540E2,1.433898926E0,3.158525944E0,9.614361763E0
1.355278540E2,1.027717352E0,2.772683144E0,9.812367439E0
1.360278540E2,-7.722834945E-1,1.523031592E0,8.440681458E0
1.365278540E2,1.024128079E0,2.218744755E0,1.024487019E1
1.370278540E2,4.451846600E0,4.545166492E0,9.860223770E0
1.375278540E2,1.200000525E0,1.944168448E0,1.010907745E1
1.380278540E2,9.846464992E-1,1.685743570E0,9.370293617E0
1.385278540E2,3.409772217E-1,1.573280931E0,1.009472084E1
1.390278540E2,5.425725579E-1,2.311466694E0,8.785248756E0
1.395278540E2,2.625524759E0,3.118446112E0,1.038485050E1
1.400278540E2,2.967100143E0,3.256033421E0,1.108175945E1
1.405278540E2,9.631111026E-1,1.816750646E0,6.213562012E0
1.410278540E2,-2.102692842E0,4.187439755E-2,7.359126091E0
1.415278540E2,-2.452643216E-1,1.025922656E0,1.033041382E1
1.420278540E2,3.276372433E0,2.653042078E0,1.115174961E1
1.425278540E2,-6.340979785E-2,8.614161611E-1,9.684351921E0
1.430278540E2,8.171489239E-1,2.041675806E0,9.701699257E0
1.435278540E2,1.357328653E0,2.313261271E0,9.014959335E0
1.440278540E2,9.367900491E-1,2.182254314E0,1.005105114E1
1.445278540E2,8.410771489E-1,1.686341763E0,8.689535141E0
1.450278540E2,2.453241348E0,3.440878868E0,9.704092026E0
1.455278540E2,1.255035520E0,2.214557409E0,1.046620655E1
1.460278540E2,6.191428304E-1,1.757528186E0,1.079940701E1
1.465278540E2,1.826920033E0,2.338984251E0,9.306883812E0
1.470278540E2,1.216750264E0,2.940180779E0,8.797810555E0
1.475278540E2,-6.568298340E-1,1.336391449E0,8.799605370E0
1.480278540E2,4.325026870E-1,2.384447813E0,8.487939835E0
1.485278540E2,-2.859423161E-1,1.405185103E0,1.044826031E1
1.490278540E2,-1.256231871E-2,2.142772675E0,9.159725189E0
1.495278540E2,-1.078564763E0,1.744965911E0,9.556933403E0
1.500278540E2,-1.882553220E0,2.322832584E0,8.836095810E0
1.505278540E2,-2.180459738E0,1.666600943E0,8.578866959E0
1.510278540E2,-1.810768485E0,1.757528186E0,9.163313866E0
1.515278540E2,-2.068595171E0,1.917847395E0,7.972885132E0
1.520278540E2,-1.828116536E0,2.053041935E0,8.913862228E0
1.525278540E2,5.682953596E-1,3.349951744E0,1.074676514E1
1.530278540E2,-1.164706469E0,1.350748420E0,1.004387283E1
1.535278540E2,-1.121635556E0,1.472782373E0,1.012522888E1
1.540278540E2,2.439482689E0,3.523431301E0,1.034776115E1
1.545278540E2,1.319043517E0,3.096312523E0,9.723235130E0
1.550278540E2,2.067398787E0,3.672384501E0,9.520442963E0
1.555278540E2,-2.285145670E-1,1.607976794E0,1.072283649E1
1.560278540E2,1.288534999E0,2.840878725E0,9.692726135E0
1.565278540E2,1.283749342E0,2.839682341E0,8.423932076E0
1.570278540E2,-1.533201098E0,9.655039310E-1,8.736793518E0
1.575278540E2,7.776673883E-2,1.849053741E0,1.036271667E1
1.580278540E2,-6.987041831E-1,1.845464468E0,7.454838753E0
1.585278540E2,2.213360928E-2,1.666600943E0,9.920642853E0
1.590278540E2,1.037288666E0,2.245664120E0,1.094596672E1
1.595278540E2,5.198407173E-1,1.913061738E0,1.000498962E1
1.600278540E2,-3.002992272E-1,1.824527264E0,9.367302895E0
1.605278540E2,2.572284266E-2,1.625324726E0,1.080299568E1
1.610278540E2,4.229314029E-1,1.129412293E0,9.466006279E0
1.615278540E2,7.064808607E-1,1.148554921E0,1.081436157E1
1.620278540E2,2.841476798E-1,2.178664923E0,8.360522270E0
1.625278540E2,-1.122832060E0,1.226919770E0,9.034101486E0
1.630278540E2,2.219343036E-1,1.209571838E0,1.013001442E1
1.635278540E2,7.256234884E-1,1.880758643E0,8.045866013E0
1.640278540E2,2.094317913E0,2.030908108E0,9.949356079E0
1.645278540E2,2.267199457E-1,1.960918188E0,7.931608677E0
1.650278540E2,4.899304509E-1,1.858624935E0,9.840482712E0
1.655278540E2,4.719842672E-1,1.752742529E0,1.106620693E1
1.660278540E2,-6.765705943E-1,1.459621787E0,9.828518867E0
1.665278540E2,-3.744767308E-1,1.697109461E0,8.167302132E0
1.670278540E2,-3.475574851E-1,1.237687469E0,1.028435135E1
1.675278540E2,-1.070788130E-1,1.960319996E0,1.143290615E1
1.680278540E2,1.387837082E-1,3.074178934E0,9.182456970E0
1.685278540E2,-1.239482164E0,1.613958836E0,8.481958389E0
1.690278540E2,-2.135594189E-1,2.331805706E0,1.066122150E1
1.695278540E2,-1.453639716E-1,1.920838356E0,1.087597752E1
1.700278540E2,-1.372283816E0,5.946164131E-1,1.037707329E1
1.705278540E2,9.535398483E-1,1.676770449E0,1.301575851E1
1.710278540E2,-7.836493850E-2,1.414756417E0,9.014361382E0
1.715278540E2,-3.708875179E-2,2.011167526E0,8.899505615E0
1.720278540E2,6.029912829E-1,1.948953986E0,9.573084831E0
1.725278540E2,4.480560422E-1,1.932204247E0,9.427721024E0
1.730278540E2,1.022931695E0,2.427518606E0,9.210572243E0
1.735278540E2,1.795813441E0,2.099103689E0,9.540781975E0
1.740278540E2,8.506484628E-1,1.786242127E0,9.907482147E0
1.745278540E2,1.185643673E0,1.826920033E0,9.220742226E0
1.750278540E2,1.197607756E0,1.987837434E0,9.540781975E0
1.755278540E2,8.123632669E-1,1.006181955E0,9.969695091E0
1.760278540E2,7.908278704E-1,1.475773335E0,1.000678444E1
1.765278540E2,1.128215909E0,1.582253933E0,9.738788605E0
1.770278540E2,9.427721500E-1,1.791625977E0,9.248857498E0
1.775278540E2,8.979067206E-1,2.011765718E0,9.349954605E0
1.780278540E2,9.032905698E-1,2.322832584E0,9.190233231E0
1.785278540E2,9.846464992E-1,2.233700037E0,9.679565430E0
1.790278540E2,7.178468108E-1,1.546959877E0,9.676574707E0
1.795278540E2,7.274180651E-1,1.434497118E0,9.536594391E0
1.800278540E2,8.727820516E-1,1.869392633E0,9.376873970E0
1.805278540E2,9.314061999E-1,2.142174482E0,9.400801659E0
1.810278540E2,9.655039310E-1,2.203191519E0,9.296713829E0
1.815278540E2,8.147560954E-1,2.180459738E0,9.443872452E0
1.820278540E2,7.878368497E-1,2.073380709E0,9.547362328E0
1.825278540E2,9.732806087E-1,2.159522533E0,9.845867157E0
1.830278540E2,5.934200287E-1,2.362912416E0,9.084949493E0
1.835278540E2,1.108475089E0,2.266601324E0,9.862018585E0
1.840278540E2,1.104287624E0,2.399402857E0,9.952347755E0
1.845278540E2,9.762716293E-1,2.427518606E0,9.486345291E0
1.850278540E2,1.052842021E0,2.338385820E0,9.713663101E0
1.855278540E2,1.194616675E0,2.279163599E0,9.680164337E0
1.860278540E2,5.324030519E-1,2.239681959E0,9.491130829E0
1.865278540E2,8.979067206E-1,2.439482689E0,9.311669350E0
1.870278540E2,8.458628058E-1,2.427518606E0,9.171091080E0
1.875278540E2,7.657032609E-1,2.636890650E0,8.851649284E0
1.880278540E2,8.099704385E-1,2.303091764E0,9.530014038E0
1.885278540E2,7.513462901E-1,2.449054003E0,8.874381065E0
1.890278540E2,9.170492887E-1,2.286342144E0,9.704092026E0
1.895278540E2,8.261220455E-1,2.401197433E0,9.295517921E0
1.900278540E2,1.214357495E0,2.367099762E0,9.883553505E0
1.905278540E2,8.650053740E-1,2.486740828E0,8.987442017E0
1.910278540E2,8.530412912E-1,2.336591244E0,9.643074989E0
1.915278540E2,6.729813814E-1,2.355733871E0,8.752944946E0
1.920278540E2,9.511470199E-1,2.391626120E0,9.258428574E0
1.925278540E2,8.691928387E-1,2.444268227E0,9.221938133E0
1.930278540E2,9.062815905E-1,2.438884497E0,8.991030693E0
1.935278540E2,1.155135155E0,2.466402054E0,9.515059471E0
1.940278540E2,1.116850019E0,2.158325911E0,9.723235130E0
1.945278540E2,9.655039310E-1,1.945963025E0,9.460023880E0
1.950278540E2,1.070189953E0,1.986042738E0,9.357730865E0
1.955278540E2,1.137188911E0,1.975275040E0,9.433703423E0
1.960278540E2,1.078564763E0,1.946561217E0,9.613164902E0
1.965278540E2,8.883354068E-1,1.829312921E0,9.561718941E0
1.970278540E2,1.095912814E0,1.963909149E0,9.577870369E0
1.975278540E2,9.822536707E-1,1.834098577E0,9.682557106E0
1.980278540E2,1.022931695E0,1.841277003E0,9.467801094E0
1.985278540E2,1.074975610E0,1.983051777E0,9.556933403E0
1.990278540E2,9.080761671E-1,1.867598057E0,9.507881165E0
1.995278540E2,8.297112584E-1,1.785045743E0,9.498309135E0
2.000278540E2,1.004985452E0,1.786242127E0,9.677771568E0
2.005278540E2,9.936196208E-1,1.744965911E0,9.703494072E0
2.010278540E2,1.015753269E0,1.754537225E0,9.597013474E0
2.015278540E2,1.008574724E0,1.751546144E0,9.585647583E0
2.020278540E2,9.972088337E-1,1.878963947E0,9.524630547E0
2.025278540E2,8.865407705E-1,1.756331801E0,9.675378799E0
2.030278540E2,1.030708313E0,1.786840320E0,9.713663101E0
2.035278540E2,9.924231768E-1,1.758126378E0,9.817152977E0
2.040278540E2,1.054636598E0,1.826920033E0,9.661021233E0
2.045278540E2,1.088136077E0,1.844268084E0,9.518648148E0
2.050278540E2,1.150349498E0,1.958525300E0,9.592227936E0
2.055278540E2,9.972088337E-1,1.849053741E0,9.631709099E0
2.060278540E2,1.113858938E0,1.856830359E0,9.768698692E0
2.065278540E2,1.103689432E0,1.828116536E0,9.673583984E0
2.070278540E2,1.108475089E0,1.890329838E0,9.649655342E0
2.075278540E2,1.097707391E0,1.801197290E0,9.570094109E0
2.080278540E2,1.249053478E0,1.963310957E0,9.534201622E0
2.085278540E2,1.158126116E0,1.914258122E0,9.881160736E0
2.090278540E2,6.891329288E-1,2.405983210E0,9.314660072E0
2.095278540E2,5.742774606E-1,2.238485575E0,9.604789734E0
2.100278540E2,4.372883439E-1,2.194816589E0,9.619147301E0
2.105278540E2,4.342973232E-1,2.148754835E0,9.366703987E0
2.110278540E2,6.113662124E-1,2.294118643E0,9.427721024E0
2.115278540E2,5.665007830E-1,2.291127682E0,9.541379929E0
2.120278540E2,4.085744619E-1,2.592025042E0,9.273384094E0
2.125278540E2,1.818545163E-1,2.583052158E0,9.230313301E0
2.130278540E2,4.624129832E-1,2.271985054E0,9.529416084E0
2.135278540E2,6.717849374E-1,2.391626120E0,9.440283775E0
2.140278540E2,1.121037364E0,2.999403238E0,9.029315948E0
2.145278540E2,9.361918569E-1,2.753540754E0,9.641280174E0
2.150278540E2,6.089733839E-1,2.689532757E0,9.390632629E0
2.155278540E2,4.869394004E-1,2.681157827E0,9.378668785E0
2.160278540E2,3.463610709E-1,2.374876499E0,9.592227936E0
2.165278540E2,2.584248483E-1,2.346760750E0,9.201599121E0
2.170278540E2,4.307080805E-1,2.193620205E0,9.523433685E0
2.175278540E2,7.531409264E-1,3.214159012E0,9.208778381E0
2.180278540E2,8.602197170E-1,4.185645103E0,9.291928291E0
2.185278540E2,8.835497499E-1,3.667598963E0,9.531210899E0
2.190278540E2,9.487541914E-1,3.370888948E0,9.328418732E0
2.195278540E2,7.334001660E-1,3.183650494E0,9.560523033E0
2.200278540E2,9.272187948E-1,4.170091629E0,8.818149567E0
2.205278540E2,7.543373108E-1,3.353540897E0,9.330811501E0
2.210278540E2,8.374879360E-1,3.045464993E0,9.522237778E0
2.215278540E2,1.615753531E0,5.160121918E0,8.684749603E0
2.220278540E2,1.939980984E0,4.633700848E0,1.034955597E1
2.225278540E2,3.864408433E-1,2.562114954E0,9.108877182E0
2.230278540E2,-1.244267747E-1,2.696112871E0,9.372088432E0
2.235278540E2,1.118644595E0,3.915854216E0,1.043450165E1
2.240278540E2,8.949156404E-1,3.241676569E0,9.312865257E0
2.245278540E2,1.240678549E0,3.919443607E0,9.975079536E0
2.250278540E2,5.970092416E-1,3.205185890E0,8.855237961E0
2.255278540E2,7.148557901E-1,3.281756163E0,8.280961037E0
2.260278540E2,1.235892892E0,2.941975355E0,9.479166985E0
2.265278540E2,1.992024779E-1,3.973282099E0,8.644669533E0
2.270278540E2,1.391426325E0,4.244867325E0,9.598808289E0
2.275278540E2,1.328016520E-1,3.161516905E0,9.165707588E0
2.280278540E2,4.606183618E-2,2.867797852E0,8.702097893E0
2.285278540E2,5.324030519E-1,3.047259569E0,9.162715912E0
2.290278540E2,-3.589233849E-3,2.602194548E0,8.769096375E0
2.295278540E2,3.236292601E-1,2.635694027E0,8.830712318E0
2.300278540E2,2.955136001E-1,2.715255499E0,9.060422897E0
2.305278540E2,6.520441771E-1,2.662015200E0,9.705288887E0
2.310278540E2,2.213360965E-1,2.650051117E0,9.033503532E0
2.315278540E2,2.602194548E-1,2.478964329E0,9.656235695E0
2.320278540E2,1.456032634E0,3.396611691E0,9.635298729E0
2.325278540E2,4.755735099E-1,2.135594130E0,8.695517540E0
2.330278540E2,-7.298108935E-2,1.545763373E0,1.004148006E1
2.335278540E2,9.702895880E-1,2.083550215E0,1.057448101E1
2.340278540E2,6.089733839E-1,1.992623091E0,1.015394306E1
2.345278540E2,3.194418252E-1,1.835893154E0,9.617950439E0
2.350278540E2,1.077966571E0,2.845664263E0,1.022393322E1
2.355278540E2,5.443671346E-2,1.757528186E0,9.690931320E0
2.360278540E2,2.356930375E-1,1.660618901E0,1.029212856E1
2.365278540E2,1.147358418E0,2.027917147E0,1.155135155E1
2.370278540E2,-5.198407173E-1,1.190429211E0,9.235098839E0
2.375278540E2,9.272187948E-1,1.793420553E0,9.871589661E0
2.380278540E2,6.400800347E-1,2.298904419E0,9.046066284E0
2.385278540E2,7.483552694E-1,2.011167526E0,9.227920532E0
2.390278540E2,1.345962763E0,1.728814363E0,1.008156013E1
2.395278540E2,-8.614161611E-2,1.446461320E0,9.262018204E0
2.400278540E2,1.616351724E0,2.187039852E0,1.015513897E1
2.405278540E2,5.132604837E-1,1.721635938E0,1.001815033E1
2.410278540E2,6.873382926E-1,1.896311998E0,9.421140671E0
2.415278540E2,4.767699242E-1,1.743769526E0,8.610571861E0
2.420278540E2,-1.992024779E-1,1.231107235E0,9.590433121E0
2.425278540E2,1.231705427E0,2.237887383E0,1.086820030E1
2.430278540E2,2.745763958E-1,1.609173179E0,9.381061554E0
2.435278540E2,7.495517135E-1,2.019542217E0,9.022735596E0
2.440278540E2,-4.366901219E-1,1.108475089E0,9.282955170E0
2.445278540E2,1.092921734E0,1.898106575E0,1.061934662E1
2.450278540E2,8.853443861E-1,2.330609322E0,9.523433685E0
2.455278540E2,-6.580262445E-3,1.558325768E0,9.757930756E0
2.460278540E2,1.217348576E0,1.992623091E0,1.029511929E1
2.465278540E2,-1.435693540E-2,1.406979680E0,9.751350403E0
2.470278540E2,6.777670383E-1,1.732403636E0,1.001515961E1
2.475278540E2,-2.093719877E-2,1.052842021E0,9.072386742E0
2.480278540E2,1.848455518E-1,1.017547846E0,9.611370087E0
2.485278540E2,4.163511395E-1,2.311466694E0,9.499505997E0
2.490278540E2,7.513462901E-1,2.530410051E0,9.860223770E0
2.495278540E2,-1.387837082E-1,2.017747641E0,9.693922997E0
2.500278540E2,5.647061467E-1,2.386840582E0,9.428917885E0
2.505278540E2,1.830509305E-1,2.027917147E0,8.451449394E0
2.510278540E2,2.907279432E-1,1.824527264E0,8.015955925E0
2.515278540E2,1.666600943E0,2.877369165E0,1.012762165E1
2.520278540E2,2.500499785E-1,2.582453728E0,9.060422897E0
2.525278540E2,1.681556106E0,3.370888948E0,9.662218094E0
2.530278540E2,-3.523431420E-1,2.580659151E0,7.811369419E0
2.535278540E2,6.634100676E-1,2.675175667E0,8.163114548E0
2.540278540E2,7.609176040E-1,1.925025821E0,1.010608673E1
2.545278540E2,6.951149702E-1,1.286142230E0,9.628718376E0
2.550278540E2,1.111466169E0,1.963909149E0,9.268598557E0
2.555278540E2,1.648056626E0,1.984248161E0,9.067601204E0
2.560278540E2,1.601994753E0,1.792822361E0,9.522237778E0
2.565278540E2,1.621137381E0,1.882553220E0,1.033819008E1
2.570278540E2,1.646261930E0,1.753340840E0,9.239286423E0
2.575278540E2,1.339980721E0,1.643270969E0,1.023290634E1
2.580278540E2,1.434497118E0,1.949552298E0,9.046066284E0
2.585278540E2,6.855437160E-1,2.206182480E0,9.038289070E0
2.590278540E2,3.714857101E-1,1.939382792E0,1.040877819E1
2.595278540E2,4.468596280E-1,2.723032236E0,9.561718941E0
2.600278540E2,-3.302095234E-1,1.786242127E0,8.598608017E0
2.605278540E2,4.821537733E-1,2.525624275E0,1.036271667E1
2.610278540E2,7.052844763E-1,2.489732027E0,8.768498421E0
2.615278540E2,1.561316848E-1,1.545763373E0,9.397212982E0
2.620278540E2,7.836494446E-1,3.147758245E0,9.891928673E0
2.625278540E2,6.077769399E-1,1.963310957E0,1.003549862E1
2.630278540E2,1.089332461E0,2.118844509E0,1.042792130E1
2.635278540E2,1.171286702E0,2.860021353E0,1.026042366E1
2.640278540E2,2.201396823E-1,2.015953064E0,9.351150513E0
2.645278540E2,3.816552162E-1,1.965105653E0,9.555737495E0
2.650278540E2,3.529413342E-1,2.097309113E0,8.663214684E0
2.655278540E2,2.069791555E-1,1.799402595E0,9.878767967E0
2.660278540E2,-2.518445849E-1,2.389831543E0,9.328418732E0
2.665278540E2,-2.273181453E-2,2.179263115E0,9.180064201E0
2.670278540E2,-8.488538265E-1,1.709671736E0,9.410373688E0
2.675278540E2,-1.056431174E0,1.618744493E0,1.016829967E1
2.680278540E2,3.014956415E-1,2.824727058E0,7.760521889E0
2.685278540E2,-1.167697430E0,1.392622828E0,7.818548203E0
2.690278540E2,9.870393276E-1,3.499503136E0,8.732007980E0
2.695278540E2,7.836494446E-1,2.932404041E0,9.373284340E0
2.700278540E2,8.596215248E-1,2.400599241E0,9.298508644E0
2.705278540E2,5.371887088E-1,2.011765718E0,8.855237961E0
2.710278540E2,1.171286702E0,2.116451740E0,9.736993790E0
2.715278540E2,1.352542996E0,2.456232548E0,9.451649666E0
2.720278540E2,1.041476011E0,2.271386862E0,1.001156998E1
2.725278540E2,8.117650747E-1,2.247458696E0,9.282357216E0
2.730278540E2,1.290927768E0,2.335394859E0,9.577870369E0
2.735278540E2,6.376872063E-1,1.850250125E0,9.723235130E0
2.740278540E2,9.170492887E-1,1.977667928E0,9.213563919E0
2.745278540E2,1.427916884E0,2.687737942E0,9.670592308E0
2.750278540E2,-3.529413417E-2,1.485344648E0,9.072386742E0
2.755278540E2,8.057830334E-1,2.061416626E0,1.018744278E1
2.760278540E2,1.108475089E0,2.261815548E0,9.479166985E0
2.765278540E2,6.077769399E-1,1.928615093E0,9.378069878E0
2.770278540E2,8.500502706E-1,2.175673962E0,9.687342644E0
2.775278540E2,8.057830334E-1,1.995614052E0,9.952347755E0
2.780278540E2,1.439282775E0,2.542374134E0,9.424132347E0
2.785278540E2,3.601198196E-1,1.375274777E0,9.113064766E0
2.790278540E2,4.007977843E-1,1.419542074E0,9.234500885E0
2.795278540E2,7.429714203E-1,2.032104731E0,9.738788605E0
2.800278540E2,6.017948985E-1,1.508674622E0,9.926624298E0
2.805278540E2,1.122832060E0,2.284547329E0,9.701699257E0
2.810278540E2,1.422533035E0,2.230110645E0,9.467203140E0
2.815278540E2,1.794616925E-3,9.176474810E-1,9.156135559E0
2.820278540E2,6.717849374E-1,1.457827210E0,9.821340561E0
2.825278540E2,9.792626500E-1,1.765903115E0,9.773484230E0
2.830278540E2,-8.135596663E-2,1.161715388E0,9.870991707E0
2.835278540E2,2.669193745E0,2.672184706E0,1.035494041E1
2.840278540E2,8.362914920E-1,2.067398787E0,1.026341438E1
2.845278540E2,3.158525825E-1,1.192822099E0,9.125029564E0
2.850278540E2,3.218346536E-1,1.697707653E0,1.000558758E1
2.855278540E2,6.825526357E-1,1.974676847E0,9.680164337E0
2.860278540E2,8.530412912E-1,1.536192179E0,9.845269203E0
2.865278540E2,1.077966571E0,2.137987137E0,9.462417603E0
2.870278540E2,1.703689694E0,2.206182480E0,9.840482712E0
2.875278540E2,5.347958803E-1,1.744965911E0,9.766305923E0
2.880278540E2,4.725824594E-1,1.764706731E0,9.282955170E0
2.885278540E2,8.105686903E-1,1.607976794E0,9.327222824E0
2.890278540E2,2.614158690E-1,1.276570916E0,9.865009308E0
2.895278540E2,8.219345808E-1,1.682752490E0,9.601201057E0
2.900278540E2,8.452646136E-1,1.716850281E0,9.656235695E0
2.905278540E2,4.241278172E-1,1.606182218E0,9.751948357E0
2.910278540E2,1.367498159E0,2.340180635E0,9.186644554E0
2.915278540E2,6.508477330E-1,1.745564103E0,1.031665516E1
2.920278540E2,4.701896608E-1,1.332203984E0,9.293723106E0
2.925278540E2,1.545763373E0,2.084746838E0,1.025862885E1
2.930278540E2,7.387840152E-1,1.947757602E0,9.414560318E0
2.935278540E2,1.234696507E0,2.038684845E0,9.312865257E0
2.940278540E2,8.662018180E-1,2.182254314E0,9.422935486E0
2.945278540E2,-3.050848842E-2,1.202991605E0,9.803992271E0
2.950278540E2,9.936196208E-1,1.853839397E0,9.660423279E0
2.955278540E2,9.954141974E-1,2.215753794E0,1.006899738E1
2.960278540E2,4.510470629E-1,1.367498159E0,8.374878883E0
2.965278540E2,1.152144074E0,1.684547186E0,9.695717812E0
2.970278540E2,6.819544733E-2,1.437488198E0,9.795019150E0
2.975278540E2,1.443470240E0,1.518245935E0,9.284152031E0
2.980278540E2,1.217348576E0,1.443470240E0,9.945767403E0
2.985278540E2,1.740778446E0,2.002194405E0,9.738788605E0
2.990278540E2,2.231307179E-1,1.014556766E0,9.195018768E0
2.995278540E2,2.027917206E-1,1.466202021E0,9.550951958E0
3.000278540E2,1.055832982E0,1.663609982E0,9.549157143E0
3.005278540E2,7.531409264E-1,1.439282775E0,1.009950638E1
3.010278540E2,1.218544960E0,1.357926846E0,1.017787075E1
3.015278540E2,1.540977836E0,2.247458696E0,8.965308189E0
3.020278540E2,5.868397355E-1,1.439282775E0,9.019744873E0
3.025278540E2,4.498506486E-1,1.268195987E0,9.750154495E0
3.030278540E2,7.160521746E-1,1.475773335E0,9.708279610E0
3.035278540E2,6.317051649E-1,1.432104349E0,9.665806770E0
3.040278540E2,8.410771489E-1,1.931606054E0,9.783653259E0
3.045278540E2,9.074779749E-1,9.110672474E-1,9.590433121E0
3.050278540E2,5.994020700E-1,1.125823021E0,9.620942116E0
3.055278540E2,1.944168359E-1,1.000199914E0,8.775676727E0
3.060278540E2,1.030110121E0,1.344766378E0,9.914062500E0
3.065278540E2,1.138983607E0,1.233500123E0,1.026879883E1
3.070278540E2,1.499701619E0,1.456630826E0,9.735796928E0
3.075278540E2,5.377869010E-1,1.188036442E0,9.426525116E0
3.080278540E2,1.016351461E0,1.183848977E0,1.021735287E1
3.085278540E2,2.727817893E-1,1.144965649E0,8.863015175E0
3.090278540E2,7.513462901E-1,1.272981644E0,9.116654396E0
3.095278540E2,6.616154313E-1,1.534995675E0,9.672985077E0
3.100278540E2,2.632105052E-1,1.353141189E0,9.580862045E0
3.105278540E2,3.792623878E-1,1.088136077E0,9.746564865E0
3.110278540E2,1.403390527E0,1.394417405E0,9.565308571E0
3.115278540E2,4.995017350E-1,1.025922656E0,9.826126099E0
3.120278540E2,1.864607096E0,1.416550994E0,1.074676514E1
3.125278540E2,1.646261930E0,1.778465390E0,9.839286804E0
3.130278540E2,1.043270707E0,1.433898926E0,9.220742226E0
3.135278540E2,9.702895880E-1,1.797608018E0,1.010369396E1
3.140278540E2,9.798609018E-1,1.752742529E0,9.233304024E0
3.145278540E2,1.220339537E0,1.576271892E0,9.360722542E0
3.150278540E2,1.078564763E0,1.551745534E0,1.036211872E1
3.155278540E2,1.553540111E0,1.885544300E0,9.539586067E0
3.160278540E2,8.327022791E-1,1.260419369E0,9.668199539E0
3.165278540E2,8.482556343E-1,1.420140266E0,9.914660454E0
3.170278540E2,1.027717352E0,1.683350682E0,9.142376900E0
3.175278540E2,1.467398524E0,1.973480463E0,9.919445992E0
3.180278540E2,4.354937077E-1,1.138983607E0,9.795019150E0
3.185278540E2,9.062815905E-1,1.747956991E0,9.795019150E0
3.190278540E2,6.735795736E-1,1.200000525E0,9.663414001E0
3.195278540E2,2.219343036E-1,9.924231768E-1,9.143573761E0
3.200278540E2,9.302098155E-1,1.463211060E0,1.045184898E1
3.205278540E2,1.463211060E0,1.821536183E0,9.393025398E0
3.210278540E2,4.749752879E-1,1.412961721E0,8.562715530E0
3.215278540E2,7.465606928E-1,1.475175142E0,9.823733330E0
3.220278540E2,5.060819983E-1,1.349551916E0,1.016770172E1
3.225278540E2,1.671984792E0,2.537588358E0,1.056012440E1
3.230278540E2,8.650053740E-1,2.134397745E0,7.542177200E0
3.235278540E2,1.043270707E0,2.271386862E0,9.818349838E0
3.240278540E2,1.815554142E0,2.397608280E0,1.049372387E1
3.245278540E2,6.017948985E-1,1.993819475E0,8.641678810E0
3.250278540E2,1.875972986E0,1.869990945E0,1.182532978E1
3.255278540E2,9.966106415E-1,1.705484390E0,9.123234749E0
3.260278540E2,5.156532526E-1,2.257628202E0,9.035298347E0
3.265278540E2,1.547558069E0,2.478964329E0,1.000977516E1
3.270278540E2,7.848458290E-1,2.522035122E0,9.153144836E0
3.275278540E2,1.724028707E0,3.061018467E0,8.902496338E0
3.280278540E2,1.504487276E0,3.311666489E0,9.414560318E0
3.285278540E2,1.327418327E0,2.783450842E0,1.035135078E1
3.290278540E2,1.034895778E0,1.903490424E0,8.658429146E0
3.295278540E2,1.039681435E0,2.023131609E0,1.002293587E1
3.300278540E2,1.017547846E0,1.775474429E0,9.037093163E0
3.305278540E2,4.624129832E-1,1.463211060E0,1.026042366E1
3.310278540E2,9.032905698E-1,9.762716293E-1,9.963713646E0
3.315278540E2,4.247260094E-1,1.384247899E0,9.385847092E0
3.320278540E2,1.182054400E0,1.487139225E0,9.194420815E0
3.325278540E2,1.472782373E0,1.590628862E0,1.019222832E1
3.330278540E2,7.800601721E-1,1.269990563E0,1.088614655E1
3.335278540E2,5.084748268E-1,9.248259664E-1,8.809176445E0
3.340278540E2,1.177268744E0,1.657627940E0,7.975875854E0
3.345278540E2,7.914260626E-1,2.949752092E0,1.183849049E1
3.350278540E2,1.212562919E0,1.800599098E0,8.725427628E0
3.355278540E2,2.901297510E-1,2.011765718E0,1.065404320E1
3.360278540E2,-7.130611539E-1,-9.690931439E-2,8.718249321E0
3.365278540E2,2.167897224E0,2.487339020E0,1.023948669E1
3.370278540E2,8.769695163E-1,1.319043517E0,1.026879883E1
3.375278540E2,1.183848977E0,2.092523336E0,9.127422333E0
3.380278540E2,6.951149702E-1,2.054238319E0,1.007079220E1
3.385278540E2,-2.069791555E-1,1.673779488E0,9.415159225E0
3.390278540E2,1.360319614E0,1.426122308E0,1.053918743E1
3.395278540E2,1.051047325E0,2.075175524E0,9.839286804E0
3.400278540E2,7.668996453E-1,2.367697954E0,1.027836990E1
3.405278540E2,1.242473125E0,1.919043779E0,8.617751122E0
3.410278540E2,8.123632669E-1,2.096112728E0,9.510871887E0
3.415278540E2,1.457827210E0,2.140379906E0,9.244071960E0
3.420278540E2,1.150349498E0,2.003988981E0,9.957731247E0
3.425278540E2,1.519442350E-1,1.319641709E0,9.089137077E0
3.430278540E2,1.499701619E0,2.246262312E0,8.941379547E0
3.435278540E2,4.558327198E-1,1.370489120E0,8.810373306E0
3.440278540E2,1.098903775E0,2.261815548E0,1.055533886E1
3.445278540E2,5.108676553E-1,1.252044439E0,8.695517540E0
3.450278540E2,1.038485050E0,2.188834429E0,9.351150513E0
3.455278540E2,5.970092416E-1,1.838884234E0,9.171091080E0
3.460278540E2,-4.737788737E-1,1.009771109E0,9.762716293E0
3.465278540E2,1.402194023E0,1.828116536E0,9.797411919E0
3.470278540E2,6.604190469E-1,1.713261008E0,8.822935104E0
3.475278540E2,1.079761267E0,1.476969719E0,9.948160172E0
3.480278540E2,4.558327198E-1,1.243071318E0,9.409774780E0
3.485278540E2,1.357926846E0,2.187039852E0,9.743574142E0
3.490278540E2,1.818545163E-1,1.408176184E0,8.762516975E0
3.495278540E2,1.244267821E0,2.166102648E0,8.733802795E0
3.500278540E2,1.341177106E0,2.184048891E0,9.906285286E0
3.505278540E2,3.002992272E-1,9.152546525E-1,9.229715347E0
3.510278540E2,9.750752449E-1,1.540977836E0,8.888139725E0
3.515278540E2,6.239284873E-1,1.920240164E0,1.111705399E1
3.520278540E2,8.739784956E-1,1.192822099E0,9.754341125E0
3.525278540E2,1.082752228E0,2.094916344E0,9.309874535E0
3.530278540E2,1.332203984E0,1.928615093E0,9.674779892E0
3.535278540E2,4.959124923E-1,1.234696507E0,8.924032211E0
3.540278540E2,7.262216806E-1,1.715055585E0,1.002114105E1
3.545278540E2,1.135992527E0,1.745564103E0,1.038604641E1
3.550278540E2,7.962117195E-1,1.488335729E0,9.405587196E0
3.555278540E2,6.759724021E-1,1.116251707E0,9.863214493E0
3.560278540E2,1.433898926E0,2.002194405E0,9.492925644E0
3.565278540E2,-3.529413417E-2,9.924231768E-1,8.973084450E0
3.570278540E2,1.171286702E0,1.599601984E0,1.050329494E1
3.575278540E2,1.091127157E0,1.986042738E0,9.741779327E0
3.580278540E2,1.080359459E0,1.774278045E0,9.549157143E0
3.585278540E2,2.871387303E-1,1.131206870E0,9.041878700E0
3.590278540E2,7.579265833E-1,1.630110383E0,9.118449211E0
3.595278540E2,5.868397355E-1,1.470987678E0,9.736993790E0
3.600278540E2,-4.181457460E-1,1.092323542E0,8.224729538E0
3.605278540E2,1.505683661E0,2.501097918E0,9.634700775E0
3.610278540E2,9.272187948E-1,1.375274777E0,9.496515274E0
3.615278540E2,6.334998012E-1,1.648056626E0,9.448657990E0
3.620278540E2,9.954141974E-1,1.515254974E0,9.617352486E0
3.625278540E2,5.300102234E-1,1.091127157E0,9.687940598E0
3.630278540E2,8.201399446E-1,2.065604210E0,9.271589279E0
3.635278540E2,6.622136831E-1,1.572682738E0,9.602995872E0
3.640278540E2,6.586244106E-1,1.448854089E0,9.481559753E0
3.645278540E2,1.394417405E0,2.177468538E0,1.001156998E1
3.650278540E2,6.191428304E-1,1.135394335E0,9.483952522E0
3.655278540E2,5.563312769E-1,1.467398524E0,1.020419216E1
3.660278540E2,1.332203984E0,1.817348838E0,9.418149948E0
3.665278540E2,9.571290612E-1,1.922034740E0,9.939785004E0
3.670278540E2,1.083350420E0,1.890329838E0,9.357730865E0
3.675278540E2,1.038485050E0,2.213959217E0,9.069993973E0
3.680278540E2,2.410768867E-1,1.000199914E0,9.363713264E0
3.685278540E2,5.521438122E-1,1.613958836E0,9.449854851E0
3.690278540E2,8.757730722E-1,1.702493310E0,1.078564835E1
3.695278540E2,1.557129383E0,2.051845312E0,9.027522087E0
3.700278540E2,9.750752449E-1,1.909472466E0,9.627521515E0
3.705278540E2,8.057830334E-1,1.663609982E0,9.348159790E0
3.710278540E2,8.338986635E-1,1.659422517E0,9.399007797E0
3.715278540E2,1.262213886E-1,1.574477315E0,1.008036327E1
3.720278540E2,1.456032634E0,2.073380709E0,1.059840965E1
3.725278540E2,1.652244091E0,2.003390789E0,9.922437668E0
3.730278540E2,1.166501045E0,1.960918188E0,9.303294182E0
3.735278540E2,1.084546804E0,1.839482427E0,1.007258701E1
3.740278540E2,1.405783296E-1,1.174277663E0,9.617950439E0
3.745278540E2,7.752745152E-1,1.785045743E0,9.333204269E0
3.750278540E2,6.526423693E-1,1.135394335E0,1.014437199E1
3.755278540E2,3.433700502E-1,1.372283816E0,9.151947975E0
3.760278540E2,1.429113269E0,1.846062660E0,9.941579819E0
3.765278540E2,1.094118118E0,1.789831281E0,9.588638306E0
3.770278540E2,-4.187439755E-2,1.264606714E0,9.602995872E0
3.775278540E2,5.216353536E-1,1.886740685E0,9.677771568E0
3.780278540E2,6.825526357E-1,1.543968797E0,1.007856941E1
3.785278540E2,1.573280931E0,2.285743713E0,9.821340561E0
3.790278540E2,1.208375469E-1,1.666600943E0,9.622735977E0
3.795278540E2,5.754738450E-1,1.831107497E0,8.529814720E0
3.800278540E2,4.576273263E-1,1.578066587E0,1.109133148E1
3.805278540E2,1.950150430E-1,1.443470240E0,9.644271851E0
3.810278540E2,3.858426511E-1,1.328614831E0,8.584251404E0
3.815278540E2,3.475574851E-1,1.380060434E0,8.949156761E0
3.820278540E2,1.836491346E0,2.450250387E0,1.060618591E1
3.825278540E2,1.142572761E0,2.439482689E0,9.553344727E0
3.830278540E2,5.521438122E-1,1.237687469E0,9.274580956E0
3.835278540E2,1.274178028E0,1.724028707E0,1.122592735E1
3.840278540E2,1.636690736E0,2.301895380E0,9.749555588E0
3.845278540E2,9.487541914E-1,1.483550072E0,9.498309135E0
3.850278540E2,3.505485058E-1,2.145165443E0,9.507881165E0
3.855278540E2,3.577269912E-1,1.176072359E0,9.475577354E0
3.860278540E2,-2.237289101E-1,1.259821177E0,9.516854286E0
3.865278540E2,1.607976794E0,2.429911375E0,9.381061554E0
3.870278540E2,1.070189953E0,2.201396942E0,9.612566948E0
3.875278540E2,-9.475577474E-1,-3.050848842E-1,8.291728973E0
3.880278540E2,8.171489239E-1,1.831705689E0,7.160521984E0
3.885278540E2,5.982056856E-1,1.698904037E0,1.007079220E1
3.890278540E2,5.234299302E-1,1.395613790E0,8.876175880E0
3.895278540E2,1.238285661E0,1.981257200E0,9.817152977E0
3.900278540E2,1.560120344E0,2.252244234E0,1.034177971E1
3.905278540E2,8.117650747E-1,1.192822099E0,9.035298347E0
3.910278540E2,7.639086246E-1,2.255833626E0,9.789635658E0
3.915278540E2,5.503492355E-1,1.560120344E0,9.255437851E0
3.920278540E2,9.080761671E-1,1.678565025E0,9.840482712E0
3.925278540E2,1.801197290E0,2.544168711E0,9.873982430E0
3.930278540E2,8.470591903E-1,1.566102386E0,8.959924698E0
3.935278540E2,1.184447184E-1,1.324427366E0,9.068798065E0
3.940278540E2,1.021137118E0,1.987837434E0,9.482157707E0
3.945278540E2,2.805584669E-1,1.686341763E0,9.665806770E0
3.950278540E2,1.588834286E0,1.987239242E0,9.579665184E0
3.955278540E2,1.726421595E0,1.713261008E0,9.294919968E0
3.960278540E2,2.394019127E0,1.847259045E0,9.919445992E0
3.965278540E2,1.649253011E0,1.597209096E0,8.880961418E0
3.970278540E2,1.363908887E0,1.671984792E0,9.746564865E0
3.975278540E2,1.603191137E0,1.453639746E0,9.742377281E0
3.980278540E2,2.463410854E0,1.775474429E0,9.247661591E0
3.985278540E2,3.145365477E0,1.731207132E0,9.430712700E0
3.990278540E2,2.799602509E0,1.529611826E0,9.033503532E0
3.995278540E2,2.654238462E0,1.448854089E0,9.204590797E0
4.000278540E2,3.144168854E0,1.680957913E0,9.708279610E0
4.005278540E2,2.729014158E0,1.588834286E0,9.875777245E0
4.010278540E2,2.475374937E0,1.759921074E0,9.294919968E0
4.015278540E2,2.386242390E0,1.327418327E0,9.740582466E0
4.020278540E2,1.638485312E0,1.394417405E0,9.402596474E0
4.025278540E2,1.395613790E0,1.001994491E0,9.047860146E0
4.030278540E2,1.595414519E0,1.515853167E0,9.708877563E0
4.035278540E2,1.794616938E0,1.948953986E0,9.804591179E0
4.040278540E2,5.491527915E-1,1.476969719E0,9.778867722E0
4.045278540E2,1.293918848E0,1.976471543E0,8.933005333E0
4.050278540E2,9.379864931E-1,1.116850019E0,8.783453941E0
4.055278540E2,6.460621357E-1,1.365105271E0,9.522237778E0
4.060278540E2,9.888339639E-1,1.765903115E0,9.159725189E0
4.065278540E2,9.637092948E-1,1.636690736E0,9.510871887E0
4.070278540E2,6.813562512E-1,1.540977836E0,9.314062119E0
4.075278540E2,1.281356573E0,2.019542217E0,9.201599121E0
4.080278540E2,7.908278704E-1,1.402194023E0,9.917053223E0
4.085278540E2,9.032905698E-1,1.245464206E0,9.634700775E0
4.090278540E2,1.456630826E0,1.707278967E0,1.016829967E1
4.095278540E2,1.524826288E0,2.173879385E0,1.062891865E1
4.100278540E2,9.942178130E-1,1.896910191E0,9.358927727E0
4.105278540E2,7.752745152E-1,1.708475351E0,8.560322762E0
4.110278540E2,3.176472187E-1,1.350748420E0,9.317651749E0
4.115278540E2,8.817551732E-1,1.524826288E0,9.419346809E0
4.120278540E2,6.346961856E-1,1.874776483E0,9.874580383E0
4.125278540E2,1.494317770E0,2.003988981E0,1.017547798E1
4.130278540E2,1.590030670E0,1.798206210E0,8.703892708E0
4.135278540E2,4.468596280E-1,1.646261930E0,9.058030128E0
4.140278540E2,1.579262912E-1,1.563709617E0,9.450452805E0
4.145278540E2,9.415757060E-1,1.305284739E0,9.571290970E0
4.150278540E2,1.046261668E0,1.515254974E0,1.043629551E1
4.155278540E2,1.566102386E0,1.628913999E0,9.340383530E0
4.160278540E2,1.649253011E0,1.783849239E0,9.952347755E0
4.165278540E2,1.713261008E0,1.761117458E0,1.007378292E1
4.170278540E2,7.292127013E-1,1.218544960E0,9.102297783E0
4.175278540E2,7.752745152E-1,1.356132269E0,9.981659889E0
4.180278540E2,9.140582681E-1,1.721635938E0,9.663414001E0
4.185278540E2,1.467996716E0,1.628913999E0,1.032742214E1
4.190278540E2,1.893320918E0,1.680957913E0,1.050927734E1
4.195278540E2,6.382854581E-1,1.398604870E0,9.078369141E0
4.200278540E2,6.891329288E-1,1.237687469E0,9.753145218E0
4.205278540E2,2.356332064E0,2.143969059E0,1.015992451E1
4.210278540E2,7.800601721E-1,1.143769264E0,9.259027481E0
4.215278540E2,4.319044948E-1,1.168893814E0,9.131011009E0
4.220278540E2,1.175474167E0,1.815554142E0,9.615557671E0
4.225278540E2,1.003190875E0,1.432702541E0,1.023529911E1
4.230278540E2,1.255035520E0,1.434497118E0,9.604789734E0
4.235278540E2,9.696913958E-1,1.013360381E0,1.004865837E1
4.240278540E2,3.942175210E-1,1.226919770E0,8.711668968E0
4.245278540E2,1.734796464E-1,1.051645517E0,8.629714966E0
4.250278540E2,1.216750264E0,1.295713425E0,1.000319481E1
4.255278540E2,8.392825127E-1,1.335195065E0,9.967302322E0
4.260278540E2,6.574280262E-1,1.118046403E0,9.577272415E0
4.265278540E2,8.757730722E-1,1.426122308E0,9.620343208E0
4.270278540E2,4.175475538E-1,1.279561877E0,9.602995872E0
4.275278540E2,1.691127419E0,1.880758643E0,1.056191921E1
4.280278540E2,4.325026870E-1,1.226321578E0,8.960522652E0
4.285278540E2,5.276173949E-1,1.451845169E0,8.821140289E0
4.290278540E2,2.709871531E-1,1.118644595E0,1.120917797E1
4.295278540E2,-1.387837082E-1,5.485545993E-1,9.134002686E0
4.300278540E2,9.463613629E-1,1.219143152E0,9.037093163E0
4.305278540E2,-4.785645381E-2,1.075573802E0,9.577272415E0
4.310278540E2,1.111466169E0,1.456630826E0,1.014377308E1
4.315278540E2,3.457628787E-1,1.618744493E0,9.850652695E0
4.320278540E2,9.212367237E-2,9.667003751E-1,9.936196327E0
4.325278540E2,2.602194548E-1,1.252642632E0,1.033878803E1
4.330278540E2,-3.469592705E-2,1.156331539E0,9.492925644E0
4.335278540E2,2.189432681E-1,1.490130305E0,8.534600258E0
4.340278540E2,-5.024927258E-1,1.362114310E0,9.534201622E0
4.345278540E2,6.508477330E-1,1.628913999E0,8.937790871E0
4.350278540E2,3.924229145E-1,1.287338614E0,9.954142570E0
4.355278540E2,1.045065284E0,1.698904037E0,9.748359680E0
4.360278540E2,1.137188911E0,1.633101463E0,9.403793335E0
4.365278540E2,9.678967595E-1,1.365703583E0,9.802198410E0
4.370278540E2,6.999006271E-1,1.059422255E0,9.740582466E0
4.375278540E2,4.905286431E-2,7.884350419E-1,9.108279228E0
4.380278540E2,1.073779106E0,1.017547846E0,1.027119160E1
4.385278540E2,9.349954724E-1,1.502692580E0,9.336793900E0
4.390278540E2,1.438684583E0,8.051848412E-1,8.593224525E0
4.395278540E2,1.610967875E0,1.591825247E0,1.085743237E1
4.400278540E2,7.704889178E-1,8.327022791E-1,9.309874535E0
4.405278540E2,1.143769264E0,1.394417405E0,9.275776863E0
4.410278540E2,1.092323542E0,4.414757788E-1,1.017308521E1
4.415278540E2,1.037288666E0,8.883354068E-1,9.510871887E0
4.420278540E2,1.140778184E0,-6.400800496E-2,1.035613632E1
4.425278540E2,7.537391037E-2,1.280160099E-1,8.694320679E0
4.430278540E2,9.571290575E-3,-8.255238086E-2,8.301300049E0
4.435278540E2,5.144568533E-2,5.563312769E-2,8.601000786E0
4.440278540E2,2.566302419E-1,2.931207716E-1,9.220144272E0
4.445278540E2,6.430711150E-1,4.965106845E-1,9.740582466E0
4.450278540E2,1.397408366E0,8.961120844E-1,1.052483082E1
4.455278540E2,6.819544733E-2,5.264210105E-1,8.623732567E0
4.460278540E2,7.142575383E-1,7.674978375E-1,9.083154678E0
4.465278540E2,9.391828775E-1,8.554341197E-1,9.335597992E0
4.470278540E2,1.447059512E0,1.235892892E0,9.275776863E0
4.475278540E2,1.046859860E0,1.412961721E0,1.017308521E1
4.480278540E2,1.819741607E0,1.627119422E0,1.060140038E1
4.485278540E2,8.985049129E-1,9.601200819E-1,9.907482147E0
4.490278540E2,5.024927258E-1,7.405785918E-1,8.879166603E0
4.495278540E2,6.305087805E-1,8.482556343E-1,8.801998138E0
4.500278540E2,1.380060434E0,1.587637782E0,9.172885895E0
4.505278540E2,6.735795736E-1,8.356932998E-1,9.337990761E0
4.510278540E2,6.221338734E-2,3.846462369E-1,9.544371605E0
4.515278540E2,9.649057388E-1,8.841479421E-1,1.000498962E1
4.520278540E2,2.260619164E0,1.587637782E0,1.051047325E1
4.525278540E2,2.648256540E0,1.374676585E0,9.220144272E0
4.530278540E2,1.984846354E0,8.344969153E-1,9.201001167E0
4.535278540E2,3.241078377E0,1.546959877E0,9.193224907E0
4.540278540E2,1.073180914E0,1.141974568E0,8.635098457E0
4.545278540E2,-1.555334684E-2,1.475773335E0,1.135454178E1
4.550278540E2,-8.721838593E-1,1.646261930E0,8.794819832E0
4.555278540E2,-1.311266780E0,1.339980721E0,1.029751205E1
4.560278540E2,-6.221339107E-1,1.133001566E0,9.784850121E0
4.565278540E2,3.074777126E-1,1.634896040E0,9.210572243E0
4.570278540E2,2.057827473E0,1.705484390E0,1.083589745E1
4.575278540E2,1.998605132E0,1.628315806E0,8.831310272E0
4.580278540E2,2.857030153E0,2.558525562E0,1.007976532E1
4.585278540E2,1.631905079E0,1.719243050E0,9.001798630E0
4.590278540E2,1.949552298E0,1.970489502E0,9.592227936E0
4.595278540E2,2.227119684E0,2.343769789E0,9.466006279E0
4.600278540E2,2.078166485E0,1.965105653E0,9.837491989E0
4.605278540E2,1.319641709E0,1.724028707E0,8.782855988E0
4.610278540E2,2.057827473E0,2.070987940E0,1.000558758E1
4.615278540E2,1.083350420E0,1.217348576E0,9.458230019E0
4.620278540E2,2.092523336E0,2.005185366E0,9.864411354E0
4.625278540E2,1.942971945E0,2.040479422E0,9.596415520E0
4.630278540E2,1.019342422E0,1.362114310E0,1.034058285E1
4.635278540E2,1.416550994E0,1.372283816E0,8.982656479E0
4.640278540E2,1.168893814E0,1.307677627E0,9.862018585E0
4.645278540E2,1.619342685E0,1.688136339E0,9.373882294E0
4.650278540E2,1.512263894E0,1.808973908E0,8.678169250E0
4.655278540E2,2.373680115E0,1.574477315E0,9.967302322E0
4.660278540E2,1.869990945E0,1.140179992E0,9.229715347E0
4.665278540E2,2.395813704E0,1.360319614E0,9.535996437E0
4.670278540E2,1.831705689E0,1.939980984E0,9.767501831E0
4.675278540E2,1.180858016E0,1.250249863E0,9.580862045E0
4.680278540E2,2.247458696E0,1.776670814E0,9.802198410E0
4.685278540E2,1.778465390E0,1.198205948E0,9.049654961E0
4.690278540E2,3.080160856E0,1.849053741E0,9.798010826E0
4.695278540E2,1.645065546E0,4.271188378E-1,9.416355133E0
4.700278540E2,2.812762976E0,5.282155871E-1,9.790233612E0
4.705278540E2,2.123031855E0,-6.041877344E-2,1.004028416E1
4.710278540E2,2.300100803E0,6.819544733E-2,9.504291534E0
4.715278540E2,1.706680775E0,-1.788634956E-1,9.636494637E0
4.720278540E2,1.317248821E0,3.302095234E-1,7.717451096E0
4.725278540E2,1.073779106E0,-8.853443861E-1,1.016949654E1
4.730278540E2,9.583254457E-1,-2.739782035E-1,7.698308468E0
4.735278540E2,3.265604734E0,5.521438122E-1,1.004865837E1
4.740278540E2,2.863012314E0,5.156532526E-1,9.414560318E0
4.745278540E2,1.887338877E0,-3.415754437E-1,9.513862610E0
4.750278540E2,2.378465652E0,-2.093719877E-2,1.014377308E1
4.755278540E2,8.009973764E-1,1.046261668E0,1.019342422E1
4.760278540E2,1.178465188E-1,1.099501967E0,1.081077290E1
4.765278540E2,2.165504545E-1,1.744965911E0,9.631709099E0
4.770278540E2,5.060819983E-1,1.725823283E0,9.799804688E0
4.775278540E2,7.830511928E-1,1.673779488E0,9.636494637E0
4.780278540E2,6.095715761E-1,1.214357495E0,9.669994354E0
4.785278540E2,1.014556766E0,1.264606714E0,9.646066666E0
4.790278540E2,1.319043517E0,1.531406522E0,9.627521515E0
4.795278540E2,1.374676585E0,1.513460279E0,9.786644936E0
4.800278540E2,1.261615753E0,1.424925923E0,9.810572624E0
4.805278540E2,1.599601984E0,1.738385677E0,9.558130264E0
4.810278540E2,1.491924882E0,1.743769526E0,9.558728218E0
4.815278540E2,1.263410330E0,1.684547186E0,9.412167549E0
4.820278540E2,1.472184181E0,1.676172256E0,9.470791817E0
4.825278540E2,1.505683661E0,1.426122308E0,9.723235130E0
4.830278540E2,1.542174220E0,1.408176184E0,9.828518867E0
4.835278540E2,1.483550072E0,1.438684583E0,9.671789169E0
4.840278540E2,1.499103427E0,1.792822361E0,9.442078590E0
4.845278540E2,1.127617717E0,1.542174220E0,9.467801094E0
4.850278540E2,1.147358418E0,2.196611166E0,1.040279675E1
4.855278540E2,1.556531072E0,2.456830740E0,9.334999084E0
4.860278540E2,1.491326690E0,2.648256540E0,9.425926208E0
4.865278540E2,1.429711580E0,2.596810818E0,9.293723106E0
4.870278540E2,1.470389485E0,2.562114954E0,9.600004196E0
4.875278540E2,1.475773335E0,2.749951363E0,9.160921097E0
4.880278540E2,1.073779106E0,2.935395241E0,9.001798630E0
4.885278540E2,1.609173179E0,3.546163082E0,9.035298347E0
4.890278540E2,1.935195327E0,3.067598581E0,9.361918449E0
4.895278540E2,1.386640668E0,2.435893536E0,9.168100357E0
4.900278540E2,9.637092948E-1,2.860021353E0,9.135796547E0
4.905278540E2,1.499701619E0,2.871387243E0,9.759127617E0
4.910278540E2,1.805384636E0,2.759522676E0,9.405587196E0
4.915278540E2,9.535398483E-1,2.355733871E0,9.534201622E0
4.920278540E2,7.812566161E-1,2.485544443E0,9.034101486E0
4.925278540E2,5.156532526E-1,2.349751949E0,8.129016876E0
4.930278540E2,3.625126183E-1,2.424527645E0,8.427521706E0
4.935278540E2,3.792623878E-1,1.776670814E0,8.775078773E0
4.940278540E2,3.320041299E-1,1.789831281E0,9.270991325E0
4.945278540E2,5.371887088E-1,2.270190477E0,9.898509026E0
4.950278540E2,1.041476011E0,1.645065546E0,1.059541893E1
4.955278540E2,2.644068897E-1,1.983051777E0,9.635298729E0
4.960278540E2,2.739782035E-1,2.271985054E0,8.078168869E0
4.965278540E2,1.275972724E0,1.454836130E0,9.448060036E0
4.970278540E2,1.633101463E0,2.615953445E0,1.006899738E1
4.975278540E2,9.906286001E-1,1.394417405E0,8.930013657E0
4.980278540E2,2.548356056E-1,1.309472203E0,9.308079720E0
4.985278540E2,1.214357495E0,8.309076428E-1,1.086939716E1
4.990278540E2,1.194616675E0,1.398604870E0,9.046664238E0
4.995278540E2,3.601198196E-1,5.347958803E-1,9.394221306E0
5.000278540E2,1.822134495E0,1.484746456E0,9.890133858E0
5.005278540E2,7.256234884E-1,1.257428288E0,8.821140289E0
5.010278540E2,1.576271892E0,1.162911773E0,9.881160736E0
5.015278540E2,1.772483349E0,1.908276081E0,8.413164139E0
5.020278540E2,8.506484628E-1,1.051047325E0,9.604789734E0
5.025278540E2,2.210968018E0,1.735992789E0,1.019701385E1
5.030278540E2,1.553540111E0,1.094716311E0,1.015334511E1
5.035278540E2,2.977867842E0,3.087937593E0,9.202795982E0
5.040278540E2,9.427721500E-1,7.160521746E-1,9.046664238E0
5.045278540E2,8.279166222E-1,1.269392371E0,8.618947029E0
5.050278540E2,1.682752490E0,1.453639746E0,9.496515274E0
5.055278540E2,1.439282775E0,1.060618639E0,9.515059471E0
5.060278540E2,1.912463546E0,8.117650747E-1,9.912267685E0
5.065278540E2,8.787640929E-1,8.009973764E-1,8.694320679E0
5.070278540E2,4.336991012E-1,1.399801224E-1,9.424132347E0
5.075278540E2,7.429714203E-1,3.236292601E-1,9.105288506E0
5.080278540E2,1.115055323E0,3.224328458E-1,1.033400249E1
5.085278540E2,1.872981906E0,1.229910851E0,1.035494041E1
5.090278540E2,2.021337032E0,1.563111424E0,9.390632629E0
5.095278540E2,1.579262912E-1,1.627119333E-1,9.119645119E0
5.100278540E2,8.691928387E-1,8.967102766E-1,9.751948357E0
5.105278540E2,2.245664120E0,1.333400369E0,9.862018585E0
5.110278540E2,7.932206988E-1,8.500502706E-1,8.653642654E0
5.115278540E2,1.480558991E0,9.732806087E-1,1.095254707E1
5.120278540E2,1.887338877E0,1.520638824E0,9.097511292E0
5.125278540E2,1.121037364E0,7.208378315E-1,9.719645500E0
5.130278540E2,2.343769789E0,1.542772412E0,8.984451294E0
5.135278540E2,1.523629785E0,7.770691514E-1,9.503094673E0
5.140278540E2,2.022533417E0,3.080759048E-1,9.396016121E0
5.145278540E2,3.379862070E0,-3.601198196E-1,9.970293999E0
5.150278540E2,3.323032379E0,-6.939185858E-1,9.525228500E0
5.155278540E2,4.332205296E0,9.936196208E-1,9.352347374E0
5.160278540E2,1.597209096E0,-3.397808075E-1,8.620143890E0
5.165278540E2,2.195414782E0,5.730810165E-1,9.900303841E0
5.170278540E2,1.244267747E-1,5.419743061E-1,1.030827999E1
5.175278540E2,7.722834945E-1,2.289333105E0,1.072762203E1
5.180278540E2,4.229314029E-1,1.841277003E0,1.121396351E1
5.185278540E2,-9.840483069E-1,8.297112584E-1,9.348159790E0
5.190278540E2,-6.640082598E-1,2.276770830E0,9.505488396E0
5.195278540E2,7.477571070E-2,1.525424480E0,9.028717995E0
5.200278540E2,2.370688915E0,2.507678032E0,1.078983593E1
5.205278540E2,1.048056364E0,9.122636318E-1,8.688937187E0
5.210278540E2,2.553740025E0,2.022533417E0,9.603593826E0
5.215278540E2,3.080160856E0,2.041675806E0,9.772287369E0
5.220278540E2,2.915654421E0,2.102094650E0,8.804390907E0
5.225278540E2,2.626122952E0,1.411765337E0,9.453444481E0
5.230278540E2,2.073380709E0,2.054836512E0,8.909076691E0
5.235278540E2,2.164308071E0,1.713261008E0,1.011087227E1
5.240278540E2,1.866401672E0,1.888535261E0,9.756733894E0
5.245278540E2,1.412961721E0,1.995614052E0,9.680164337E0
5.250278540E2,2.002194405E0,2.176272154E0,9.784850121E0
5.255278540E2,1.176072359E0,1.970489502E0,8.689535141E0
5.260278540E2,9.589236975E-1,1.073779106E0,9.510273933E0
5.265278540E2,2.029113531E0,2.090130568E0,8.912666321E0
5.270278540E2,1.945963025E0,1.885544300E0,9.528220177E0
5.275278540E2,1.531406522E0,2.130808592E0,8.658429146E0
5.280278540E2,1.437488198E0,1.910668850E0,9.753145218E0
5.285278540E2,2.083550215E0,2.081755638E0,9.751948357E0
5.290278540E2,2.054836512E0,1.467398524E0,1.065165043E1
5.295278540E2,2.283949137E0,1.950748682E0,9.415159225E0
5.300278540E2,1.075573802E0,1.192822099E0,9.194420815E0
5.305278540E2,1.110269666E0,6.903293133E-1,9.669994354E0
5.310278540E2,1.594816327E0,1.204187989E0,1.039262676E1
5.315278540E2,1.344766378E0,1.668395638E0,8.992227554E0
5.320278540E2,2.353341103E0,2.653042078E0,9.489934921E0
5.325278540E2,4.534398913E-1,5.635097623E-1,9.288937569E0
5.330278540E2,2.218744755E0,1.953739643E0,1.073539925E1
5.335278540E2,2.170888424E0,1.486541033E0,9.730413437E0
5.340278540E2,1.951346874E0,1.250848055E0,8.483752251E0
5.345278540E2,1.888535261E0,1.151545882E0,9.170493126E0
5.350278540E2,3.016152859E0,1.597209096E0,9.414560318E0
5.355278540E2,4.208376884E0,1.963909149E0,9.108877182E0
5.360278540E2,3.831507206E0,1.762313843E0,9.458230019E0
5.365278540E2,2.622533560E0,1.403390527E0,9.014959335E0
5.370278540E2,3.418147087E0,2.039881229E0,8.812167168E0
5.375278540E2,1.968096614E0,1.279561877E0,9.168100357E0
5.380278540E2,2.166102648E0,1.247258782E0,9.515657425E0
5.385278540E2,1.946561217E0,1.277767301E0,9.794421196E0
5.390278540E2,2.346760750E0,1.262213945E0,1.007677460E1
5.395278540E2,1.596610904E0,1.375274777E0,9.735198975E0
5.400278540E2,2.059023857E0,1.298106313E0,9.495916367E0
5.405278540E2,1.915454507E0,2.187039852E0,9.571290970E0
5.410278540E2,1.802393675E0,1.640279889E0,9.926624298E0
5.415278540E2,1.241276741E0,1.332203984E0,9.700503349E0
5.420278540E2,1.715055585E0,1.451246977E0,1.007019424E1
5.425278540E2,1.941177368E0,1.520638824E0,9.515059471E0
5.430278540E2,1.356132269E0,1.423131227E0,9.798010826E0
5.435278540E2,1.078564763E0,1.151545882E0,9.970293999E0
5.440278540E2,1.747956991E0,1.366899967E0,9.661021233E0
5.445278540E2,1.695913076E0,1.625923038E0,9.227920532E0
5.450278540E2,2.153540373E0,1.497906923E0,9.955936432E0
5.455278540E2,2.032104731E0,1.824527264E0,8.979066849E0
5.460278540E2,1.453639746E0,1.585245013E0,1.034536839E1
5.465278540E2,1.411765337E0,1.319043517E0,9.657432556E0
5.470278540E2,1.955534339E0,1.779063582E0,9.232706070E0
5.475278540E2,1.394417405E0,8.823533654E-1,9.102297783E0
5.480278540E2,1.563709617E0,1.472782373E0,9.383454323E0
5.485278540E2,6.586244106E-1,9.218349457E-1,9.570094109E0
5.490278540E2,1.664208174E0,1.378265858E0,1.014556789E1
5.495278540E2,8.470591903E-1,7.322037220E-1,9.572486877E0
5.500278540E2,1.743769526E0,1.691127419E0,9.482157707E0
5.505278540E2,7.621139884E-1,8.614161611E-1,9.828518867E0
5.510278540E2,1.456032634E0,1.202393413E0,9.395418167E0
5.515278540E2,2.175673962E0,1.618744493E0,9.516854286E0
5.520278540E2,9.984052777E-1,5.186443329E-1,9.172286987E0
5.525278540E2,1.769492388E0,1.295115232E0,9.620942116E0
5.530278540E2,2.228316069E0,1.765903115E0,1.081256771E1
5.535278540E2,1.066002488E0,4.372883439E-1,9.840482712E0
5.540278540E2,1.491326690E0,8.231309652E-1,9.804591179E0
5.545278540E2,1.164706469E0,1.174277663E0,9.567701340E0
5.550278540E2,1.231107235E0,6.257231236E-1,8.628518105E0
5.555278540E2,9.062815905E-1,9.984052777E-1,1.080897808E1
5.560278540E2,1.802991867E0,1.281356573E0,9.431310654E0
5.565278540E2,1.917847395E0,1.170688510E0,9.787840843E0
5.570278540E2,1.427318692E0,8.835497499E-1,9.150154114E0
5.575278540E2,1.888535261E0,1.351346612E0,1.014377308E1
5.580278540E2,4.564309120E-1,2.267199457E-1,9.135796547E0
5.585278540E2,1.355534077E0,8.919246197E-1,9.725627899E0
5.590278540E2,2.236690998E0,1.671984792E0,1.102253723E1
5.595278540E2,1.896910191E0,1.010967612E0,8.827720642E0
5.600278540E2,2.202593327E0,1.441675663E0,9.479166985E0
5.605278540E2,1.223928809E0,1.006780148E0,1.010907745E1
5.610278540E2,7.722834945E-1,4.462614357E-1,8.952746391E0
5.615278540E2,2.305484533E0,1.838884234E0,9.616155624E0
5.620278540E2,1.880758643E0,1.309472203E0,1.051765156E1
5.625278540E2,1.204187989E0,5.485545993E-1,9.229715347E0
5.630278540E2,2.534597397E0,1.557129383E0,1.018026352E1
5.635278540E2,1.767099500E0,1.274178028E0,9.370293617E0
5.640278540E2,9.732806087E-1,6.305087805E-1,9.303294182E0
5.645278540E2,1.796411633E0,1.372283816E0,8.960522652E0
5.650278540E2,1.514058471E0,8.518448472E-1,9.536594391E0
5.655278540E2,1.426122308E0,9.176474810E-1,8.968298912E0
5.660278540E2,1.356132269E0,1.082752228E0,8.962317467E0
5.665278540E2,2.121835470E0,1.332203984E0,9.163313866E0
5.670278540E2,9.601200819E-1,9.200403094E-1,9.052646637E0
5.675278540E2,1.347757339E0,1.016351461E0,1.005643559E1
5.680278540E2,3.224328458E-1,2.727817893E-1,9.863214493E0
5.685278540E2,1.470389485E0,1.164108157E0,1.027178955E1
5.690278540E2,2.246262312E0,1.376471281E0,9.831509590E0
5.695278540E2,5.425725579E-1,2.548356056E-1,9.137591362E0
5.700278540E2,1.274178028E0,8.021938205E-1,1.068036366E1
5.705278540E2,1.548754454E0,1.213759303E0,9.799206734E0
5.710278540E2,1.552343726E0,9.888339639E-1,9.574879646E0
5.715278540E2,1.917249203E0,1.190429211E0,8.945567131E0
5.720278540E2,2.706880569E0,1.764108539E0,1.019222832E1
5.725278540E2,1.083350420E0,7.597211599E-1,8.832506180E0
5.730278540E2,2.107478619E0,1.301695466E0,1.015813065E1
5.735278540E2,1.795813441E0,1.396211982E0,1.019043350E1
5.740278540E2,1.746760488E0,1.247856975E0,1.010249710E1
5.745278540E2,1.558325768E0,1.003190875E0,9.689735413E0
5.750278540E2,4.737788737E-1,2.967100143E-1,8.349754333E0
5.755278540E2,1.155135155E0,7.190431952E-1,9.199805260E0
5.760278540E2,1.427318692E0,1.070189953E0,9.696913719E0
5.765278540E2,1.664208174E0,9.840483069E-1,9.614361763E0
5.770278540E2,1.102493048E0,8.213363886E-1,8.782855988E0
5.775278540E2,1.065404296E0,1.089930773E0,9.448657990E0
5.780278540E2,9.762716293E-1,8.231309652E-1,8.923434258E0
5.785278540E2,1.372283816E0,1.073779106E0,9.689137459E0
5.790278540E2,2.063809633E0,1.411765337E0,1.000080204E1
5.795278540E2,1.501496196E0,7.016952634E-1,9.903294563E0
5.800278540E2,1.590030670E0,1.089930773E0,8.900103569E0
5.805278540E2,1.523031592E0,7.238288522E-1,9.906285286E0
5.810278540E2,1.044467092E0,8.823533654E-1,9.504291534E0
5.815278540E2,1.030110121E0,8.452646136E-1,9.075378418E0
5.820278540E2,1.279561877E0,1.022333503E0,1.003908730E1
5.825278540E2,1.544566989E0,1.095912814E0,9.437292099E0
5.830278540E2,1.660618901E0,1.194616675E0,9.220742226E0
5.835278540E2,1.041476011E0,7.830511928E-1,9.169296265E0
5.840278540E2,1.374676585E0,5.395814776E-1,9.038887978E0
5.845278540E2,1.668395638E0,1.257428288E0,9.620942116E0
5.850278540E2,1.908276081E0,1.022333503E0,1.083350468E1
5.855278540E2,1.815554142E0,1.263410330E0,9.070592880E0
5.860278540E2,1.526620865E0,1.307677627E0,9.080163956E0
5.865278540E2,1.406979680E0,7.944171429E-1,9.284152031E0
5.870278540E2,1.308275819E0,7.782655358E-1,9.390632629E0
5.875278540E2,2.094916344E0,1.188634634E0,1.037348461E1
5.880278540E2,1.716252089E0,5.754738450E-1,1.016171932E1
5.885278540E2,3.018545866E0,1.336391449E0,9.334999084E0
5.890278540E2,2.810370207E0,7.292127013E-1,1.033819008E1
5.895278540E2,2.608176708E0,9.583254457E-1,8.922237396E0
5.900278540E2,1.871187329E0,5.587241054E-1,8.455039024E0
5.905278540E2,2.587837696E0,1.041476011E0,1.009890842E1
5.910278540E2,1.949552298E0,1.422533035E0,8.333004951E0
5.915278540E2,1.591825247E0,5.982056726E-3,1.041655540E1
5.920278540E2,1.553540111E0,1.836491376E-1,8.743373871E0
5.925278540E2,1.944168448E0,6.137589812E-1,9.873982430E0
5.930278540E2,1.527817249E0,9.224331379E-1,9.498309135E0
5.935278540E2,1.863410592E0,8.434699774E-1,9.297312737E0
5.940278540E2,1.484746456E0,7.525427341E-1,9.863214493E0
5.945278540E2,1.330409408E0,6.652047038E-1,9.218349457E0
5.950278540E2,1.479960799E0,8.883354068E-1,9.004789352E0
5.955278540E2,2.118844509E0,8.243274093E-1,1.060798073E1
5.960278540E2,1.557129383E0,7.627122402E-1,8.794819832E0
5.965278540E2,1.556531072E0,5.754738450E-1,1.031007481E1
5.970278540E2,2.642872572E0,1.501496196E0,1.005165005E1
5.975278540E2,1.046261668E0,3.954139352E-1,8.843872070E0
5.980278540E2,1.638485312E0,9.343972206E-1,9.416953087E0
5.985278540E2,8.386843204E-1,5.682953596E-1,8.934800148E0
5.990278540E2,2.959323406E0,1.193420291E0,1.002293587E1
5.995278540E2,2.026122570E0,7.657032609E-1,1.041715336E1
6.000278540E2,1.690529227E0,8.458628058E-1,9.486943245E0
6.005278540E2,1.296909928E0,6.257231236E-1,9.518648148E0
6.010278540E2,1.593619823E0,9.493523836E-1,8.928219795E0
6.015278540E2,1.085145116E0,6.556333899E-1,9.068798065E0
6.020278540E2,1.106680512E0,6.777670383E-1,9.210572243E0
6.025278540E2,1.360319614E0,8.458628058E-1,8.781659126E0
6.030278540E2,1.835893154E0,6.269195080E-1,9.673583984E0
6.035278540E2,1.238285661E0,4.797609448E-1,9.936196327E0
6.040278540E2,1.530210137E0,7.980063558E-1,8.970093727E0
6.045278540E2,1.389631748E0,8.793623447E-1,9.545567513E0
6.050278540E2,8.985049129E-1,3.026920557E-1,9.247661591E0
6.055278540E2,2.348555326E0,1.140179992E0,1.002473068E1
6.060278540E2,1.494915962E0,7.591229677E-1,1.043629551E1
6.065278540E2,7.082754970E-1,5.186443329E-1,9.081359863E0
6.070278540E2,1.378265858E0,8.117650747E-1,8.876175880E0
6.075278540E2,1.257428288E0,6.137589812E-1,9.081958771E0
6.080278540E2,2.371885538E0,1.129412293E0,8.976076126E0
6.085278540E2,1.134197950E0,6.448656917E-1,8.974281311E0
6.090278540E2,1.225125194E0,5.712863803E-1,9.225527763E0
6.095278540E2,8.440681696E-1,2.536391914E-1,9.027522087E0
6.100278540E2,1.150349498E0,2.997010350E-1,9.625727654E0
6.105278540E2,1.799402595E0,9.445667267E-1,1.064327526E1
6.110278540E2,1.735992789E0,8.614161611E-1,9.845269203E0
6.115278540E2,1.218544960E0,6.448656917E-1,9.220742226E0
6.120278540E2,8.841479421E-1,5.581258535E-1,8.806783676E0
6.125278540E2,7.579265833E-1,4.115654826E-1,9.497711182E0
6.130278540E2,1.446461320E0,1.319641709E0,9.072386742E0
6.135278540E2,1.346560955E0,5.521438122E-1,1.026640511E1
6.140278540E2,2.161317110E0,1.260419369E0,1.041655540E1
6.145278540E2,2.290529490E0,1.774278045E0,9.632308006E0
6.150278540E2,1.903490424E0,1.218544960E0,9.908080101E0
6.155278540E2,2.193022013E0,1.451845169E0,1.100518990E1
6.160278540E2,2.231307030E0,1.417747378E0,9.652647018E0
6.165278540E2,1.671386600E0,1.570888042E0,8.024331093E0
6.170278540E2,2.070389748E0,1.459621787E0,1.043091202E1
6.175278540E2,2.673979282E0,1.920838356E0,9.291928291E0
6.180278540E2,1.881955028E0,1.744965911E0,9.961918831E0
6.185278540E2,2.289333105E0,1.945963025E0,9.518648148E0
6.190278540E2,1.761117458E0,1.714457393E0,9.185447693E0
6.195278540E2,1.920838356E0,1.915454507E0,9.836296082E0
6.200278540E2,1.144965649E0,1.509272933E0,9.480362892E0
6.205278540E2,1.151545882E0,1.520040631E0,8.993423462E0
6.210278540E2,6.664010882E-1,9.505487680E-1,1.004028416E1
6.215278540E2,1.759921074E0,1.199402332E0,1.025384331E1
6.220278540E2,1.037288666E0,1.674975902E-1,9.992427826E0
6.225278540E2,7.022934556E-1,4.606183469E-1,9.994221687E0
6.230278540E2,2.360519648E0,1.355534077E0,1.023290634E1
6.235278540E2,7.112665176E-1,-4.289134443E-1,1.122233772E1
6.240278540E2,1.673181176E0,-2.273181453E-2,1.103689480E1
6.245278540E2,1.528415442E0,8.279166222E-1,9.121439934E0
6.250278540E2,1.510469317E0,9.475577474E-1,9.411569595E0
6.255278540E2,1.241276741E0,6.329016089E-1,9.582656860E0
6.260278540E2,1.252044439E0,7.513462901E-1,1.030827999E1
6.265278540E2,1.262213945E0,4.199403822E-1,1.012941647E1
6.270278540E2,8.171489239E-1,1.016949639E-1,9.134600639E0
6.275278540E2,1.213759303E0,4.462614357E-1,9.535996437E0
6.280278540E2,1.357328653E0,6.239284873E-1,8.732605934E0
6.285278540E2,7.334001660E-1,2.428714931E-1,9.043074608E0
6.290278540E2,1.695314884E0,9.415757060E-1,8.947959900E0
6.295278540E2,1.529611826E0,2.793620527E-1,1.056490993E1
6.300278540E2,1.810768485E0,1.198205948E0,9.922437668E0
6.305278540E2,2.676970243E0,1.671984792E0,1.023948669E1
6.310278540E2,1.620539188E0,-1.351944804E-1,9.252447128E0
6.315278540E2,1.261615753E0,-2.117647976E-1,9.975079536E0
6.320278540E2,1.944766641E0,2.309073806E-1,9.467203140E0
6.325278540E2,2.252842426E0,-1.052841991E-1,1.034357452E1
6.330278540E2,9.152546525E-1,-5.539384484E-1,9.527023315E0
6.335278540E2,2.536391973E0,7.034898400E-1,1.093998528E1
6.340278540E2,2.882154942E0,5.539384484E-1,9.683155060E0
6.345278540E2,1.842473388E0,5.742774606E-1,8.918647766E0
6.350278540E2,1.159322619E0,-1.531406492E-1,1.007976532E1
6.355278540E2,1.719841242E0,1.375873089E-1,9.274580956E0
6.360278540E2,1.738983870E0,2.458625287E-1,9.979267120E0
6.365278540E2,1.869990945E0,5.665007830E-1,9.917053223E0
6.370278540E2,2.428116798E0,1.228116274E0,9.763913155E0
6.375278540E2,8.673982024E-1,-2.380858511E-1,9.218349457E0
6.380278540E2,2.660818815E0,1.070189953E0,1.033579731E1
6.385278540E2,1.791625977E0,2.297109663E-1,1.024905777E1
6.390278540E2,1.131206870E0,2.835494876E-1,9.693922997E0
6.395278540E2,1.914258122E0,-2.141576260E-1,1.027478027E1
6.400278540E2,8.003991842E-1,-7.094719410E-1,9.148359299E0
6.405278540E2,1.966900229E0,1.160518974E-1,9.391230583E0
6.410278540E2,2.075175524E0,-8.027920127E-1,9.998409271E0
6.415278540E2,1.393819213E0,-9.984052777E-1,9.976874352E0
6.420278540E2,1.957328916E0,2.153540403E-1,1.001156998E1
6.425278540E2,2.019542217E0,6.819544733E-2,9.299705505E0
6.430278540E2,1.464407444E0,-4.462614357E-1,9.550353050E0
6.435278540E2,1.783251047E0,-5.647061467E-1,9.700503349E0
6.440278540E2,2.053041935E0,-4.127619043E-2,9.780064583E0
6.445278540E2,2.873181820E0,2.745763958E-1,9.574281693E0
6.450278540E2,2.335394859E0,5.324030519E-1,9.836296082E0
6.455278540E2,2.370090723E0,8.769695163E-1,9.560523033E0
6.460278540E2,2.386840582E0,1.510469317E0,9.330213547E0
6.465278540E2,2.523231506E0,1.684547186E0,9.341579437E0
6.470278540E2,2.944966555E0,1.700100541E0,9.472586632E0
6.475278540E2,3.225524902E0,1.676770449E0,9.048459053E0
6.480278540E2,3.578466177E0,1.793420553E0,8.631509781E0
6.485278540E2,4.466801643E0,5.647061467E-1,8.714659691E0
6.490278540E2,5.155934811E0,1.043270707E0,8.376075745E0
6.495278540E2,5.500501156E0,1.448854089E0,8.301300049E0
6.500278540E2,5.375475883E0,1.912463546E0,9.126225471E0
6.505278540E2,5.255835056E0,2.293520451E0,9.151350021E0
6.510278540E2,3.705285788E0,1.734198213E0,9.372088432E0
6.515278540E2,4.078566074E0,1.200000525E0,9.019146919E0
6.520278540E2,2.225325108E0,1.031904817E0,1.049791145E1
6.525278540E2,2.456830740E0,1.448854089E0,9.025727272E0
6.530278540E2,2.525624275E0,1.078564763E0,9.491728783E0
6.535278540E2,2.825325251E0,1.576271892E0,8.110472679E0
6.540278540E2,2.853441000E0,1.205982566E0,9.993623734E0
6.545278540E2,3.581457376E0,6.424728632E-1,9.406784058E0
6.550278540E2,2.664407969E0,2.219343036E-1,9.924231529E0
6.555278540E2,1.892124534E0,2.392822653E-1,9.110671997E0
6.560278540E2,2.121237278E0,3.050848842E-1,9.211171150E0
6.565278540E2,2.444268227E0,1.686939895E-1,9.460023880E0
6.570278540E2,2.471187592E0,1.549352705E-1,1.072463131E1
6.575278540E2,2.214557409E0,5.132604837E-1,7.789236069E0
6.580278540E2,3.257827997E0,1.501496136E-1,1.101356411E1
6.585278540E2,2.688336134E0,4.049852192E-1,9.319445610E0
6.590278540E2,2.659622431E0,6.927221417E-1,8.444869041E0
6.595278540E2,2.126621008E0,2.458625287E-1,9.741779327E0
6.600278540E2,1.963310957E0,-3.768695593E-1,9.844072342E0
6.605278540E2,2.150549412E0,1.926222295E-1,9.729216576E0
6.610278540E2,2.477767944E0,3.619144261E-1,9.116654396E0
6.615278540E2,3.195614576E0,-3.170489967E-1,1.081914711E1
6.620278540E2,2.897109985E0,-6.520441920E-2,9.314660072E0
6.625278540E2,1.735992789E0,-5.168496966E-1,9.542576790E0
6.630278540E2,1.515254974E0,-2.093719840E-1,7.617550850E0
6.635278540E2,1.389033556E0,1.615155339E-1,9.069993973E0
6.640278540E2,1.264606714E0,-8.973085135E-2,1.009412193E1
6.645278540E2,1.223330617E0,-5.742774159E-2,1.076949692E1
6.650278540E2,3.864408433E-1,-1.902294010E-1,1.037827015E1
6.655278540E2,5.006981492E-1,4.319044948E-1,1.132403278E1
6.660278540E2,3.990031779E-1,7.501499057E-1,9.190233231E0
6.665278540E2,1.575673699E0,2.979064286E-1,1.183490086E1
6.670278540E2,1.259821177E0,7.052844763E-1,9.713663101E0
6.675278540E2,1.755135417E0,4.289134443E-1,1.099741268E1
6.680278540E2,-6.652047038E-1,1.298106313E0,9.068798065E0
6.685278540E2,6.352944374E-1,5.706881881E-1,9.504291534E0
6.690278540E2,1.151545882E0,9.140582681E-1,9.319445610E0
6.695278540E2,1.028913736E0,6.616154313E-1,9.908080101E0
6.700278540E2,8.075776696E-1,5.838487148E-1,8.949156761E0
6.705278540E2,1.750349760E0,4.803591371E-1,1.197547913E1
6.710278540E2,2.249253273E0,1.016351461E0,1.041715336E1
6.715278540E2,1.459621787E0,8.739784956E-1,1.097049332E1
6.720278540E2,1.846062660E0,1.054636598E0,9.335597992E0
6.725278540E2,1.247258782E0,9.152546525E-1,9.938589096E0
6.730278540E2,1.885544300E0,9.535398483E-1,9.598209381E0
6.735278540E2,2.394019127E0,1.302891970E0,9.281160355E0
6.740278540E2,2.531606436E0,8.105686903E-1,1.076949692E1
6.745278540E2,2.396411896E0,6.478567123E-1,9.297312737E0
6.750278540E2,1.917249203E0,3.002992272E-1,9.536594391E0
6.755278540E2,2.429911375E0,4.163511395E-1,9.206384659E0
6.760278540E2,2.783450842E0,2.853440940E-1,1.027777100E1
6.765278540E2,2.298904419E0,5.635097623E-1,8.511868477E0
6.770278540E2,2.700898647E0,4.660021961E-1,9.633503914E0
6.775278540E2,2.334198475E0,1.555334684E-2,9.527023315E0
6.780278540E2,2.410768747E0,4.516452849E-1,8.531609535E0
6.785278540E2,1.343569875E0,-1.597209126E-1,9.247062683E0
6.790278540E2,3.241078377E0,2.261217386E-1,1.061336517E1
6.795278540E2,3.084946632E0,8.434699774E-1,9.426525116E0
6.800278540E2,1.275972724E0,1.387837082E-1,8.344968796E0
6.805278540E2,2.848655462E0,1.049252748E0,9.942776680E0
6.810278540E2,2.341975212E0,4.719842672E-1,1.055115128E1
6.815278540E2,2.358126640E0,4.755735099E-1,1.015992451E1
6.820278540E2,3.059821844E0,1.576271892E0,9.661021233E0
6.825278540E2,1.523031592E0,5.946164131E-1,8.696713448E0
6.830278540E2,3.622733593E0,1.513460279E0,1.021137047E1
6.835278540E2,2.444268227E0,8.673982024E-1,9.055637360E0
6.840278540E2,2.133201361E0,9.678967595E-1,1.044048309E1
6.845278540E2,2.467598438E0,1.180259824E0,9.426525116E0
6.850278540E2,2.218744755E0,1.630110383E0,8.634500504E0
6.855278540E2,2.279163599E0,1.027717352E0,9.606584549E0
6.860278540E2,1.886740685E0,8.009973764E-1,9.805787086E0
6.865278540E2,2.686541557E0,1.622333765E0,8.557929993E0
6.870278540E2,2.347957134E0,1.159920812E0,9.233304024E0
6.875278540E2,2.686541557E0,1.490130305E0,8.628518105E0
6.880278540E2,1.764706731E0,9.170492887E-1,9.460023880E0
6.885278540E2,1.990828395E0,7.453642488E-1,1.029093170E1
6.890278540E2,2.757728100E0,1.556531072E0,1.031785107E1
6.895278540E2,1.929811478E0,1.202393413E0,9.430712700E0
6.900278540E2,2.871387243E0,1.204187989E0,1.062293625E1
6.905278540E2,2.758326292E0,9.840483069E-1,1.069472122E1
6.910278540E2,2.316252232E0,4.001995921E-1,1.006540871E1
6.915278540E2,2.178664923E0,3.379862010E-1,9.955936432E0
6.920278540E2,1.658824325E0,2.327020019E-1,8.961718559E0
6.925278540E2,1.945963025E0,-1.423729509E-1,9.985847473E0
6.930278540E2,2.951546669E0,6.999006122E-2,1.096271706E1
6.935278540E2,2.806182861E0,2.009970993E-1,1.056969547E1
6.940278540E2,3.793222189E0,1.137787223E0,9.987641335E0
6.945278540E2,2.817548752E0,1.104287624E0,8.913862228E0
6.950278540E2,1.466202021E0,6.640082598E-1,8.612964630E0
6.955278540E2,3.661018610E0,1.061216831E0,1.124447155E1
6.960278540E2,1.360917926E0,-2.901297510E-1,9.519845009E0
6.965278540E2,3.975674868E0,7.627122402E-1,1.134855938E1
6.970278540E2,2.946162939E0,2.949153781E-1,1.051226807E1
6.975278540E2,3.918246984E0,6.556333899E-1,1.047458076E1
6.980278540E2,4.019941807E0,6.239284873E-1,9.105288506E0
6.985278540E2,2.616551638E0,-7.776673883E-2,9.510871887E0
6.990278540E2,3.600001574E0,7.501499057E-1,8.389236450E0
6.995278540E2,4.165306091E0,3.942175210E-1,9.851848602E0
7.000278540E2,2.897109985E0,3.511467278E-1,1.051884842E1
7.005278540E2,2.226521492E0,2.620140910E-1,1.055832958E1
7.010278540E2,1.622333765E0,1.006181955E0,9.060422897E0
7.015278540E2,1.360319614E0,6.317051649E-1,8.622536659E0
7.020278540E2,2.126621008E0,9.714859724E-1,9.526425362E0
7.025278540E2,1.266999602E0,5.772684813E-1,8.574680328E0
7.030278540E2,2.223530531E0,1.426122308E0,8.928817749E0
7.035278540E2,2.705085993E0,4.007977992E-2,1.137846947E1
7.040278540E2,8.650053740E-1,-2.009970993E-1,7.909475327E0
7.045278540E2,1.630110383E0,4.612165689E-1,9.132207870E0
7.050278540E2,3.062813044E0,1.113260746E0,9.791430473E0
7.055278540E2,2.104487419E0,4.947160780E-1,9.926624298E0
7.060278540E2,2.670390129E0,3.469592705E-2,1.225125217E1
7.065278540E2,1.901097536E0,2.267199457E-1,9.238089561E0
7.070278540E2,1.200000525E0,4.965107143E-2,9.167501450E0
7.075278540E2,3.111865759E0,8.775677085E-1,1.108475113E1
7.080278540E2,2.807977438E0,9.906286001E-1,9.630513191E0
7.085278540E2,3.357728481E0,1.231705427E0,1.137547874E1
7.090278540E2,2.619542599E0,1.530210137E0,8.839086533E0
7.095278540E2,2.420340061E0,1.292124271E0,8.499305725E0
7.100278540E2,2.009970903E0,3.176472187E-1,7.984251022E0
7.105278540E2,3.906881094E0,5.563312769E-1,8.072187424E0
7.110278540E2,3.688536167E0,5.730810165E-1,8.639286041E0
7.115278540E2,5.315057278E0,1.100698471E0,9.391230583E0
7.120278540E2,5.665007591E0,1.024128079E0,9.337990761E0
7.125278540E2,5.267200947E0,1.149751306E0,9.029315948E0
7.130278540E2,4.603790760E0,3.810569942E-1,9.700503349E0
7.135278540E2,4.299304008E0,4.612165689E-1,7.895118237E0
7.140278540E2,4.289732933E0,3.768695593E-1,8.432307243E0
7.145278540E2,4.056432724E0,-4.127619043E-2,9.062217712E0
7.150278540E2,4.037290096E0,5.599204898E-1,9.020941734E0
7.155278540E2,2.583052158E0,2.105683982E-1,8.849854469E0
7.160278540E2,2.360519648E0,3.122633696E-1,8.578866959E0
7.165278540E2,2.522035122E0,5.742774159E-2,9.713065147E0
7.170278540E2,2.421536446E0,-3.170489967E-1,1.120439243E1
7.175278540E2,2.909672260E0,5.300102234E-1,9.957731247E0
7.180278540E2,2.534597397E0,5.395814776E-1,8.879166603E0
7.185278540E2,1.665404558E0,5.934200287E-1,7.931608677E0
7.190278540E2,1.630708575E0,-5.054838061E-1,1.043091202E1
7.195278540E2,2.600399971E0,3.385843933E-1,9.440283775E0
7.200278540E2,1.406979680E0,-1.770688742E-1,9.475577354E0
7.205278540E2,2.032104731E0,1.049850941E0,9.046066284E0
7.210278540E2,1.397408366E0,-2.919243574E-1,1.008933640E1
7.215278540E2,2.434697151E0,1.794616925E-3,1.160818100E1
7.220278540E2,2.349751949E0,5.934200287E-1,9.150154114E0
7.225278540E2,2.512463808E0,1.003789067E0,8.494520187E0
7.230278540E2,2.939582586E0,7.022934556E-1,9.610772133E0
7.235278540E2,3.169293642E0,1.357328653E0,1.021376324E1
7.240278540E2,2.921038151E0,7.962117195E-1,1.001456070E1
7.245278540E2,1.271785259E0,-3.529413342E-1,9.300303459E0
7.250278540E2,1.094118118E0,-1.663011760E-1,9.717850685E0
7.255278540E2,2.011167526E0,-3.014956415E-1,1.086640549E1
7.260278540E2,2.075175524E0,-3.098705411E-1,1.037168980E1
7.265278540E2,3.464807272E0,9.678967595E-1,1.117627621E1
7.270278540E2,3.504288673E0,1.398604870E0,9.501300812E0
7.275278540E2,2.340180635E0,1.313061476E0,9.064012527E0
7.280278540E2,1.322034478E0,7.148557901E-1,9.533005714E0
7.285278540E2,6.041877270E-1,1.339980662E-1,1.128814125E1
7.290278540E2,-6.580262631E-2,2.135594189E-1,9.912267685E0
7.295278540E2,4.372883439E-1,3.074777126E-1,1.089811039E1
7.300278540E2,-4.510470629E-1,5.473581553E-1,9.338588715E0
7.305278540E2,5.024927258E-1,2.596212626E-1,1.205862999E1
7.310278540E2,4.354937077E-1,4.863412082E-1,1.160219860E1
7.315278540E2,3.732803464E-1,1.402194023E0,1.010728264E1
7.320278540E2,2.757728100E-1,1.219143152E0,1.028734303E1
7.325278540E2,1.517049551E0,1.920240164E0,1.112004471E1
7.330278540E2,8.727820516E-1,1.231705427E0,8.689535141E0
7.335278540E2,1.773679733E0,9.236295223E-1,1.006421185E1
7.340278540E2,5.294120312E-1,1.012762189E0,9.303294182E0
7.345278540E2,1.037288666E0,2.233700037E0,7.915457249E0
7.350278540E2,5.724828243E-1,1.355534077E0,9.368498802E0
7.355278540E2,1.152144074E0,2.515454769E0,9.369096756E0
7.360278540E2,2.587837696E0,2.273181438E0,1.110748291E1
7.365278540E2,2.666800737E0,1.457827210E0,9.482157707E0
7.370278540E2,3.619144201E0,1.172483087E0,1.033998489E1
7.375278540E2,2.330609322E0,4.815555513E-1,1.003430176E1
7.380278540E2,2.770888567E0,1.153340459E0,9.218947411E0
7.385278540E2,2.697907448E0,2.362912297E-1,1.084786129E1
7.390278540E2,1.456032634E0,2.069791555E-1,9.038289070E0
7.395278540E2,2.679961443E0,8.386843204E-1,9.644271851E0
7.400278540E2,2.324627161E0,7.004988194E-1,9.274580956E0
7.405278540E2,2.529811859E0,2.021935135E-1,9.924231529E0
7.410278540E2,2.471187592E0,3.942175210E-1,9.723235130E0
7.415278540E2,2.756531715E0,9.248259664E-1,9.395418167E0
7.420278540E2,2.251047850E0,5.856433511E-1,8.764310837E0
7.425278540E2,2.654836655E0,3.170489967E-1,1.015035343E1
7.430278540E2,2.895315409E0,6.616154313E-1,9.775876999E0
7.435278540E2,2.600399971E0,9.092725813E-2,1.113021469E1
7.440278540E2,2.434697151E0,9.044869542E-1,8.846863747E0
7.445278540E2,1.561316729E0,2.380858511E-1,8.840881348E0
7.450278540E2,1.585245013E0,-8.075776696E-1,9.969695091E0
7.455278540E2,3.212364435E0,-4.426721856E-2,1.021735287E1
7.460278540E2,2.962314367E0,-8.536394835E-1,1.104706383E1
7.465278540E2,2.510669231E0,-3.218346536E-1,8.895318031E0
7.470278540E2,2.596810818E0,5.090730190E-1,8.656036377E0
7.475278540E2,3.115455151E0,6.669993401E-1,1.067557812E1
7.480278540E2,1.867598057E0,4.450650215E-1,8.473583221E0
7.485278540E2,2.812164783E0,1.310070455E-1,1.132582760E1
7.490278540E2,3.884747505E0,9.218349457E-1,1.038305569E1
7.495278540E2,3.640679598E0,8.787640929E-1,1.010369396E1
7.500278540E2,2.917448997E0,1.004985496E-1,9.332008362E0
7.505278540E2,3.460021496E0,6.616154313E-1,1.003729248E1
7.510278540E2,2.839084148E0,8.679963946E-1,8.882157326E0
7.515278540E2,2.571087837E0,6.382854581E-1,9.090931892E0
7.520278540E2,2.547757864E0,4.480560422E-1,8.443673134E0
7.525278540E2,3.777070522E0,2.650051117E-1,9.963713646E0
7.530278540E2,2.100898266E0,-1.178465188E-1,9.308079720E0
7.535278540E2,4.157529354E0,5.395814776E-1,9.349954605E0
7.540278540E2,3.742374659E0,4.576273263E-1,8.184649467E0
7.545278540E2,3.410370588E0,4.797609448E-1,8.464610100E0
7.550278540E2,3.105883837E0,-1.950150430E-1,9.769296646E0
7.555278540E2,3.381656647E0,-1.214357466E-1,9.969695091E0
7.560278540E2,4.006781578E0,7.310073376E-1,9.976275444E0
7.565278540E2,1.403988719E0,4.163511395E-1,8.248658180E0
7.570278540E2,1.342971683E0,7.381857634E-1,8.149953842E0
7.575278540E2,1.281356573E0,1.183848977E0,7.457231998E0
7.580278540E2,6.891329288E-1,1.453639716E-1,9.922437668E0
7.585278540E2,9.074779749E-1,1.056431174E0,8.486743927E0
7.590278540E2,1.923829436E0,4.941178858E-1,1.177268696E1
7.595278540E2,1.190429211E0,5.264210105E-1,1.074676514E1
7.600278540E2,1.089930773E0,1.088734269E-1,1.071685410E1
7.605278540E2,1.296909928E0,6.975077987E-1,1.074497032E1
7.610278540E2,8.733802289E-2,1.426122308E0,6.985247612E0
7.615278540E2,8.458628058E-1,7.304090858E-1,1.207418346E1
7.620278540E2,-3.284149170E-1,1.156929731E0,1.084247780E1
7.625278540E2,1.561316848E-1,1.036690354E0,9.801001549E0
7.630278540E2,3.170489892E-2,1.252642632E0,9.218349457E0
7.635278540E2,6.221338734E-2,7.597211599E-1,1.140060329E1
7.640278540E2,-6.879364848E-1,1.262213886E-1,1.047697353E1
7.645278540E2,-6.526423693E-1,1.794616925E-3,9.670592308E0
7.650278540E2,-7.531409264E-1,-5.772684813E-1,9.237491608E0
7.655278540E2,8.793623447E-1,1.051047325E0,1.147478104E1
7.660278540E2,8.596215248E-1,1.834696770E0,8.854640007E0
7.665278540E2,7.956135273E-2,1.030708313E0,1.013420200E1
7.670278540E2,3.361915946E-1,9.104689956E-1,1.191147137E1
7.675278540E2,-1.752742529E-1,1.314257860E0,8.830712318E0
7.680278540E2,-3.290131092E-1,1.579262972E0,8.021938324E0
7.685278540E2,2.727817893E-1,1.960918188E0,9.486345291E0
7.690278540E2,7.148557901E-1,2.056032896E0,1.134855938E1
7.695278540E2,-8.356932998E-1,1.350748420E0,8.417949677E0
7.700278540E2,6.640082598E-1,7.561319470E-1,8.962317467E0
7.705278540E2,1.606182218E0,6.185446382E-1,1.188156128E1
7.710278540E2,2.092523336E0,1.914258152E-1,9.630513191E0
7.715278540E2,2.032104731E0,2.985046208E-1,8.334799767E0
7.720278540E2,1.397408366E0,-1.256231815E-1,9.344570160E0
7.725278540E2,2.220539331E0,8.279166222E-1,8.421539307E0
7.730278540E2,2.987439156E0,4.031906128E-1,1.090528965E1
7.735278540E2,1.863410592E0,-9.690931439E-2,9.483354568E0
7.740278540E2,1.957328916E0,-4.307080805E-1,9.110074043E0
7.745278540E2,1.441675663E0,-7.112665176E-1,8.441878319E0
7.750278540E2,1.558325768E0,-6.664010882E-1,8.593224525E0
7.755278540E2,1.654636860E0,-5.036891699E-1,9.451649666E0
7.760278540E2,2.056032896E0,-4.785645381E-2,8.156534195E0
7.765278540E2,3.437289715E0,-4.677968323E-1,1.039262676E1
7.770278540E2,3.560520172E0,-9.553344250E-1,9.110671997E0
7.775278540E2,3.836292982E0,-9.284151793E-1,9.553942680E0
7.780278540E2,3.829712629E0,-2.135594189E-1,9.141778946E0
7.785278540E2,3.747160196E0,5.264209956E-2,8.979066849E0
7.790278540E2,3.649652719E0,1.100698411E-1,9.336793900E0
7.795278540E2,3.725026608E0,3.672982752E-1,9.239884377E0
7.800278540E2,3.723232031E0,2.237289101E-1,9.209376335E0
7.805278540E2,3.693321705E0,5.419743061E-1,9.257232666E0
7.810278540E2,3.608376503E0,6.478567123E-1,8.566305161E0
7.815278540E2,3.650250912E0,2.428714931E-1,9.629914284E0
7.820278540E2,4.226921082E0,5.964110494E-1,9.005388260E0
7.825278540E2,4.789234638E0,1.201196909E0,8.407182693E0
7.830278540E2,3.690928936E0,8.548358679E-1,8.813961983E0
7.835278540E2,3.619742393E0,6.287141442E-1,1.057029438E1
7.840278540E2,2.702693224E0,6.281159520E-1,9.841081619E0
7.845278540E2,2.391027927E0,8.267202377E-1,9.726225853E0
7.850278540E2,2.691327333E0,9.056833982E-1,9.747162819E0
7.855278540E2,2.169093609E0,6.191428304E-1,1.041476059E1
7.860278540E2,2.311466694E0,9.511470199E-1,8.931808472E0
7.865278540E2,2.298306227E0,6.843472719E-1,1.041954613E1
7.870278540E2,8.171489239E-1,1.004985496E-1,8.317451477E0
7.875278540E2,2.848655462E0,1.292124242E-1,1.150648594E1
7.880278540E2,1.944168448E0,4.384847581E-1,8.650651932E0
7.885278540E2,2.833101988E0,2.967100143E-1,9.722636223E0
7.890278540E2,2.190629244E0,-9.690931439E-2,9.838089943E0
7.895278540E2,2.507678032E0,-8.769695163E-1,9.134002686E0
7.900278540E2,2.714657307E0,-1.126421213E0,9.293723106E0
7.905278540E2,2.910868645E0,-1.113858938E0,9.491130829E0
7.910278540E2,2.777468920E0,-1.326820135E0,8.556734085E0
7.915278540E2,3.623929977E0,-1.048056364E0,1.019342422E1
7.920278540E2,2.964108944E0,-8.979067206E-1,9.424132347E0
7.925278540E2,2.931805849E0,-2.632105052E-1,9.530014038E0
7.930278540E2,2.365305185E0,-9.236295223E-1,9.700503349E0
7.935278540E2,2.745165825E0,-4.534398913E-1,9.512067795E0
7.940278540E2,2.554338217E0,-4.390829504E-1,9.296713829E0
7.945278540E2,2.528615236E0,1.926222295E-1,9.295517921E0
7.950278540E2,2.646461725E0,3.894318938E-1,9.396016121E0
7.955278540E2,2.444268227E0,4.462614357E-1,9.415159225E0
7.960278540E2,2.685943365E0,4.767699242E-1,9.522237778E0
7.965278540E2,2.671586514E0,5.036891699E-1,9.449854851E0
7.970278540E2,2.598605394E0,5.102694035E-1,9.282357216E0
7.975278540E2,2.552543640E0,3.493520916E-1,9.211171150E0
7.980278540E2,2.417947292E0,5.216353536E-1,9.400801659E0
7.985278540E2,2.565105915E0,4.181457460E-1,9.386445045E0
7.990278540E2,2.449054003E0,4.319044948E-1,9.298508644E0
7.995278540E2,2.408974171E0,3.864408433E-1,9.510871887E0
8.000278540E2,2.362912416E0,3.810569942E-1,9.617950439E0
8.005278540E2,2.313261271E0,3.720839322E-1,9.311071396E0
8.010278540E2,2.466402054E0,4.546363056E-1,9.319445610E0
8.015278540E2,2.108675003E0,3.302095234E-1,9.523433685E0
8.020278540E2,2.217548370E0,3.505485058E-1,9.601201057E0
8.025278540E2,2.461018085E0,5.156532526E-1,9.348159790E0
8.030278540E2,2.470589399E0,4.420739710E-1,9.448060036E0
8.035278540E2,2.251047850E0,3.170489967E-1,9.333803177E0
8.040278540E2,2.456232548E0,6.257231236E-1,9.296713829E0
8.045278540E2,2.246262312E0,3.954139352E-1,9.546165466E0
8.050278540E2,2.262413740E0,4.127618968E-1,9.488140106E0
8.055278540E2,2.286342144E0,4.438686073E-1,9.352945328E0
8.060278540E2,2.504687071E0,5.515456200E-1,9.320642471E0
8.065278540E2,2.237887383E0,3.409772217E-1,9.384650230E0
8.070278540E2,2.485544443E0,6.041877270E-1,9.305088997E0
8.075278540E2,2.343171597E0,4.977070987E-1,9.391230583E0
8.080278540E2,2.298306227E0,4.133601189E-1,9.574879646E0
8.085278540E2,2.202593327E0,3.188436031E-1,9.333803177E0
8.090278540E2,2.523231506E0,5.754738450E-1,9.338588715E0
8.095278540E2,2.327019930E0,3.110669553E-1,9.422935486E0
8.100278540E2,2.309672117E0,3.128615618E-1,9.383454323E0
8.105278540E2,2.293520451E0,5.036891699E-1,9.467203140E0
8.110278540E2,2.314457655E0,4.414757788E-1,9.473783493E0
8.115278540E2,2.159522533E0,3.254238665E-1,9.381659508E0
8.120278540E2,2.475374937E0,5.419743061E-1,9.491728783E0
8.125278540E2,2.413161755E0,4.671986103E-1,9.553942680E0
8.130278540E2,2.316252232E0,8.183453679E-1,9.815358162E0
8.135278540E2,2.297109842E0,1.287338614E0,9.466006279E0
8.140278540E2,2.057827473E0,1.689332843E0,9.392427444E0
8.145278540E2,2.361117840E0,1.725823283E0,9.471988678E0
8.150278540E2,2.955734253E0,1.423131227E0,9.693922997E0
8.155278540E2,2.544766903E0,2.292324066E0,8.885746956E0
8.160278540E2,6.909275651E-1,1.782652885E-1,1.304387474E1
8.165278540E2,-3.247658491E0,-3.768695593E-1,7.556533813E0
8.170278540E2,-7.118647099E-1,1.131206870E0,1.004626560E1
8.175278540E2,-1.634896040E0,3.367897868E-1,8.668000221E0
8.180278540E2,-1.957328916E0,9.367900491E-1,1.050927734E1
8.185278540E2,-1.866401672E0,6.652047038E-1,9.291928291E0
8.190278540E2,-1.212562919E0,4.594219327E-1,9.604789734E0
8.195278540E2,-9.655039310E-1,4.959124923E-1,1.020120144E1
8.200278540E2,-1.549352705E-1,1.335195065E0,9.563513756E0
8.205278540E2,1.112662554E-1,9.888339639E-1,9.407382011E0
8.210278540E2,-1.483550072E-1,8.644071817E-1,9.545567513E0
8.215278540E2,3.762713671E-1,9.122636318E-1,9.778867722E0
8.220278540E2,4.271188378E-1,1.531406522E0,1.005284595E1
8.225278540E2,5.521438122E-1,5.437689424E-1,9.786644936E0
8.230278540E2,4.342973232E-1,1.679761529E0,9.288937569E0
8.235278540E2,6.059823632E-1,3.050848842E-1,9.425926208E0
8.240278540E2,1.316052489E-2,7.734799385E-1,9.510273933E0
8.245278540E2,-3.272185028E-1,1.519442350E-1,9.604789734E0
8.250278540E2,-1.387837082E-1,6.155536175E-1,9.180064201E0
8.255278540E2,1.082752272E-1,3.649054468E-2,9.449854851E0
8.260278540E2,-3.589233849E-3,-4.354937077E-1,9.406784058E0
8.265278540E2,4.977070987E-1,1.914258152E-1,9.761520386E0
8.270278540E2,-5.383851007E-2,1.016949639E-1,9.336793900E0
8.275278540E2,8.315058947E-1,2.566302419E-1,1.036271667E1
8.280278540E2,6.412764788E-1,-2.093719840E-1,1.031665516E1
8.285278540E2,1.417747438E-1,8.973085135E-2,9.399007797E0
8.290278540E2,1.704886109E-1,-6.699903309E-2,9.055637360E0
8.295278540E2,3.170489967E-1,4.432703853E-1,1.018265629E1
8.300278540E2,-1.980060786E-1,-2.380858511E-1,8.556734085E0
8.305278540E2,-3.846462369E-1,-4.133601189E-1,9.446864128E0
8.310278540E2,5.443671346E-1,1.866401732E-1,1.057268715E1
8.315278540E2,6.999006122E-2,1.052841991E-1,9.323633194E0
8.320278540E2,4.660021961E-1,2.488535494E-1,9.108279228E0
8.325278540E2,5.485545993E-1,2.213360928E-2,1.091605663E1
8.330278540E2,2.644068897E-1,1.387837082E-1,9.271589279E0
8.335278540E2,1.328016520E-1,-9.571290761E-2,9.531808853E0
8.340278540E2,7.387840152E-1,7.836493850E-2,1.036690426E1
8.345278540E2,5.946164131E-1,-8.356932998E-1,9.909276962E0
8.350278540E2,-1.076770201E-2,-5.760720372E-1,9.400203705E0
8.355278540E2,5.324030519E-1,-3.559323549E-1,1.028794098E1
8.360278540E2,8.213363886E-1,-2.356930375E-1,9.656235695E0
8.365278540E2,2.422732860E-1,-6.346961856E-1,9.521639824E0
8.370278540E2,-7.178468257E-2,-7.334001660E-1,8.896514893E0
8.375278540E2,5.629115105E-1,-7.082754970E-1,9.906285286E0
8.380278540E2,8.219345808E-1,-1.087537885E0,1.008215809E1
8.385278540E2,2.021935135E-1,-9.726824164E-1,9.678369522E0
8.390278540E2,7.064808607E-1,-8.452646136E-1,9.475577354E0
8.395278540E2,2.374876440E-1,-8.769695163E-1,9.545567513E0
8.400278540E2,1.060618639E0,-6.681957245E-1,9.882357597E0
8.405278540E2,4.031906128E-1,-7.112665176E-1,9.367302895E0
8.410278540E2,2.344966233E-1,-5.850451589E-1,9.807581902E0
8.415278540E2,8.835497499E-1,-1.304088384E-1,9.887143135E0
8.420278540E2,6.999006271E-1,3.505485058E-1,9.298508644E0
8.425278540E2,6.203392744E-1,3.128615618E-1,1.000080204E1
8.430278540E2,6.556333899E-1,1.399801224E-1,9.994221687E0
8.435278540E2,2.979064286E-1,-8.261220455E-1,9.814162254E0
8.440278540E2,8.721838593E-1,-1.040877849E-1,1.011685371E1
8.445278540E2,7.908278704E-1,-3.810569942E-1,1.049013424E1
8.450278540E2,4.187439755E-2,-3.912265003E-1,1.001755238E1
8.455278540E2,-6.317051649E-1,-2.261217386E-1,9.189635277E0
8.460278540E2,-3.714857101E-1,-3.750749528E-1,9.808777809E0
8.465278540E2,-5.467599630E-1,-6.520441920E-2,9.797411919E0
8.470278540E2,-4.103690982E-1,-2.823530734E-1,9.472586632E0
8.475278540E2,3.828516230E-2,-3.349951804E-1,9.284152031E0
8.480278540E2,4.701896608E-1,-2.033899166E-2,9.853643417E0
8.485278540E2,8.805587292E-1,8.135596663E-2,9.775876999E0
8.490278540E2,9.361918569E-1,3.349951655E-2,1.026999474E1
8.495278540E2,1.199402332E0,3.798605800E-1,1.010847950E1
8.500278540E2,9.655039310E-1,8.913264424E-2,8.994022369E0
8.505278540E2,8.662018180E-1,3.750749528E-1,9.067003250E0
8.510278540E2,1.196411371E0,6.813562512E-1,1.032084274E1
8.515278540E2,8.165507317E-1,4.977070987E-1,9.372088432E0
8.520278540E2,4.755735099E-1,1.998006850E-1,9.213563919E0
8.525278540E2,8.883354068E-1,7.621139884E-1,8.924032211E0
8.530278540E2,7.501499057E-1,6.825526357E-1,9.646066666E0
8.535278540E2,8.267202377E-1,3.684946895E-1,9.817152977E0
8.540278540E2,5.300102234E-1,5.820540786E-1,9.456435204E0
8.545278540E2,3.128615618E-1,2.039881349E-1,9.904491425E0
8.550278540E2,5.790630579E-1,6.568298340E-1,9.756733894E0
8.555278540E2,2.745763958E-1,4.079762697E-1,9.148359299E0
8.560278540E2,4.624129832E-1,6.209374666E-1,1.000558758E1
8.565278540E2,2.315055877E-1,1.100698411E-1,9.949356079E0
8.570278540E2,6.472585201E-1,1.154536963E0,7.894520283E0
8.575278540E2,1.740778536E-1,1.070788130E-1,8.863015175E0
8.580278540E2,8.315058947E-1,-1.806581169E-1,1.055414295E1
8.585278540E2,1.615155339E-1,6.568298340E-1,9.436096191E0
8.590278540E2,-6.580262631E-2,-1.932204217E-1,9.365508080E0
8.595278540E2,1.357926846E0,1.262213886E-1,1.183968639E1
8.600278540E2,7.573283911E-1,4.229314029E-1,1.119721317E1
8.605278540E2,-3.792623878E-1,9.391828626E-2,9.488738060E0
8.610278540E2,-4.175475538E-1,-7.657032460E-2,9.333204269E0
8.615278540E2,3.218346536E-1,-7.657032460E-2,9.955936432E0
8.620278540E2,-4.187439755E-2,-6.520441920E-2,8.957531929E0
8.625278540E2,-9.571290761E-2,7.836493850E-2,8.983852386E0
8.630278540E2,-3.272185028E-1,-1.232303679E-1,9.649655342E0
8.635278540E2,-2.231307179E-1,-2.285145670E-1,1.003370380E1
8.640278540E2,1.561316848E-1,-1.112064362E0,9.687342644E0
8.645278540E2,3.314059377E-1,-6.299105883E-1,1.026819992E1
8.650278540E2,-1.513460279E-1,-5.102694035E-1,9.507282257E0
8.655278540E2,4.677968323E-1,9.930214286E-2,1.014078236E1
8.660278540E2,-1.052841991E-1,-6.065805554E-1,9.740582466E0
8.665278540E2,-1.375873089E-1,-1.615155339E-1,8.793025017E0
8.670278540E2,3.948157281E-2,-8.135596663E-2,9.768698692E0
8.675278540E2,-7.776673883E-2,-2.883351147E-1,9.969695091E0
8.680278540E2,9.272187948E-2,-1.615155339E-1,9.893723488E0
8.685278540E2,-4.426721856E-2,-5.551348329E-1,9.330811501E0
8.690278540E2,-3.361915946E-1,-3.128615618E-1,9.933204651E0
8.695278540E2,3.026920557E-1,-1.314856052E0,1.033041382E1
8.700278540E2,-7.836493850E-2,-1.007976532E0,9.729216576E0
8.705278540E2,1.782652885E-1,-6.460621357E-1,9.778867722E0
8.710278540E2,2.135594189E-1,-1.639083475E-1,1.012343407E1
8.715278540E2,5.377869010E-1,-2.620140910E-1,9.649655342E0
8.720278540E2,1.159322619E0,1.244267747E-1,9.979267120E0
8.725278540E2,1.164108157E0,8.255238086E-2,9.603593826E0
8.730278540E2,1.571486235E0,1.758724600E-1,9.571290970E0
8.735278540E2,2.035095692E0,4.085744619E-1,1.039262676E1
8.740278540E2,1.812563181E0,4.671986103E-1,9.153144836E0
8.745278540E2,2.420340061E0,4.755735099E-1,9.625128746E0
8.750278540E2,2.025524378E0,5.635097623E-1,9.614361763E0
8.755278540E2,2.196611166E0,8.117650747E-1,9.845269203E0
8.760278540E2,2.166102648E0,9.092725813E-2,9.040083885E0
8.765278540E2,1.896311998E0,3.888336718E-1,1.006062317E1
8.770278540E2,1.578066587E0,6.939185858E-1,1.026819992E1
8.775278540E2,1.871187329E0,1.914258152E-1,9.164510727E0
8.780278540E2,1.352542996E0,-7.531409264E-1,9.339784622E0
8.785278540E2,5.024927258E-1,-3.655036688E-1,9.756733894E0
8.790278540E2,1.453639746E0,-6.664010882E-1,1.051765156E1
8.795278540E2,8.937192559E-1,-5.539384484E-1,8.089534760E0
8.800278540E2,6.861419082E-1,-9.744769931E-1,9.383454323E0
8.805278540E2,1.195214868E0,-6.556333899E-1,1.177747345E1
8.810278540E2,9.026923180E-1,-5.581258535E-1,8.882157326E0
8.815278540E2,-2.045863420E-1,-8.039883971E-1,8.172685623E0
8.820278540E2,6.957131624E-1,-8.841479421E-1,8.879166603E0
8.825278540E2,1.045065284E0,-7.465606928E-1,1.010130119E1
8.830278540E2,3.684946895E-1,-7.830511928E-1,9.169296265E0
8.835278540E2,2.691925466E-1,-5.581258535E-1,1.056670475E1
8.840278540E2,5.922235921E-2,-6.622136831E-1,1.012283611E1
8.845278540E2,1.226321608E-1,-2.620140910E-1,9.761520386E0
8.850278540E2,-2.889333367E-1,-7.734799385E-1,9.567701340E0
8.855278540E2,-1.758724600E-1,-7.004988194E-1,1.006720352E1
8.860278540E2,-2.859423161E-1,-1.257428288E0,8.859425545E0
8.865278540E2,-1.070788130E-1,-1.700698733E0,9.936196327E0
8.870278540E2,-2.871387303E-1,-2.566900492E0,9.962516785E0
8.875278540E2,-2.554338276E-1,-1.643270969E0,9.857233047E0
8.880278540E2,1.100698411E-1,-1.613958836E0,9.579665184E0
8.885278540E2,-1.579262912E-1,-9.936196208E-1,1.005344391E1
8.890278540E2,1.992024779E-1,6.047859192E-1,1.002772141E1
8.895278540E2,3.332005441E-1,-6.879365444E-2,9.781859398E0
8.900278540E2,-2.219343036E-1,-4.229314029E-1,9.839286804E0
8.905278540E2,1.914258115E-2,-7.537391037E-2,9.812367439E0
8.910278540E2,2.650051117E-1,2.273181453E-2,9.847661972E0
8.915278540E2,9.750752151E-2,-1.663011760E-1,9.802198410E0
8.920278540E2,3.050848842E-2,-2.548356056E-1,9.877572060E0
8.925278540E2,1.316052489E-2,-1.310070455E-1,9.783055305E0
8.930278540E2,1.734796353E-2,-9.571290761E-2,9.820143700E0
8.935278540E2,1.166501045E-1,-1.351944804E-1,9.821340561E0
8.940278540E2,2.009970993E-1,1.435693540E-2,9.807581902E0
8.945278540E2,2.039881349E-1,7.298108935E-2,9.855438232E0
8.950278540E2,7.657032460E-2,-3.367897868E-1,9.866206169E0
8.955278540E2,1.704886109E-1,4.187439755E-2,9.766305923E0
8.960278540E2,-1.022931710E-1,-3.337987661E-1,9.861420631E0
8.965278540E2,6.819544733E-2,-1.100698411E-1,9.778269768E0
8.970278540E2,1.316052489E-2,-2.440679073E-1,9.847063065E0
8.975278540E2,2.087737769E-1,9.571290575E-3,9.864411354E0
8.980278540E2,3.170489892E-2,-3.457628787E-1,9.832706451E0
8.985278540E2,1.369891018E-1,-6.041877344E-2,9.768698692E0
8.990278540E2,1.453639716E-1,4.821537733E-1,9.707083702E0
8.995278540E2,3.230310604E-2,5.970092416E-1,9.675378799E0
9.000278540E2,3.194418252E-1,1.091127157E0,9.818349838E0
9.005278540E2,2.518445849E-1,1.018146038E0,9.627521515E0
9.010278540E2,7.525427341E-1,1.491326690E0,8.769096375E0
9.015278540E2,7.052844763E-1,2.518445849E-1,1.083470058E1
9.020278540E2,8.183453679E-1,1.226919770E0,1.012283611E1
9.025278540E2,5.808576941E-1,1.461416483E0,1.020419216E1
9.030278540E2,3.206382394E-1,1.176072359E0,9.969695091E0
9.035278540E2,6.592226624E-1,9.649057388E-1,1.058883858E1
9.040278540E2,6.065805554E-1,8.099704385E-1,9.964909554E0
9.045278540E2,5.264210105E-1,5.341976285E-1,9.894919395E0
9.050278540E2,6.711867452E-1,7.465606928E-1,9.212367058E0
9.055278540E2,6.257231236E-1,8.871390224E-1,9.932008743E0
9.060278540E2,8.021938205E-1,6.831508875E-1,9.479166985E0
9.065278540E2,6.287141442E-1,5.934200287E-1,9.938589096E0
9.070278540E2,4.259224236E-1,5.060819983E-1,9.370293617E0
9.075278540E2,3.044866920E-1,6.819544733E-2,1.012522888E1
9.080278540E2,4.785645306E-1,6.783652306E-1,8.937790871E0
9.085278540E2,9.930214286E-2,3.810569942E-1,1.010429192E1
9.090278540E2,9.320043921E-1,1.263410330E0,9.641879082E0
9.095278540E2,2.440679073E-1,2.422732860E-1,9.300303459E0
9.100278540E2,6.568298340E-1,3.529413342E-1,1.058405304E1
9.105278540E2,6.334998012E-1,-7.298108935E-2,9.163313866E0
9.110278540E2,1.308275819E0,-3.505485058E-1,1.101057339E1
9.115278540E2,-1.794616925E-3,-2.871387303E-1,9.129216194E0
9.120278540E2,6.759724021E-1,-6.604190469E-1,9.653842926E0
9.125278540E2,3.541377485E-1,-4.241278172E-1,9.025727272E0
9.130278540E2,3.792623878E-1,-7.495517135E-1,9.226723671E0
9.135278540E2,9.445667267E-1,-8.787640929E-1,9.760921478E0
9.140278540E2,5.132604837E-1,-1.788634956E-1,8.582456589E0
9.145278540E2,1.166501045E-1,-5.694918036E-1,8.746364594E0
9.150278540E2,6.161518097E-1,-1.104287624E0,9.874580383E0
9.155278540E2,5.156532526E-1,-6.400800347E-1,9.333803177E0
9.160278540E2,9.493523836E-1,-1.369891018E-1,9.336793900E0
9.165278540E2,3.720839322E-1,-1.136590764E-1,8.047660828E0
9.170278540E2,3.332005441E-1,-1.807179332E0,1.178046417E1
9.175278540E2,5.150550604E-1,-6.041877270E-1,7.331608772E0
9.180278540E2,1.232303679E-1,-8.051848412E-1,1.184626675E1
9.185278540E2,6.077769399E-1,-1.028913736E0,9.598808289E0
9.190278540E2,1.207777262E0,-2.727817893E-1,1.053499985E1
9.195278540E2,3.732803464E-1,-1.274178028E0,1.046919727E1
9.200278540E2,6.855437160E-1,-4.229314029E-1,9.208778381E0
9.205278540E2,9.254241586E-1,-1.065404296E0,8.693722725E0
9.210278540E2,3.672982752E-1,-3.367897868E-1,1.071625614E1
9.215278540E2,7.627122402E-1,-6.825526357E-1,9.352945328E0
9.220278540E2,5.802595019E-1,-9.439685345E-1,9.263813019E0
9.225278540E2,1.818545163E-1,-7.621139884E-1,8.702097893E0
9.230278540E2,3.320041299E-1,-9.248259664E-1,9.725627899E0
9.235278540E2,5.503492355E-1,-1.075573802E0,9.483952522E0
9.240278540E2,3.457628787E-1,-6.795616150E-1,9.357730865E0
9.245278540E2,1.107278705E0,-8.739784956E-1,1.059721375E1
9.250278540E2,1.204786181E0,-1.445264935E0,1.068036366E1
9.255278540E2,5.539384484E-1,-1.210768223E0,9.381061554E0
9.260278540E2,9.649057388E-1,-1.014556766E0,1.001336479E1
9.265278540E2,6.939185858E-1,-1.067198873E0,9.108279228E0
9.270278540E2,5.186443329E-1,-1.992623091E0,9.927223206E0
9.275278540E2,5.443671346E-1,-8.679963946E-1,9.553942680E0
9.280278540E2,5.898307562E-1,-1.019342422E0,9.311669350E0
9.285278540E2,5.539384484E-1,-1.410568953E0,8.989236832E0
9.290278540E2,5.330012441E-1,-9.667003751E-1,9.640084267E0
9.295278540E2,2.344966233E-1,-1.758126378E0,9.068798065E0
9.300278540E2,7.896314859E-1,-1.504487276E0,9.472586632E0
9.305278540E2,6.909275651E-1,-1.618744493E0,9.638289452E0
9.310278540E2,1.853241086E0,-1.239482164E0,9.943374634E0
9.315278540E2,1.545763373E0,-1.783251047E0,9.416953087E0
9.320278540E2,2.035095692E0,-1.338784218E0,9.065806389E0
9.325278540E2,2.496312141E0,-1.313061476E0,1.001635551E1
9.330278540E2,6.400800347E-1,5.826523304E-1,1.038604641E1
9.335278540E2,-2.213360928E-2,2.470589399E0,9.301499367E0
9.340278540E2,-3.529413417E-2,2.120040894E0,9.930213928E0
9.345278540E2,-5.874379873E-1,2.576471806E0,1.024247742E1
9.350278540E2,-1.064806059E-1,2.139183521E0,9.134600639E0
9.355278540E2,-3.302095234E-1,2.697907448E0,1.012821960E1
9.360278540E2,-4.145565331E-1,2.654836655E0,1.028136063E1
9.365278540E2,-8.632107973E-1,2.249253273E0,9.904491425E0
9.370278540E2,-1.743171334E0,2.432304144E0,8.645866394E0
9.375278540E2,-1.479960799E0,2.198405743E0,8.534600258E0
9.380278540E2,-1.708475351E0,2.242672920E0,1.110927773E1
9.385278540E2,-1.441675663E0,2.279163599E0,9.255437851E0
9.390278540E2,-1.313061476E0,2.530410051E0,7.914260864E0
9.395278540E2,-2.027318954E0,1.289133191E0,1.006780148E1
9.400278540E2,-1.089930773E0,1.164706469E0,1.034477043E1
9.405278540E2,-1.680957913E0,1.077966571E0,9.639486313E0
9.410278540E2,-1.289133191E0,8.057830334E-1,1.036929703E1
9.415278540E2,-1.137787223E0,1.123430252E0,8.769096375E0
9.420278540E2,-1.133001566E0,1.572682738E0,1.086042404E1
9.425278540E2,-1.678565025E0,1.038485050E0,1.031426239E1
9.430278540E2,-2.166102648E0,8.135597110E-1,9.684949875E0
9.435278540E2,-2.860021353E0,6.921239495E-1,9.128020287E0
9.440278540E2,-2.915654421E0,1.150349498E0,9.460023880E0
9.445278540E2,-2.270190477E0,8.691928387E-1,1.050628567E1
9.450278540E2,-2.751745939E0,1.016351461E0,9.636494637E0
9.455278540E2,-3.293720484E0,1.266401410E0,9.041878700E0
9.460278540E2,-3.627519131E0,1.348355532E0,8.580661774E0
9.465278540E2,-3.711866140E0,1.205982566E0,9.175278664E0
9.470278540E2,-2.724826813E0,1.601994753E0,8.955737114E0
9.475278540E2,-2.018345833E0,1.889133453E0,9.299705505E0
9.480278540E2,-2.228316069E0,2.800798893E0,9.099306107E0
9.485278540E2,-1.411765337E0,2.943171740E0,8.937790871E0
9.490278540E2,-1.435693622E0,2.973082066E0,9.090931892E0
9.495278540E2,-1.261615753E0,3.172882795E0,9.488738060E0
9.500278540E2,-1.956132531E0,2.697907448E0,9.177671432E0
9.505278540E2,-2.104487419E0,2.620738983E0,9.266803741E0
9.510278540E2,-1.465603828E0,3.496512175E0,9.103493690E0
9.515278540E2,-8.883354068E-1,3.473181963E0,8.916853905E0
9.520278540E2,-1.226919770E0,3.263810158E0,9.309276581E0
9.525278540E2,-1.118046403E0,3.790230989E0,8.733802795E0
9.530278540E2,-7.549355626E-1,3.592823267E0,9.191430092E0
9.535278540E2,-7.770691514E-1,3.579662561E0,9.004789352E0
9.540278540E2,-6.861419082E-1,3.020938635E0,9.321240425E0
9.545278540E2,2.021935135E-1,3.810570002E0,1.171226883E1
9.550278540E2,-5.790630579E-1,2.891726255E0,1.036271667E1
9.555278540E2,-1.515853167E0,2.249253273E0,6.789634228E0
9.560278540E2,-1.504487276E0,2.506481647E0,9.496515274E0
9.565278540E2,-9.044869542E-1,1.734198213E0,9.653842926E0
9.570278540E2,-5.216353536E-1,2.549552441E0,9.481559753E0
9.575278540E2,-1.107278705E0,1.715055585E0,8.847461700E0
9.580278540E2,-6.699903607E-1,2.182254314E0,9.835697174E0
9.585278540E2,-8.530412912E-1,2.488535643E0,8.902496338E0
9.590278540E2,-1.756331801E0,2.073380709E0,8.445467949E0
9.595278540E2,-1.429113269E0,1.161117196E0,9.993623734E0
9.600278540E2,-2.487339020E0,8.937192559E-1,8.826524734E0
9.605278540E2,-1.646261930E0,2.063809633E0,8.847461700E0
9.610278540E2,-1.021137118E0,1.060618639E0,1.035015392E1
9.615278540E2,-1.118644595E0,1.253839016E0,9.314660072E0
9.620278540E2,-4.402793646E-1,2.136192322E0,9.732208252E0
9.625278540E2,-9.583254457E-1,1.709671736E0,9.025727272E0
9.630278540E2,-1.840678811E0,1.116850019E0,8.162516594E0
9.635278540E2,-7.262216806E-1,1.243071318E0,1.119841003E1
9.640278540E2,-9.792626500E-1,1.497906923E0,9.002995491E0
9.645278540E2,-6.257231236E-1,1.453041553E0,9.805787086E0
9.650278540E2,-9.218349457E-1,1.767099500E0,9.251849174E0
9.655278540E2,-1.396211982E0,1.464407444E0,9.199206352E0
9.660278540E2,-1.346560955E0,1.628315806E0,8.333004951E0
9.665278540E2,-9.792626500E-1,1.458425403E0,1.022333431E1
9.670278540E2,-1.092323542E0,2.896511793E0,9.547362328E0
9.675278540E2,-2.600399971E0,3.183650494E0,1.000678444E1
9.680278540E2,-8.027920127E-1,2.779263496E0,8.857032776E0
9.685278540E2,-1.188036442E0,1.124626637E0,1.006122112E1
9.690278540E2,-9.619147182E-1,1.246062398E0,1.038664532E1
9.695278540E2,-6.161518097E-1,1.759921074E0,1.009472084E1
9.700278540E2,-1.006181955E0,1.691127419E0,1.305165100E1
9.705278540E2,-1.662413478E0,1.051645517E0,9.543772697E0
9.710278540E2,-2.451446772E0,6.137589812E-1,9.402596474E0
9.715278540E2,-1.429113269E0,7.686942816E-1,9.421739578E0
9.720278540E2,-1.084546804E0,1.094716311E0,1.001635551E1
9.725278540E2,-1.213759303E0,1.421336651E0,9.680164337E0
9.730278540E2,-1.076770186E0,1.049850941E0,9.869794846E0
9.735278540E2,-1.417747378E0,1.285543919E0,9.716654778E0
9.740278540E2,-1.088136077E0,1.573280931E0,9.558130264E0
9.745278540E2,-1.306481123E0,1.463211060E0,9.813564301E0
9.750278540E2,-1.003190875E0,1.560120344E0,9.669994354E0
9.755278540E2,-1.226321578E0,1.624128342E0,9.732806206E0
9.760278540E2,-1.209571838E0,1.748555183E0,9.515059471E0
9.765278540E2,-1.479960799E0,1.654636860E0,8.953942299E0
9.770278540E2,-9.966106415E-1,1.754537225E0,9.960722923E0
9.775278540E2,-1.634896040E0,1.786242127E0,9.069993973E0
9.780278540E2,-1.748555183E0,1.685743570E0,9.257232666E0
9.785278540E2,-1.106680512E0,1.745564103E0,9.739984512E0
9.790278540E2,-7.609176040E-1,2.325823545E0,8.926424980E0
9.795278540E2,-9.984052777E-1,2.289333105E0,9.060422897E0
9.800278540E2,-1.652244091E0,1.529611826E0,8.832506180E0
9.805278540E2,-1.274178028E0,1.265205026E0,9.505488396E0
9.810278540E2,-1.104287624E0,1.319043517E0,1.001994514E1
9.815278540E2,-5.371887088E-1,2.041675806E0,1.004626560E1
9.820278540E2,-1.544566989E0,5.599204898E-1,1.082991505E1
9.825278540E2,-1.436890006E0,1.486541033E0,9.221938133E0
9.830278540E2,-1.902892232E0,1.097707391E0,9.166305542E0
9.835278540E2,-2.946162939E0,1.692921996E0,9.697511673E0
9.840278540E2,-2.762513638E0,1.019342422E0,8.754739761E0
9.845278540E2,-3.648456335E0,1.823330879E0,8.685946465E0
9.850278540E2,-3.369094372E0,1.666600943E0,8.571090698E0
9.855278540E2,-3.434896946E0,1.668395638E0,9.497711182E0
9.860278540E2,-3.335594654E0,1.680957913E0,9.333204269E0
9.865278540E2,-3.020938635E0,1.721037745E0,9.201599121E0
9.870278540E2,-3.434298754E0,1.812563181E0,9.224929810E0
9.875278540E2,-2.517249346E0,2.237887383E0,9.534799576E0
9.880278540E2,-2.750549555E0,2.638685226E0,9.282357216E0
9.885278540E2,-2.298306227E0,2.635694027E0,8.194221497E0
9.890278540E2,-2.214557409E0,1.701895118E0,9.306883812E0
9.895278540E2,-1.129412293E0,2.137388945E0,9.563513756E0
9.900278540E2,-9.170492887E-1,1.880758643E0,9.920642853E0
9.905278540E2,-1.540977836E0,1.611566067E0,9.330811501E0
9.910278540E2,-8.937192559E-1,2.201396942E0,8.705088615E0
9.915278540E2,-8.536394835E-1,1.566700578E0,9.844072342E0
9.920278540E2,-1.659422517E0,1.282552958E0,8.971888542E0
9.925278540E2,-5.425725579E-1,1.513460279E0,1.128275681E1
9.930278540E2,-2.030309916E0,7.674978375E-1,9.558728218E0
9.935278540E2,-5.838487148E-1,1.928615093E0,1.101655579E1
9.940278540E2,-4.187439755E-2,1.713261008E0,1.121276665E1
9.945278540E2,-1.680957913E0,3.092723191E-1,8.280961037E0
9.950278540E2,-6.239284873E-1,2.435893536E0,9.460023880E0
9.955278540E2,-2.587239504E0,9.379864931E-1,8.578866959E0
9.960278540E2,-4.133601189E-1,1.945963025E0,1.038185883E1
9.965278540E2,-2.566302419E-1,1.758126378E0,9.903294563E0
9.970278540E2,-3.906283081E-1,1.434497118E0,9.923633575E0
9.975278540E2,-2.709871531E-1,1.378265858E0,9.984650612E0
9.980278540E2,-8.757730722E-1,1.853839397E0,8.723034859E0
9.985278540E2,-6.430711150E-1,1.202393413E0,9.939785004E0
9.990278540E2,-9.972088337E-1,1.902892232E0,9.233304024E0
9.995278540E2,-7.387840152E-1,1.595414519E0,8.801998138E0
1.000027854E3,-1.116251707E0,1.028913736E0,9.339784622E0
1.000527854E3,-4.366901219E-1,1.453639746E0,1.049192905E1
1.001027854E3,-1.804188251E0,4.067798555E-1,8.699107170E0
1.001527854E3,-9.451649338E-2,1.928615093E0,9.324232101E0
1.002027854E3,-3.337987661E-1,1.247856975E0,1.043270683E1
1.002527854E3,-7.573283911E-1,2.584248483E-1,9.357730865E0
1.003027854E3,-4.468596280E-1,8.817551732E-1,9.803992271E0
1.003527854E3,-1.011565804E0,4.480560422E-1,9.548559189E0
1.004027854E3,-6.921239495E-1,1.084546804E0,1.002293587E1
1.004527854E3,-1.016949639E-1,6.747759581E-1,1.075932693E1
1.005027854E3,1.483550072E-1,1.178465128E0,1.044826031E1
1.005527854E3,-6.825526357E-1,1.019342422E0,9.446864128E0
1.006027854E3,-1.563111424E0,1.554138303E0,8.705088615E0
1.006527854E3,-6.622136831E-1,7.944171429E-1,9.632308006E0
1.007027854E3,-4.965106845E-1,5.850451589E-1,1.041535854E1
1.007527854E3,-3.206382394E-1,1.582852125E0,1.012343407E1
1.008027854E3,-1.001994491E0,1.013360381E0,9.718449593E0
1.008527854E3,-6.113662124E-1,1.255035520E0,1.055115128E1
1.009027854E3,-1.137787223E0,8.536394835E-1,9.586843491E0
1.009527854E3,-1.537388563E0,-2.488535494E-1,9.092725754E0
1.010027854E3,-1.844268084E0,2.344966233E-1,9.009575844E0
1.010527854E3,-6.939185858E-1,5.569294691E-1,8.620741844E0
1.011027854E3,-1.292124242E-1,2.512463741E-2,9.978070259E0
1.011527854E3,-4.241278172E-1,1.161117196E0,9.461220741E0
1.012027854E3,-1.375873089E-1,2.307877541E0,9.524630547E0
1.012527854E3,-8.195417523E-1,9.044869542E-1,1.085025406E1
1.013027854E3,-1.523031592E0,9.511470199E-1,1.086640549E1
1.013527854E3,-7.064808607E-1,6.616154313E-1,8.827720642E0
1.014027854E3,-2.213360965E-1,1.524826288E0,1.077129078E1
1.014527854E3,-7.381857634E-1,1.068993568E0,9.270991325E0
1.015027854E3,-4.881358147E-1,8.051848412E-1,1.013300610E1
1.015527854E3,-2.907279432E-1,2.889333367E-1,9.744770050E0
1.016027854E3,-9.314061999E-1,1.253839016E0,1.042433167E1
1.016527854E3,-1.045065284E0,3.684946895E-1,9.017950058E0
1.017027854E3,-1.030110121E0,-7.776673418E-3,9.416355133E0
1.017527854E3,-1.733600020E0,-3.523431420E-1,9.745368004E0
1.018027854E3,-1.456630826E0,1.062413216E0,9.141778946E0
1.018527854E3,-2.354537487E0,5.934200287E-1,9.620942116E0
1.019027854E3,-2.370090723E0,4.911268353E-1,9.107083321E0
1.019527854E3,-3.129812002E0,1.272981644E0,8.484949112E0
1.020027854E3,-4.058227062E0,1.066002488E0,8.899505615E0
1.020527854E3,-3.634099483E0,9.984052777E-1,8.553144455E0
1.021027854E3,-2.614158630E0,1.113260746E0,8.612366676E0
1.021527854E3,-2.024327993E0,1.989632010E0,8.641080856E0
1.022027854E3,-1.965703845E0,1.118046403E0,9.984650612E0
1.022527854E3,-2.571087837E0,1.976471543E0,8.876175880E0
1.023027854E3,-1.980060697E0,1.866401672E0,9.796216011E0
1.023527854E3,-1.045065284E0,1.014556766E0,1.057507992E1
1.024027854E3,-1.483550072E-1,1.247856975E0,9.692128181E0
1.024527854E3,-9.930214286E-2,1.325623751E0,1.053320503E1
1.025027854E3,-9.074779749E-1,8.853443861E-1,9.936196327E0
1.025527854E3,8.069794178E-1,1.064207911E0,8.963513374E0
1.026027854E3,4.576273263E-1,6.317051649E-1,9.309276581E0
1.026527854E3,6.281159520E-1,5.587241054E-1,1.006780148E1
1.027027854E3,2.688336134E0,-5.862415582E-2,1.009412193E1
1.027527854E3,2.000399828E0,1.417747438E-1,9.721440315E0
1.028027854E3,2.041675806E0,-5.144568533E-2,9.507881165E0
1.028527854E3,2.286342144E0,7.381857634E-1,1.018505001E1
1.029027854E3,1.743769526E0,1.092323542E0,8.164310455E0
1.029527854E3,1.711466432E0,1.657627940E0,9.333803177E0
1.030027854E3,6.059823632E-1,1.146760225E0,9.818947792E0
1.030527854E3,1.759921074E0,1.271785259E0,1.024307537E1
1.031027854E3,8.297112584E-1,1.513460279E0,1.079342461E1
1.031527854E3,-9.870393574E-2,1.702493310E0,9.067003250E0
1.032027854E3,-5.730810165E-1,1.185045362E0,7.415955544E0
1.032527854E3,-2.667997181E-1,1.502692580E0,9.436096191E0
1.033027854E3,6.281159520E-1,2.528615236E0,8.117650986E0
1.033527854E3,-3.864408433E-1,1.396211982E0,1.055832958E1
1.034027854E3,-1.122832060E0,1.121037364E0,9.266803741E0
1.034527854E3,4.845465720E-1,1.025922656E0,1.020598698E1
1.035027854E3,-1.244267747E-1,1.180259824E0,1.003370380E1
1.035527854E3,-1.136590764E-1,5.778666735E-1,8.660223007E0
1.036027854E3,-3.589234054E-1,3.032902777E-1,1.003848934E1
1.036527854E3,-6.161518097E-1,1.437488198E0,1.019940662E1
1.037027854E3,-6.729813814E-1,8.733802289E-2,9.241081238E0
1.037527854E3,-6.041877344E-2,1.191625714E0,9.154939651E0
1.038027854E3,-2.632105052E-1,4.223332107E-1,1.089571762E1
1.038527854E3,-9.212367237E-2,9.320043921E-1,9.662218094E0
1.039027854E3,-7.734799385E-1,1.283749342E0,9.966704369E0
1.039527854E3,-7.435696125E-1,7.196413875E-1,8.545368195E0
1.040027854E3,-2.087737799E0,-1.387837082E-1,8.679964066E0
1.040527854E3,-7.166503668E-1,5.377869010E-1,8.939585686E0
1.041027854E3,-8.057830334E-1,9.451649338E-2,9.302098274E0
1.041527854E3,7.800601721E-1,7.962117195E-1,1.108056355E1
1.042027854E3,-2.584248483E-1,5.300102234E-1,8.663214684E0
1.042527854E3,4.546363056E-1,1.148554921E0,1.105603695E1
1.043027854E3,-9.870393276E-1,-1.435693651E-1,9.521639824E0
1.043527854E3,5.132604837E-1,1.037288666E0,1.070668507E1
1.044027854E3,-3.254238665E-1,1.022931695E0,9.850054741E0
1.044527854E3,-9.780662656E-1,8.039883971E-1,8.885746956E0
1.045027854E3,-7.752745152E-1,8.195417523E-1,8.381459236E0
1.045527854E3,-5.581258535E-1,4.372883439E-1,1.061934662E1
1.046027854E3,2.392822690E-2,1.067198873E0,1.097468090E1
1.046527854E3,-2.133201361E0,2.422732860E-1,7.405188084E0
1.047027854E3,1.794616925E-3,2.997010350E-1,1.086520958E1
1.047527854E3,-2.075773627E-1,6.305087805E-1,8.653642654E0
