"Time (s)","Gyroscope x (rad/s)","Gyroscope y (rad/s)","Gyroscope z (rad/s)"
2.748524060E-1,-5.041161776E-1,-6.872228812E-3,-2.787070572E-1
7.789843850E-1,-6.895136237E-1,2.599229515E-1,-1.166751757E-1
1.283116260E0,-2.244928107E-2,6.459894776E-2,-2.809977904E-2
1.787248135E0,-1.010981202E-1,2.718348242E-2,-5.635227636E-2
2.291380062E0,-1.279761642E-1,4.123337101E-3,-1.359174121E-2
2.795511989E0,8.680388331E-1,-5.731438994E-1,3.103193045E-1
3.299643812E0,3.287979662E-1,1.372918636E-1,7.009673119E-2
3.803775635E0,-4.393644929E-1,5.835285783E-1,-2.553414702E-1
4.307907406E0,-2.000582218E-2,-3.222311661E-2,-9.315688163E-3
4.812039072E0,-7.483093534E-3,1.267544460E-2,4.123337101E-3
5.316170426E0,-7.483093534E-3,-3.252854943E-2,1.053741761E-2
5.820301520E0,-7.635809598E-4,-3.039052337E-2,4.581485991E-4
6.324432301E0,-2.779434808E-2,-6.230820715E-2,-1.435532235E-2
6.828562822E0,2.916879393E-2,-9.605848789E-2,-1.055268943E-1
7.332693187E0,-1.359174121E-2,5.039634556E-2,-1.557705179E-2
7.836823395E0,-4.734201822E-3,3.207040019E-3,9.315688163E-3
8.340953291E0,-2.626718581E-2,8.414662629E-2,2.871064469E-2
8.845082979E0,-8.857538924E-3,4.306596518E-2,9.712749720E-2
9.349212458E0,-8.093958721E-3,4.596757516E-2,1.447749585E-1
9.853341676E0,-1.572976820E-2,5.268708616E-2,1.739437431E-1
1.035747079E1,-2.428187430E-2,6.139190868E-2,1.898262352E-1
1.086159964E1,-2.061668597E-2,4.886918142E-2,1.992946416E-1
1.136572829E1,-3.237583488E-2,6.078104675E-2,1.997527778E-1
1.186985657E1,-3.955349326E-2,7.208204269E-2,2.015853822E-1
1.237398454E1,-1.878409274E-2,6.398808211E-2,2.096793354E-1
1.287811199E1,-7.483093534E-3,-7.788525894E-3,1.742491722E-1
1.338223892E1,-1.069013379E-3,-4.153880477E-2,9.941824526E-2
1.388636553E1,1.771507785E-2,-2.733619884E-2,4.673115537E-2
1.439049162E1,-1.313359290E-2,5.345067009E-3,-5.497782957E-3
1.489461735E1,1.756236330E-2,-4.444041103E-2,-2.275471389E-2
1.539874287E1,1.343902480E-2,-6.887500733E-2,-5.436696485E-2
1.590286814E1,5.955931731E-3,-3.588830680E-2,-1.029307172E-1
1.640699319E1,-7.941242307E-3,-5.497783050E-2,-1.200349256E-1
1.691111798E1,-5.039634649E-3,-6.200277433E-2,-1.273653060E-1
1.741524246E1,5.070177838E-2,-2.901607659E-3,-1.420260668E-1
1.791936673E1,-1.374445739E-3,-8.460476995E-2,-1.099556610E-1
1.842349074E1,-1.093447953E-1,-8.857539296E-2,-1.295033395E-1
1.892761449E1,3.237583488E-2,6.872228812E-3,-1.414151937E-1
1.943173803E1,4.581485875E-3,-3.588830680E-2,-1.224783882E-1
1.993586136E1,-1.710421406E-2,-3.665188700E-2,-1.140789986E-1
2.043998459E1,1.328630932E-2,-2.901607752E-2,-9.239330143E-2
2.094410793E1,-4.276053607E-2,4.581485875E-3,-8.628465235E-2
2.144823131E1,6.414080039E-3,-3.970621154E-2,-6.337722391E-2
2.195235480E1,-2.076940238E-2,7.819069177E-2,-4.886918142E-2
2.245647845E1,1.679878100E-3,5.604684353E-2,1.191186346E-2
2.296060220E1,9.162971750E-3,2.138026804E-2,1.725693047E-2
2.346472590E1,-7.330377586E-3,-1.985310577E-2,1.771507785E-2
2.396884949E1,1.374445762E-2,-6.872228812E-3,9.162971750E-3
2.447297282E1,-8.399390616E-3,-1.069013379E-3,1.069013379E-3
2.497709595E1,-1.007926930E-2,3.711003438E-2,-1.359174121E-2
2.548121881E1,1.023198478E-2,-1.878409274E-2,5.955931731E-3
2.598534147E1,-1.603520103E-2,-1.191186346E-2,-9.926552884E-3
2.648946381E1,-3.359756200E-3,1.572976820E-2,-4.276053514E-3
2.699358584E1,1.466075517E-2,-1.710421406E-2,7.024944760E-3
2.749770751E1,-1.588248461E-2,1.282816008E-2,-4.734201822E-3
2.800182881E1,4.276053514E-3,9.926552884E-3,-4.123337101E-3
2.850594975E1,-2.748891478E-3,-5.803215317E-3,-2.138026757E-3
2.901007027E1,-2.290742844E-2,-7.635809598E-4,-5.345067009E-3
2.951419053E1,2.107483521E-2,-5.955931731E-3,8.399390616E-3
3.001831053E1,-4.581485991E-4,-1.481347065E-2,2.596175298E-3
3.052243027E1,1.985310577E-3,2.153298259E-2,-9.315688163E-3
3.102654975E1,4.428769462E-3,-1.023198478E-2,2.443459118E-3
3.153066897E1,-1.038470119E-2,1.130099874E-2,-1.420260593E-2
3.203478793E1,3.207040019E-3,-4.734201822E-3,-8.399390616E-3
3.253890652E1,-2.290742937E-3,2.596175298E-3,-5.039634649E-3
3.304302480E1,8.704823442E-3,4.581485991E-4,8.093958721E-3
3.354714277E1,-6.566796452E-3,-3.207040019E-3,-1.527161920E-3
3.405126098E1,1.985310577E-3,4.123337101E-3,-4.581485991E-4
3.455537848E1,-8.552107029E-3,-3.512472380E-3,-5.039634649E-3
3.505949577E1,-1.527161920E-3,2.901607659E-3,-8.246674202E-3
3.556361275E1,1.099556591E-2,-9.162971750E-3,4.428769462E-3
3.606772952E1,-7.024944760E-3,-3.054323897E-4,1.527161949E-4
3.657184603E1,3.054323897E-4,-1.985310577E-2,3.665188793E-3
3.707596238E1,-8.857538924E-3,2.443459071E-2,-1.206457894E-2
3.758007863E1,-4.886918236E-3,-2.138026757E-3,-3.512472380E-3
3.808419473E1,-7.941242307E-3,-2.748891478E-3,4.428769462E-3
3.858831066E1,-9.926552884E-3,2.596175298E-3,-5.345067009E-3
3.909242639E1,2.901607659E-3,-3.665188793E-3,-3.054323897E-4
3.959654181E1,1.099556591E-2,-3.817904973E-3,-1.374445739E-3
4.010065686E1,3.207040019E-3,-5.650499370E-3,1.985310577E-3
4.060477176E1,2.138026757E-3,2.840521187E-2,-1.160643063E-2
4.110888634E1,6.261364091E-3,-1.007926930E-2,6.872228812E-3
4.161300072E1,1.191186346E-2,-1.084284950E-2,4.276053514E-3
4.211711494E1,-2.138026757E-3,6.108647678E-3,-3.359756200E-3
4.262122905E1,1.069013379E-3,-4.581485991E-4,-3.665188793E-3
4.312534322E1,-6.108647794E-4,-1.527161949E-4,-3.359756200E-3
4.362945749E1,4.123337101E-3,-1.832594397E-3,7.483093534E-3
4.413357212E1,5.345067009E-3,1.221729559E-3,2.748891478E-3
4.463768702E1,3.665188793E-3,-4.734201822E-3,4.123337101E-3
4.514180223E1,1.603520103E-2,-1.572976820E-2,1.313359290E-2
4.564591770E1,-2.107483521E-2,2.550360374E-2,-2.764163166E-2
4.615003322E1,1.527161920E-3,-6.566796452E-3,5.497782957E-3
4.665414879E1,-1.313359290E-2,-2.489273995E-2,5.650499370E-3
4.715826452E1,-9.162971983E-4,3.772090003E-2,-9.773836471E-3
4.766238056E1,2.535088919E-2,-2.535088919E-2,1.542433538E-2
4.816649686E1,-3.008509055E-2,1.847865991E-2,-1.847865991E-2
4.867061327E1,-4.581485991E-4,-1.069013379E-3,-2.748891478E-3
4.917472967E1,1.527161920E-3,4.123337101E-3,1.084284950E-2
4.967884608E1,-7.941242307E-3,-1.114828233E-2,1.542433538E-2
5.018296296E1,5.192350596E-3,-3.512472380E-3,1.252272818E-2
5.068708051E1,-1.221729559E-3,2.290742937E-3,2.443459118E-3
5.119119895E1,-2.138026757E-3,-1.252272818E-2,4.581485875E-3
5.169531816E1,-1.435532235E-2,-9.621120058E-3,-1.404988952E-2
5.219943822E1,1.557705179E-2,-1.832594397E-3,1.252272818E-2
5.270355879E1,-3.054323839E-3,2.626718581E-2,-9.162971983E-4
5.320767952E1,2.443459118E-3,8.552107029E-3,9.926552884E-3
5.371180025E1,-3.436114267E-2,-9.162971750E-3,5.955931731E-3
5.421592082E1,1.588248461E-2,-6.414080039E-3,6.719512399E-3
5.472004119E1,-3.054323839E-3,4.428769462E-3,1.053741761E-2
5.522416134E1,1.053741761E-2,-3.054323897E-4,1.267544460E-2
5.572828129E1,-1.802051067E-2,1.084284950E-2,-6.108647794E-4
5.623240098E1,-1.527161920E-3,2.550360374E-2,1.374445739E-3
5.673652040E1,6.414080039E-3,-1.298087649E-2,1.664606482E-2
5.724063957E1,1.832594397E-3,2.015853859E-2,9.010255337E-3
5.774475853E1,-2.580903657E-2,-2.504545636E-2,8.704823442E-3
5.824887733E1,5.528326333E-2,1.023198478E-2,1.511890348E-2
5.875300697E1,-5.833758786E-2,-3.634645417E-2,7.024944760E-3
5.925711447E1,2.504545636E-2,4.932733253E-2,2.443459118E-3
5.976123259E1,-2.183841541E-2,-2.351829410E-2,4.428769462E-3
6.026535035E1,2.504545636E-2,4.535670951E-2,1.496618707E-2
6.076946775E1,-1.130099874E-2,-2.046396956E-2,1.099556591E-2
6.127358483E1,-1.221729559E-3,1.527161949E-4,6.872228812E-3
6.177770171E1,3.512472380E-3,-5.497782957E-3,7.788525894E-3
6.228181848E1,-4.276053514E-3,2.138026757E-3,8.552107029E-3
6.278593499E1,-2.596175298E-3,3.207040019E-3,5.650499370E-3
6.329005129E1,-6.872228812E-3,1.145371422E-2,1.130099874E-2
6.379416744E1,5.192350596E-3,5.497782957E-3,1.160643063E-2
6.429828348E1,3.817904973E-3,-1.679878100E-3,8.857538924E-3
6.480239947E1,-1.954767294E-2,-1.466075517E-2,1.511890348E-2
6.530651520E1,4.581485991E-4,6.200277433E-2,2.290742937E-3
6.581063066E1,1.069013402E-2,-4.520399496E-2,1.175914705E-2
6.631474582E1,-6.108647794E-4,-1.099556591E-2,1.007926930E-2
6.681886077E1,-2.901607659E-3,-2.596175298E-3,-1.832594397E-3
6.732297535E1,-1.847865991E-2,2.641990222E-2,-2.290742937E-3
6.782708967E1,1.175914705E-2,1.908952370E-2,1.878409274E-2
6.833120379E1,-2.901607659E-3,-9.926552884E-3,4.581485875E-3
6.883531759E1,1.007926930E-2,6.230820715E-2,7.330377586E-3
6.933943108E1,-6.261364091E-3,-5.803215504E-2,1.679878123E-2
6.984354431E1,8.704823442E-3,5.574141070E-2,1.069013379E-3
7.034765723E1,-1.618791744E-2,-5.070177838E-2,1.359174121E-2
7.085176973E1,1.328630932E-2,1.572976820E-2,2.290742937E-3
7.135588207E1,9.315688163E-3,-3.588830680E-2,9.315688163E-3
7.185999452E1,-2.306014486E-2,8.399390616E-3,-2.138026757E-3
7.236410749E1,-5.803215317E-3,5.192350596E-3,1.084284950E-2
7.286822082E1,-1.572976820E-2,-1.924224012E-2,3.665188793E-3
7.337233473E1,1.695149764E-2,-1.847865991E-2,-5.039634649E-3
7.387644936E1,1.954767294E-2,7.635809947E-3,-8.552107029E-3
7.438056478E1,-2.107483521E-2,2.809977904E-2,-7.788525894E-3
7.488468108E1,2.290742844E-2,-4.046979174E-2,-6.108647794E-4
7.538879827E1,-2.825249545E-2,3.176496923E-2,-1.863137633E-2
7.589291613E1,2.061668597E-2,4.581485689E-2,5.497782957E-3
7.639703467E1,-2.092211880E-2,-4.917461425E-2,6.719512399E-3
7.690115363E1,2.290742844E-2,-2.138026804E-2,7.177661173E-3
7.740527301E1,-1.328630932E-2,-3.054323839E-3,-7.024944760E-3
7.790939275E1,1.527161989E-2,1.420260593E-2,4.581485875E-3
7.841351290E1,-2.596175298E-3,2.748891525E-2,1.695149764E-2
7.891763368E1,2.290742937E-3,7.483093534E-3,-5.039634649E-3
7.942175488E1,-7.177661173E-3,1.618791744E-2,-1.221729536E-2
7.992587644E1,1.328630932E-2,-3.207040206E-2,1.908952370E-2
8.042999848E1,-7.330377586E-3,-1.557705179E-2,4.428769462E-3
8.093412124E1,-1.221729559E-3,4.108065739E-2,3.054323897E-4
8.143824499E1,1.817322709E-2,-2.046396956E-2,2.229656465E-2
8.194236978E1,-3.054323979E-2,1.435532235E-2,-3.970621154E-3
8.244649551E1,4.734201822E-3,-2.168569900E-2,1.130099874E-2
8.295062197E1,-7.024944760E-3,-3.359756200E-3,2.596175298E-3
8.345474900E1,7.483093534E-3,1.267544460E-2,-7.635809598E-4
8.395887634E1,-1.511890348E-2,8.246674202E-3,-1.160643063E-2
8.446300358E1,1.389717404E-2,3.359756200E-3,5.803215317E-3
8.496713056E1,-8.399390616E-3,-1.695149764E-2,-9.162971983E-4
8.547125702E1,-2.138026757E-3,1.282816008E-2,-3.054323839E-3
8.597538285E1,-9.926552884E-3,1.084284950E-2,-3.054323839E-3
8.647950816E1,1.786779426E-2,-2.138026757E-3,1.527161949E-4
8.698363306E1,-1.221729559E-3,-3.115410358E-2,1.527161949E-4
8.748775811E1,2.443459118E-3,-2.138026757E-3,1.007926930E-2
8.799188379E1,-1.038470119E-2,-0.000000000E0,7.635809598E-4
8.849601025E1,2.061668597E-2,-1.481347065E-2,3.817904973E-3
8.900013749E1,-2.000582218E-2,1.679878100E-3,-1.985310577E-3
8.950426566E1,8.246674202E-3,-4.581485689E-2,2.550360374E-2
9.000839499E1,1.221729536E-2,2.825249545E-2,-2.519817278E-2
9.051252540E1,-1.069013402E-2,-2.443459118E-3,-1.038470119E-2
9.101665681E1,5.497782957E-3,1.511890348E-2,-4.581485875E-3
9.152078894E1,9.315688163E-3,1.710421406E-2,-3.054323897E-4
9.202492144E1,-2.519817278E-2,-2.092211880E-2,4.123337101E-3
9.252905394E1,2.932151034E-2,1.145371422E-2,1.007926930E-2
9.303318608E1,2.107483521E-2,-7.635809947E-3,7.788525894E-3
9.353731764E1,-8.277218044E-2,-3.481929377E-2,-5.192350596E-3
9.404144825E1,4.367683083E-2,6.948586553E-2,-1.542433538E-2
9.454557845E1,-1.038470119E-2,-3.008509055E-2,1.237001177E-2
9.504970788E1,5.650499370E-3,1.970038936E-2,2.596175298E-3
9.555383653E1,3.817904973E-3,1.435532235E-2,1.420260593E-2
9.605796444E1,1.374445739E-3,4.581485875E-3,1.450803876E-2
9.656209205E1,0.000000000E0,-1.069013402E-2,9.468403645E-3
9.706621986E1,4.123337101E-3,1.007926930E-2,1.084284950E-2
9.757034824E1,-1.466075517E-2,-2.596175298E-3,9.315688163E-3
9.807447731E1,1.404988952E-2,-3.970621154E-3,1.756236330E-2
9.857860705E1,1.313359290E-2,-3.207040019E-3,9.926552884E-3
9.908273746E1,-1.023198478E-2,1.374445762E-2,3.054323839E-3
9.958686851E1,-4.581485875E-3,1.649334840E-2,9.315688163E-3
1.000910001E2,-1.985310577E-3,3.604102135E-2,4.276053514E-3
1.005951321E2,-1.069013379E-3,-4.184423760E-2,1.282816008E-2
1.010992641E2,3.665188793E-3,-1.023198478E-2,1.130099874E-2
1.016033957E2,-8.857538924E-3,1.099556591E-2,-9.162971983E-4
1.021075266E2,1.634063199E-2,-7.024944760E-3,1.557705179E-2
1.026116568E2,-8.704823442E-3,1.970038936E-2,8.399390616E-3
1.031157865E2,-5.345067009E-3,-5.345067009E-3,1.099556591E-2
1.036199156E2,2.596175298E-3,4.886918236E-3,1.970038936E-2
1.041240441E2,-1.282816008E-2,4.306596518E-2,3.512472380E-3
1.046281721E2,1.847865991E-2,-3.940077871E-2,3.985892609E-2
1.051322995E2,-2.641990222E-2,2.626718581E-2,2.779434808E-2
1.056364263E2,2.046396956E-2,2.229656465E-2,2.840521187E-2
1.061405526E2,-1.527161920E-3,-1.191186346E-2,4.184423760E-2
1.066446783E2,1.527161949E-4,3.619373962E-2,2.306014486E-2
1.071488035E2,-6.872228812E-3,-9.468403645E-3,2.306014486E-2
1.076529283E2,-1.832594397E-3,2.748891525E-2,3.008509055E-2
1.081570523E2,-1.664606482E-2,-2.138026757E-3,3.207040206E-2
1.086611753E2,1.145371422E-2,-1.374445739E-3,4.489856213E-2
1.091652977E2,-1.863137633E-2,1.557705179E-2,1.908952370E-2
1.096694195E2,3.665188793E-3,1.084284950E-2,1.679878123E-2
1.101735404E2,2.901607659E-3,-9.926552884E-3,1.863137633E-2
1.106776604E2,-2.916879393E-2,1.832594397E-3,1.985310577E-2
1.111817795E2,2.412915789E-2,2.306014486E-2,1.725693047E-2
1.116858977E2,7.635809598E-4,-4.444041103E-2,1.802051067E-2
1.121900155E2,-1.069013379E-3,1.435532235E-2,8.857538924E-3
1.126941329E2,-1.374445762E-2,0.000000000E0,6.566796452E-3
1.131982503E2,2.046396956E-2,7.330377586E-3,1.466075517E-2
1.137023675E2,-2.748891525E-2,-4.276053607E-2,4.276053514E-3
1.142064845E2,7.635809598E-4,-4.581485991E-4,1.527161949E-4
1.147106012E2,-1.679878100E-3,5.345067009E-3,-3.665188793E-3
1.152147174E2,2.061668597E-2,-1.863137633E-2,3.054323897E-4
1.157188337E2,-8.552107029E-3,2.489273995E-2,-4.276053514E-3
1.162229503E2,-7.635809598E-4,-1.572976820E-2,-5.345067009E-3
1.167270673E2,-1.221729536E-2,-6.719512399E-3,1.527161920E-3
1.172311847E2,1.786779426E-2,2.535088919E-2,-7.330377586E-3
1.177353024E2,-9.621120058E-3,-5.803215504E-2,9.773836471E-3
1.182394204E2,1.038470119E-2,1.817322709E-2,-1.695149764E-2
1.187435386E2,-8.246674202E-3,3.176496923E-2,-1.572976820E-2
1.192476572E2,1.252272818E-2,-1.603520103E-2,7.635809598E-4
1.197517758E2,-9.468403645E-3,-7.483093534E-3,-9.162971750E-3
1.202558944E2,-4.123337101E-3,1.679878100E-3,-2.092211880E-2
1.207600131E2,-5.039634649E-3,-7.024944760E-3,-2.596175298E-3
1.212641318E2,6.108647678E-3,-1.374445739E-3,-1.679878100E-3
1.217682508E2,7.635809947E-3,-3.161225095E-2,-7.635809947E-3
1.222723703E2,-1.099556591E-2,5.497782957E-3,-2.397644334E-2
1.227764904E2,-1.527161949E-4,1.038470119E-2,-1.649334840E-2
1.232806113E2,-3.817904973E-3,1.496618707E-2,-1.679878123E-2
1.237847326E2,7.788525894E-3,-3.222311661E-2,2.748891478E-3
1.242888541E2,-5.803215317E-3,1.511890348E-2,-5.650499370E-3
1.247929761E2,4.734201822E-3,-2.443459118E-3,-1.023198478E-2
1.252970987E2,-5.345067009E-3,-8.246674202E-3,-1.435532235E-2
1.258012219E2,6.414080039E-3,-9.162971983E-4,-1.481347065E-2
1.263053456E2,-9.773836471E-3,-5.803215317E-3,-2.306014486E-2
1.268094697E2,1.069013402E-2,-1.878409274E-2,-1.450803876E-2
1.273135939E2,-5.955931731E-3,-2.474002354E-2,-2.138026804E-2
1.278177183E2,-3.512472380E-3,-5.345067009E-3,-2.886336111E-2
1.283218430E2,-7.635809598E-4,-1.832594350E-2,-3.436114267E-2
1.288259679E2,8.552107029E-3,-1.832594350E-2,-2.290742844E-2
1.293300929E2,9.926552884E-3,1.985310577E-3,-2.825249545E-2
1.298342181E2,-1.893680729E-2,-1.985310577E-2,-3.069595434E-2
1.303383435E2,1.252272818E-2,6.108647794E-4,-3.344484791E-2
1.308424688E2,-1.313359290E-2,-4.581485991E-4,-3.191768378E-2
1.313465940E2,5.497782957E-3,1.023198478E-2,-3.390299529E-2
1.318507193E2,-9.315688163E-3,-3.008509055E-2,-3.420842811E-2
1.323548446E2,-1.527161989E-2,-4.581485875E-3,-3.955349326E-2
1.328589698E2,2.397644334E-2,-8.399390616E-3,-1.954767294E-2
1.333630950E2,-2.657261863E-2,-1.267544460E-2,-3.054323979E-2
1.338672203E2,8.552107029E-3,2.596175298E-3,-3.451386094E-2
1.343713455E2,0.000000000E0,-1.221729536E-2,-3.054323979E-2
1.348754707E2,9.773836471E-3,-2.428187430E-2,-2.626718581E-2
1.353795960E2,-1.313359290E-2,1.527161949E-4,-3.741546720E-2
1.358837212E2,-1.374445739E-3,-4.276053514E-3,-3.283398226E-2
1.363878466E2,1.832594397E-3,-2.687804960E-2,-2.412915789E-2
1.368919722E2,1.985310577E-3,-3.481929377E-2,-3.084867075E-2
1.373960980E2,-2.397644334E-2,2.718348242E-2,-4.489856213E-2
1.379002240E2,1.847865991E-2,-1.985310577E-2,-2.092211880E-2
1.384043499E2,-2.703076601E-2,-8.704823442E-3,-3.481929377E-2
1.389084756E2,1.313359290E-2,2.153298259E-2,-4.566214234E-2
1.394126010E2,-2.306014486E-2,-5.268708616E-2,-1.786779426E-2
1.399167261E2,-1.511890348E-2,-4.306596518E-2,-2.458730713E-2
1.404208507E2,8.674279600E-2,6.658425927E-2,-2.962694131E-2
1.409249750E2,-4.276053514E-3,4.581485991E-4,-4.718930274E-2
1.414290989E2,-3.359756246E-2,-9.468404204E-2,-6.215549260E-2
1.419332228E2,2.993237413E-2,-2.855792828E-2,-9.071341902E-2
1.424373469E2,2.076940238E-2,8.994983882E-2,-1.432477981E-1
1.429414712E2,1.237001177E-2,5.299251899E-2,-4.841103405E-2
1.434455957E2,-5.039634649E-3,-4.993819445E-2,-6.719512492E-2
1.439497200E2,-2.947422490E-2,-4.734202102E-2,-7.269290835E-2
1.444538440E2,3.207040019E-3,-3.084867075E-2,-7.620538026E-2
1.449579675E2,1.099556591E-2,-1.954767294E-2,-7.360920310E-2
1.454620906E2,-8.246674202E-3,-3.054323979E-2,-8.460476995E-2
1.459662132E2,-7.330377586E-3,-1.252272818E-2,-8.628465235E-2
1.464703354E2,1.664606482E-2,-1.970038936E-2,-8.216131479E-2
1.469744569E2,-1.496618707E-2,2.428187430E-2,-7.620538026E-2
1.474785779E2,-9.162971750E-3,-3.665188700E-2,-3.069595434E-2
1.479826984E2,1.099556591E-2,-2.855792828E-2,-3.756818548E-2
1.484868184E2,-9.162971983E-4,3.054323897E-4,-5.360338464E-2
1.489909379E2,8.704823442E-3,3.711003438E-2,-3.115410358E-2
1.494950569E2,-8.857538924E-3,8.384118974E-2,-3.817904973E-3
1.499991754E2,4.734201822E-3,5.207622424E-2,3.588830680E-2
1.505032933E2,-1.343902480E-2,-2.076940238E-2,5.574141070E-2
1.510074110E2,-2.306014486E-2,6.414080039E-3,4.337139800E-2
1.515115286E2,-7.483093534E-3,-1.069013379E-3,3.619373962E-2
1.520156462E2,3.817904973E-3,5.650499370E-3,2.596175298E-2
1.525197635E2,4.276053514E-3,-4.917461425E-2,3.420842811E-2
1.530238804E2,1.160643063E-2,-2.336557768E-2,3.039052337E-2
1.535279967E2,-1.802051067E-2,-3.054323839E-3,-1.023198478E-2
1.540321124E2,-1.970038936E-2,-1.664606482E-2,-5.268708616E-2
1.545362271E2,8.552107029E-3,-3.176496923E-2,-2.794706449E-2
1.550403410E2,-3.665188793E-3,-1.145371422E-2,-2.871064469E-2
1.555444544E2,3.054323839E-3,1.038470119E-2,-1.023198478E-2
1.560485674E2,-5.192350596E-3,-3.497200832E-2,-3.283398226E-2
1.565526803E2,-2.382372692E-2,3.207040019E-3,-3.863719851E-2
1.570567936E2,4.276053514E-3,1.069013379E-3,-3.161225095E-2
1.575609073E2,1.069013379E-3,9.010255337E-3,-3.344484791E-2
1.580650215E2,-3.481929377E-2,-4.718930274E-2,-2.672533318E-2
1.585691356E2,-1.649334840E-2,-2.611446939E-2,-2.061668597E-2
1.590732497E2,1.756236330E-2,1.191186346E-2,-2.443459071E-2
1.595773636E2,1.756236330E-2,1.985310577E-3,-1.847865991E-2
1.600814771E2,7.635809598E-4,5.039634649E-3,-7.788525894E-3
1.605855903E2,6.719512399E-3,1.221729559E-3,3.359756200E-3
1.610897030E2,3.313941509E-2,-2.275471389E-2,-2.489273995E-2
1.615938156E2,1.023198478E-2,-1.420260593E-2,-8.704823442E-3
1.620979275E2,1.634063199E-2,2.306014486E-2,-1.374445762E-2
1.626020390E2,-9.468403645E-3,1.908952370E-2,4.428769462E-3
1.631061500E2,-2.275471389E-2,-8.506292105E-2,-2.748891525E-2
1.636102606E2,1.291978955E-1,-3.112356067E-1,-3.817904741E-2
1.641143709E2,-7.055488229E-2,1.058323234E-1,1.618791744E-2
1.646184811E2,-3.588830680E-2,1.924224012E-2,1.241582632E-1
1.651225912E2,-4.077522457E-2,3.741546720E-2,1.327103674E-1
1.656267016E2,1.165224537E-1,2.341139317E-1,2.069304436E-1
1.661308123E2,5.222893879E-2,-2.599229515E-1,3.089448512E-1
1.666349235E2,-5.513054505E-2,1.464548260E-1,3.008508980E-1
1.671390355E2,5.192350596E-2,7.574722916E-2,2.380845547E-1
1.676431481E2,2.962694131E-2,8.521563560E-2,2.295324355E-1
1.681472612E2,-6.108647794E-4,8.078686893E-2,2.767217457E-1
1.686513747E2,3.695731983E-2,4.230238497E-2,2.800815105E-1
1.691554884E2,4.016435891E-2,4.673115537E-2,3.049742281E-1
1.696596023E2,4.444041103E-2,3.619373962E-2,2.981020212E-1
1.701637166E2,3.863719851E-2,5.039634556E-2,3.060432673E-1
1.706678310E2,5.513054505E-2,7.116574794E-2,2.712239623E-1
1.711719454E2,1.174387559E-1,1.273653060E-1,1.443168074E-1
1.716760598E2,4.413498193E-2,6.734783947E-2,1.783725172E-1
1.721801744E2,2.489273995E-2,2.260199748E-2,1.069013327E-1
1.726842896E2,5.986474827E-2,4.123337194E-2,1.145371497E-1
1.731884051E2,-3.604102135E-2,-5.528326333E-2,1.435532235E-2
1.736925208E2,-9.621120058E-3,5.513054505E-2,-7.788525894E-3
1.741966363E2,-1.435532235E-2,-9.162971750E-3,-3.039052337E-2
1.747007518E2,-1.084284950E-2,-5.039634649E-3,-2.733619884E-2
1.752048671E2,-8.552107029E-3,-5.192350596E-3,-1.740964688E-2
1.757089822E2,2.443459118E-3,4.123337101E-3,-1.832594350E-2
1.762130972E2,-5.192350596E-3,-0.000000000E0,-1.359174121E-2
1.767172119E2,1.069013379E-3,5.955931731E-3,-7.330377586E-3
1.772213267E2,1.252272818E-2,1.450803876E-2,-4.734201822E-3
1.777254419E2,-3.512472380E-3,-3.970621154E-3,-2.138026757E-3
1.782295576E2,-3.665188793E-3,-1.527161920E-3,-3.970621154E-3
1.787336740E2,-4.428769462E-3,-3.054323897E-4,-4.581485991E-4
1.792377910E2,-3.207040019E-3,-6.261364091E-3,-1.679878100E-3
1.797419086E2,-3.359756200E-3,-1.221729559E-3,-6.108647678E-3
1.802460266E2,-7.177661173E-3,-5.803215317E-3,3.512472380E-3
1.807501452E2,5.192350596E-3,3.512472380E-3,-1.221729559E-3
1.812542645E2,-1.679878100E-3,7.635809598E-4,-1.069013379E-3
1.817583844E2,-4.123337101E-3,-2.901607659E-3,1.221729559E-3
1.822625046E2,1.069013379E-3,1.221729559E-3,-3.207040019E-3
1.827666248E2,3.359756200E-3,2.443459118E-3,-1.099556591E-2
1.832707448E2,-1.634063199E-2,-5.650499370E-3,6.261364091E-3
1.837748646E2,8.857538924E-3,7.635809598E-4,1.985310577E-3
1.842789843E2,6.719512399E-3,3.207040019E-3,-0.000000000E0
1.847831038E2,-7.483093534E-3,-4.276053514E-3,1.069013379E-3
1.852872234E2,2.596175298E-3,3.054323839E-3,-1.527161949E-4
1.857913430E2,-3.054323839E-3,1.832594350E-2,-1.237001177E-2
1.862954626E2,-3.359756200E-3,-2.443459118E-3,-3.054323897E-4
1.867995822E2,4.886918236E-3,-4.123337101E-3,5.955931731E-3
1.873037019E2,-5.497782957E-3,-1.679878100E-3,1.985310577E-3
1.878078213E2,5.650499370E-3,2.290742937E-3,1.069013379E-3
1.883119407E2,1.527161920E-3,-1.374445739E-3,6.108647794E-4
1.888160600E2,-3.359756200E-3,1.985310577E-3,-5.345067009E-3
1.893201793E2,-9.162971983E-4,-6.108647794E-4,-3.207040019E-3
1.898242985E2,-1.527161949E-4,-1.527161949E-4,4.123337101E-3
1.903284178E2,4.581485991E-4,-1.679878100E-3,2.901607659E-3
1.908325370E2,3.665188793E-3,-1.527161949E-4,3.054323897E-4
1.913366559E2,-1.481347065E-2,-3.054323839E-3,-3.665188793E-3
1.918407745E2,1.038470119E-2,5.803215317E-3,-3.817904973E-3
1.923448927E2,-1.527161949E-4,-2.596175298E-3,1.069013379E-3
1.928490105E2,-5.803215317E-3,-7.635809598E-4,3.054323897E-4
1.933531279E2,2.596175298E-3,-2.138026757E-3,4.581485875E-3
1.938572451E2,-4.886918142E-2,-2.306014486E-2,-1.420260593E-2
1.943613623E2,-2.138026804E-2,1.679878100E-3,-1.099556591E-2
1.948654794E2,-9.162971750E-3,-6.414080039E-3,-9.621120058E-3
1.953695962E2,-1.847865991E-2,-1.771507785E-2,-6.108647794E-4
1.958737124E2,8.399390616E-3,6.872228812E-3,1.374445739E-3
1.963778280E2,-1.374445739E-3,-4.581485991E-4,9.162971983E-4
1.968819428E2,3.054323897E-4,6.108647794E-4,1.527161949E-4
1.973860570E2,-3.054323839E-3,3.054323897E-4,-2.748891478E-3
1.978901707E2,-5.955931731E-3,-2.748891478E-3,-1.985310577E-3
1.983942838E2,5.192350596E-3,9.162971983E-4,3.207040019E-3
1.988983964E2,-1.527161949E-4,-1.527161920E-3,2.138026757E-3
1.994025086E2,-2.290742937E-3,-2.290742937E-3,6.108647794E-4
1.999066204E2,-4.734201822E-3,-1.527161949E-4,-1.985310577E-3
2.004107318E2,-5.650499370E-3,-1.221729559E-3,-3.512472380E-3
2.009148428E2,3.359756200E-3,-0.000000000E0,2.138026757E-3
2.014189535E2,1.985310577E-3,-4.581485991E-4,2.290742937E-3
2.019230642E2,-1.527161949E-4,-1.527161949E-4,0.000000000E0
2.024271751E2,-1.679878100E-3,-3.054323897E-4,-4.581485991E-4
2.029312863E2,-1.832594397E-3,-4.581485991E-4,-4.581485991E-4
2.034353976E2,-1.832594397E-3,1.527161920E-3,-3.207040019E-3
2.039395091E2,-2.901607659E-3,-1.527161949E-4,-2.748891478E-3
2.044436205E2,3.054323839E-3,-1.527161949E-4,1.832594397E-3
2.049477318E2,1.527161920E-3,1.069013379E-3,1.374445739E-3
2.054518429E2,6.108647794E-4,6.108647794E-4,1.527161949E-4
2.059559540E2,-1.832594397E-3,-1.527161920E-3,4.581485991E-4
2.064600652E2,1.679878100E-3,9.162971983E-4,6.108647794E-4
2.069641763E2,-3.207040019E-3,-9.162971983E-4,-2.748891478E-3
2.074682873E2,-1.679878100E-3,-4.581485991E-4,-1.374445739E-3
2.079723981E2,2.596175298E-3,2.596175298E-3,1.527161920E-3
2.084765086E2,4.520399496E-2,4.062250629E-2,3.970621154E-3
2.089806191E2,4.169152305E-2,6.291907281E-2,-1.679878100E-3
2.094847293E2,-5.039634649E-3,6.872228812E-3,-1.298087649E-2
2.099888393E2,9.621120058E-3,7.330377586E-3,-1.114828233E-2
2.104929490E2,-1.618791744E-2,-1.007926930E-2,-3.970621154E-3
2.109970581E2,-4.428769462E-3,-1.252272818E-2,-7.330377586E-3
2.115011667E2,1.527161989E-2,-1.679878100E-3,-1.527161920E-3
2.120052747E2,1.214093715E-1,7.086031139E-2,4.612028971E-2
2.125093821E2,-6.612611562E-2,-1.924224012E-2,-1.053741761E-2
2.130134891E2,-2.031125315E-2,-3.878991306E-2,1.114828233E-2
2.135175956E2,1.018617004E-1,-1.374445707E-1,-7.696896046E-2
2.140217013E2,2.107483521E-2,2.138026757E-3,-3.558287397E-2
2.145258073E2,-6.994401664E-2,9.086613357E-2,5.955931731E-3
2.150299132E2,5.115992576E-2,-4.734201822E-3,8.933897316E-2
2.155340190E2,-5.879573524E-2,2.703076601E-2,-1.557705179E-2
2.160381246E2,-5.070177838E-2,7.849612087E-2,2.871064469E-2
2.165422299E2,-1.130099874E-2,-3.359756246E-2,7.177661173E-3
2.170463349E2,-1.618791744E-2,-2.687804960E-2,1.114828233E-2
2.175504396E2,-2.367101051E-2,-3.008509055E-2,3.054323897E-4
2.180545441E2,-1.069013379E-3,-7.788525894E-3,-4.581485991E-4
2.185586483E2,3.054323839E-3,5.803215317E-3,5.192350596E-3
2.190627525E2,1.832594397E-3,6.872228812E-3,2.290742937E-3
2.195668567E2,5.650499370E-3,7.635809947E-3,4.428769462E-3
2.200709612E2,2.596175298E-3,1.237001177E-2,3.817904973E-3
2.205750656E2,-3.817904973E-3,-1.695149764E-2,1.664606482E-2
2.210791699E2,1.572976820E-2,-4.734201822E-3,8.552107029E-3
2.215832740E2,-1.893680729E-2,1.878409274E-2,-1.679878100E-3
2.220873780E2,1.206457894E-2,-3.512472380E-3,1.572976820E-2
2.225914818E2,-5.039634649E-3,3.313941509E-2,6.566796452E-3
2.230955860E2,3.711003438E-2,6.108647678E-3,7.635809947E-3
2.235996908E2,-8.552107029E-3,-2.229656465E-2,-1.817322709E-2
2.241037968E2,-1.603520103E-2,-2.901607659E-3,-1.725693047E-2
2.246079040E2,9.468403645E-3,-3.344484791E-2,1.710421406E-2
2.251120124E2,5.497782957E-3,3.084867075E-2,-8.704823442E-3
2.256161220E2,-1.053741761E-2,-3.207040019E-3,-1.130099874E-2
2.261202327E2,1.450803876E-2,3.512472659E-2,-4.581485991E-4
2.266243444E2,2.596175298E-3,5.192350596E-3,-7.941242307E-3
2.271284570E2,-7.177661173E-3,-4.428769462E-3,6.414080039E-3
2.276325704E2,1.298087649E-2,1.359174121E-2,1.420260593E-2
2.281366849E2,4.581485875E-3,-7.635809598E-4,-7.635809598E-4
2.286408002E2,-4.428769462E-3,-2.504545636E-2,-3.207040019E-3
2.291449166E2,-5.955931731E-3,-8.704823442E-3,-1.679878100E-3
2.296490341E2,4.276053514E-3,1.099556591E-2,-8.246674202E-3
2.301531530E2,-7.483093534E-3,-1.252272818E-2,-1.099556591E-2
2.306572735E2,6.261364091E-3,3.817904973E-3,7.941242307E-3
2.311613954E2,-1.221729536E-2,-2.596175298E-3,1.160643063E-2
2.316655184E2,-2.901607659E-3,6.566796452E-3,1.343902480E-2
2.321696422E2,-7.483093534E-3,1.527161920E-3,-1.069013402E-2
2.326737668E2,7.788525894E-3,-6.261364091E-3,4.428769462E-3
2.331778920E2,-2.153298259E-2,1.175914705E-2,-1.175914705E-2
2.336820176E2,-3.054323897E-4,3.130681813E-2,7.941242307E-3
2.341861437E2,4.123337101E-3,-6.872228812E-3,-4.734201822E-3
2.346902703E2,-1.985310577E-3,2.015853859E-2,2.443459118E-3
2.351943975E2,4.734201822E-3,-2.748891478E-3,1.160643063E-2
2.356985251E2,-2.290742844E-2,-1.282816008E-2,6.414080039E-3
2.362026531E2,-5.192350596E-3,-1.481347065E-2,-2.901607659E-3
2.367067816E2,-4.581485875E-3,4.581485875E-3,1.069013379E-3
2.372109102E2,4.886918236E-3,1.832594397E-3,-1.527161949E-4
2.377150392E2,-1.832594397E-3,-4.428769462E-3,1.069013379E-3
2.382191686E2,3.359756200E-3,9.162971983E-4,-5.955931731E-3
2.387232983E2,-2.504545636E-2,-1.298087649E-2,-1.221729536E-2
2.392274281E2,-2.443459118E-3,-1.343902480E-2,-1.740964688E-2
2.397315583E2,-1.267544460E-2,7.941242307E-3,-2.962694131E-2
2.402356885E2,4.734201822E-3,9.468403645E-3,-1.588248461E-2
2.407398187E2,9.162971983E-4,7.177661173E-3,-1.527161989E-2
2.412439488E2,-1.649334840E-2,6.872228812E-3,-5.039634649E-3
2.417480789E2,-5.955931731E-3,-9.621120058E-3,2.290742937E-3
2.422522089E2,4.123337101E-3,4.734201822E-3,-7.177661173E-3
2.427563387E2,1.252272818E-2,3.970621154E-3,-1.893680729E-2
2.432604682E2,-6.108647678E-3,-8.399390616E-3,-1.572976820E-2
2.437645974E2,-1.252272818E-2,6.719512399E-3,-1.481347065E-2
2.442687264E2,6.872228812E-3,-4.428769462E-3,-6.872228812E-3
2.447728552E2,-6.108647794E-4,1.527161920E-3,-1.374445762E-2
2.452769874E2,-2.748891478E-3,-1.527161949E-4,-1.786779426E-2
2.457811133E2,-7.330377586E-3,-1.145371422E-2,-1.130099874E-2
2.462852426E2,-4.276053514E-3,2.138026757E-3,-2.443459071E-2
2.467893720E2,-6.719512399E-3,-1.908952370E-2,-2.596175298E-2
2.472935013E2,1.832594397E-3,-2.443459118E-3,-2.458730713E-2
2.477976304E2,-1.527161920E-3,-4.734201822E-3,-2.092211880E-2
2.483017588E2,3.512472380E-3,-1.069013379E-3,-2.306014486E-2
2.488058865E2,-1.374445762E-2,-7.788525894E-3,-2.626718581E-2
2.493100136E2,-3.054323897E-4,-2.748891478E-3,-2.229656465E-2
2.498141401E2,-3.207040019E-3,-2.168569900E-2,-2.550360374E-2
2.503182661E2,-1.221729536E-2,-1.970038936E-2,-2.962694131E-2
2.508223916E2,-7.635809598E-4,7.635809598E-4,-3.863719851E-2
2.513265173E2,3.970621154E-3,-5.650499370E-3,-4.886918142E-2
2.518306435E2,-1.298087649E-2,-4.581485875E-3,-2.046396956E-2
2.523347702E2,-1.527161949E-4,-1.053741761E-2,-3.573558852E-2
2.528388974E2,-1.847865991E-2,-2.199113183E-2,-2.260199748E-2
2.533430250E2,4.734201822E-3,-1.038470119E-2,-1.863137633E-2
2.538471532E2,3.512472380E-3,-6.719512399E-3,-1.893680729E-2
2.543512821E2,-3.970621154E-3,-1.328630932E-2,-2.519817278E-2
2.548554114E2,6.108647794E-4,-2.214384824E-2,-3.145953640E-2
2.553595411E2,-1.145371422E-2,-2.031125315E-2,-3.985892609E-2
2.558636705E2,-1.114828233E-2,-2.596175298E-2,-3.970621154E-2
2.563677995E2,-7.483093534E-3,-8.093958721E-3,-4.352411628E-2
2.568719281E2,1.359174121E-2,6.414080039E-3,-4.856374860E-2
2.573760563E2,9.162971983E-4,1.221729559E-3,-3.756818548E-2
2.578801841E2,-6.872228812E-3,5.955931731E-3,-3.405570984E-2
2.583843115E2,9.773836471E-3,2.993237413E-2,-2.687804960E-2
2.588884385E2,1.924224012E-2,4.886918142E-2,-8.093958721E-3
2.593925650E2,2.122755162E-2,-1.572976820E-2,1.863137633E-2
2.598966914E2,-1.343902480E-2,1.404988952E-2,9.621120058E-3
2.604008180E2,3.268126398E-2,-6.108647794E-4,7.941242307E-3
2.609049449E2,-1.359174121E-2,-4.291325063E-2,3.054323897E-4
2.614090721E2,-3.527744114E-2,8.552107029E-3,-5.345067009E-3
2.619131997E2,2.962694131E-2,2.290742844E-2,4.886918236E-3
2.624173273E2,4.276053514E-3,-1.466075517E-2,3.817904973E-3
2.629214550E2,9.926552884E-3,3.207040206E-2,3.512472380E-3
2.634255827E2,-1.069013379E-3,-2.748891478E-3,-2.138026757E-3
2.639297105E2,-1.191186346E-2,-3.237583488E-2,-6.719512399E-3
2.644338382E2,7.635809598E-4,9.773836471E-3,-1.114828233E-2
2.649379655E2,-6.566796452E-3,-2.672533318E-2,-5.650499370E-3
2.654420929E2,2.000582218E-2,6.536252797E-2,1.252272818E-2
2.659462202E2,-4.581485875E-3,4.581485875E-3,1.145371422E-2
2.664503477E2,4.123337101E-3,1.756236330E-2,6.566796452E-3
2.669544752E2,5.650499370E-3,3.298669681E-2,4.428769462E-3
2.674586026E2,1.084284950E-2,-5.650499370E-3,2.565632015E-2
2.679627297E2,-1.191186346E-2,-4.474584386E-2,9.621120058E-3
2.684668565E2,1.298087649E-2,2.183841541E-2,1.542433538E-2
2.689709833E2,-3.665188700E-2,-7.024945319E-2,-3.665188793E-3
2.694751101E2,1.924224012E-2,1.191186346E-2,-3.054323897E-4
2.699792372E2,-2.138026804E-2,-4.428769648E-2,-1.038470119E-2
2.704833649E2,4.734201822E-3,6.566796452E-3,-1.007926930E-2
2.709874934E2,-4.276053514E-3,-9.773836471E-3,-7.024944760E-3
2.714916229E2,-1.252272818E-2,-1.252272818E-2,-3.359756200E-3
2.719957536E2,1.374445762E-2,2.825249545E-2,-3.207040019E-3
2.724998853E2,-9.010255337E-3,-3.329212964E-2,-6.108647794E-4
2.730040177E2,-4.734201822E-3,-1.252272818E-2,-7.330377586E-3
2.735081509E2,7.635809598E-4,9.468403645E-3,-1.389717404E-2
2.740122853E2,-2.412915789E-2,-1.435532235E-2,-1.985310577E-3
2.745164202E2,2.855792828E-2,1.634063199E-2,-3.817904973E-3
2.750205561E2,-1.481347065E-2,2.748891478E-3,-4.428769462E-3
2.755246930E2,9.773836471E-3,1.252272818E-2,5.803215317E-3
2.760288304E2,-6.566796452E-3,-1.374445739E-3,1.374445739E-3
2.765329681E2,-2.290742937E-3,-5.650499370E-3,-4.886918236E-3
2.770371057E2,3.970621154E-3,5.650499370E-3,1.832594397E-3
2.775412434E2,-6.108647794E-4,-8.857538924E-3,0.000000000E0
2.780453811E2,-0.000000000E0,-2.901607659E-3,4.428769462E-3
2.785495188E2,-3.054323839E-3,1.099556591E-2,6.414080039E-3
2.790536565E2,1.069013379E-3,2.138026757E-3,-1.221729559E-3
2.795577943E2,-3.817904973E-3,-9.315688163E-3,-5.955931731E-3
2.800619318E2,9.162971983E-4,-3.970621154E-3,-1.221729559E-3
2.805660693E2,3.359756200E-3,1.252272818E-2,2.596175298E-3
2.810702066E2,-5.650499370E-3,-1.847865991E-2,1.221729559E-3
2.815743437E2,8.552107029E-3,3.191768378E-2,5.192350596E-3
2.820784807E2,0.000000000E0,-2.993237413E-2,-7.024944760E-3
2.825826174E2,-1.038470119E-2,2.092211880E-2,-1.420260593E-2
2.830867541E2,5.803215317E-3,-8.399390616E-3,-6.719512399E-3
2.835908905E2,4.428769462E-3,2.718348242E-2,1.145371422E-2
2.840950266E2,6.261364091E-3,4.581485991E-4,-1.221729559E-3
2.845991623E2,-2.397644334E-2,-5.894844979E-2,4.428769462E-3
2.851032976E2,1.572976820E-2,4.566214234E-2,4.734201822E-3
2.856074327E2,-1.053741761E-2,-1.939495653E-2,-6.414080039E-3
2.861115683E2,7.024944760E-3,1.542433538E-2,2.748891478E-3
2.866157041E2,2.138026757E-3,-5.955931731E-3,-9.162971750E-3
2.871198401E2,-7.024944760E-3,-6.872228812E-3,2.443459118E-3
2.876239760E2,1.634063199E-2,2.641990222E-2,6.566796452E-3
2.881281119E2,-1.404988952E-2,-3.924806044E-2,-5.803215317E-3
2.886322477E2,3.054323897E-4,1.404988952E-2,-1.832594397E-3
2.891363834E2,7.177661173E-3,1.527161920E-3,2.290742937E-3
2.896405192E2,-1.527161949E-4,-5.192350596E-3,1.221729559E-3
2.901446550E2,1.221729559E-3,8.704823442E-3,4.428769462E-3
2.906487909E2,-0.000000000E0,-1.527161949E-4,2.596175298E-3
2.911529267E2,2.138026757E-3,-2.290742937E-3,-2.901607659E-3
2.916570623E2,-6.108647794E-4,-1.328630932E-2,-1.832594397E-3
2.921611977E2,1.985310577E-3,-4.276053514E-3,3.512472380E-3
2.926653330E2,2.901607659E-3,1.206457894E-2,-1.221729559E-3
2.931694680E2,0.000000000E0,-8.704823442E-3,-4.581485991E-4
2.936736028E2,7.635809598E-4,1.572976820E-2,-4.428769462E-3
2.941777374E2,3.054323897E-4,2.138026757E-3,-4.581485875E-3
2.946818719E2,6.108647794E-4,-1.588248461E-2,1.221729559E-3
2.951860063E2,3.970621154E-3,1.878409274E-2,7.330377586E-3
2.956901407E2,3.665188793E-3,-1.420260593E-2,8.246674202E-3
2.961942749E2,-8.582650125E-2,-4.337139800E-2,1.038470119E-2
2.966984092E2,5.742128938E-2,4.978547990E-2,-4.581485991E-4
2.972025434E2,-4.123337194E-2,-8.032871783E-2,-1.557705179E-2
2.977066774E2,1.237001177E-2,6.108647794E-4,-1.679878100E-3
2.982108112E2,-5.497782957E-3,5.222893879E-2,-5.192350596E-3
2.987149449E2,3.970621154E-3,-1.817322709E-2,5.497782957E-3
2.992190783E2,1.817322709E-2,4.001164436E-2,9.621120058E-3
2.997232111E2,3.359756200E-3,-1.618791744E-2,4.734201822E-3
3.002273436E2,-1.130099874E-2,-1.817322709E-2,-6.719512399E-3
3.007314758E2,8.093958721E-3,6.261364091E-3,-1.053741761E-2
3.012356081E2,4.886918236E-3,6.414080039E-3,-8.246674202E-3
3.017397410E2,-2.290742937E-3,7.788525894E-3,3.665188793E-3
3.022438745E2,-1.679878100E-3,-6.108647794E-4,4.581485875E-3
3.027480085E2,1.466075517E-2,1.740964688E-2,6.719512399E-3
3.032521430E2,-1.359174121E-2,-9.468403645E-3,-5.803215317E-3
3.037562775E2,1.114828233E-2,1.023198478E-2,5.192350596E-3
3.042604121E2,-5.345067009E-3,-1.343902480E-2,-4.581485991E-4
3.047645467E2,7.941242307E-3,1.099556591E-2,3.665188793E-3
3.052686810E2,3.817904973E-3,0.000000000E0,6.108647794E-4
3.057728153E2,-1.114828233E-2,-1.924224012E-2,-3.512472380E-3
3.062769497E2,1.221729559E-3,0.000000000E0,-3.207040019E-3
3.067810848E2,8.552107029E-3,-9.315688163E-3,3.970621154E-3
3.072852212E2,-6.872228812E-3,1.221729559E-3,-7.024944760E-3
3.077893597E2,5.192350596E-3,7.483093534E-3,1.527161949E-4
3.082935010E2,3.817904973E-3,3.665188793E-3,1.679878100E-3
3.087976449E2,-1.817322709E-2,-4.428769462E-3,-1.069013379E-3
3.093017914E2,1.970038936E-2,2.229656465E-2,-3.970621154E-3
3.098059406E2,-1.374445739E-3,2.275471389E-2,1.206457894E-2
3.103100925E2,1.496618707E-2,1.374445739E-3,1.908952370E-2
3.108142473E2,-1.664606482E-2,-3.252854943E-2,3.665188793E-3
3.113184049E2,-4.276053514E-3,-6.719512399E-3,-5.039634649E-3
3.118225651E2,3.054323897E-4,-7.941242307E-3,-1.710421406E-2
3.123267270E2,-2.138026757E-3,9.468403645E-3,-1.099556591E-2
3.128308904E2,-9.010255337E-3,-3.054323839E-3,2.901607659E-3
3.133350551E2,7.788525894E-3,-4.581485991E-4,3.054323839E-3
3.138392205E2,2.290742937E-3,-6.566796452E-3,-1.527161920E-3
3.143433865E2,-3.512472380E-3,-8.704823442E-3,6.108647794E-4
3.148475525E2,1.252272818E-2,2.214384824E-2,3.817904973E-3
3.153517186E2,-8.857538924E-3,-3.161225095E-2,-2.748891478E-3
3.158558848E2,-1.114828233E-2,-2.183841541E-2,1.221729559E-3
3.163600514E2,2.886336111E-2,-5.955931731E-3,1.206457894E-2
3.168642180E2,-1.282816008E-2,-2.031125315E-2,1.343902480E-2
3.173683846E2,-3.970621154E-3,4.734201822E-3,1.878409274E-2
3.178725509E2,2.901607659E-3,1.725693047E-2,2.428187430E-2
3.183767170E2,1.160643063E-2,-1.175914705E-2,2.000582218E-2
3.188808828E2,-2.748891478E-3,7.330377586E-3,1.328630932E-2
3.193850482E2,-6.108647794E-4,3.069595434E-2,1.298087649E-2
3.198892134E2,1.221729559E-3,3.207040019E-3,1.786779426E-2
3.203933786E2,1.160643063E-2,-6.414080039E-3,2.000582218E-2
3.208975440E2,-2.290742937E-3,1.237001177E-2,1.343902480E-2
3.214017094E2,-6.261364091E-3,1.832594397E-3,1.572976820E-2
3.219058747E2,8.246674202E-3,-5.039634649E-3,1.450803876E-2
3.224100397E2,1.481347065E-2,-1.954767294E-2,2.260199748E-2
3.229142044E2,-3.588830680E-2,1.221729559E-3,1.542433538E-2
3.234183686E2,2.840521187E-2,3.313941509E-2,1.389717404E-2
3.239225321E2,8.246674202E-3,8.093958721E-3,-2.290742937E-3
3.244266947E2,-1.450803876E-2,3.191768378E-2,6.414080039E-3
3.249308563E2,2.138026804E-2,1.939495653E-2,1.832594397E-3
3.254350166E2,-1.725693047E-2,-1.527161989E-2,1.679878100E-3
3.259391754E2,1.740964688E-2,3.497200832E-2,8.704823442E-3
3.264433330E2,-1.740964688E-2,-1.404988952E-2,-1.832594397E-3
3.269474892E2,1.542433538E-2,-7.788525894E-3,1.527161949E-4
3.274516443E2,-9.926552884E-3,-9.162971750E-3,-3.207040019E-3
3.279557984E2,9.468403645E-3,3.390299529E-2,9.162971983E-4
3.284599516E2,2.443459118E-3,-3.283398226E-2,-1.374445739E-3
3.289641036E2,-4.276053514E-3,3.527744114E-2,9.773836471E-3
3.294682547E2,1.664606482E-2,1.160643063E-2,1.038470119E-2
3.299724048E2,-1.374445762E-2,-8.552107029E-3,-4.276053514E-3
3.304765542E2,1.053741761E-2,-7.788525894E-3,-4.581485875E-3
3.309807028E2,-1.267544460E-2,-1.695149764E-2,-6.108647794E-4
3.314848507E2,1.588248461E-2,2.000582218E-2,1.221729559E-3
3.319889976E2,-8.704823442E-3,-1.695149764E-2,-6.414080039E-3
3.324931436E2,-1.374445739E-3,2.138026757E-3,-1.527161949E-4
3.329972891E2,2.244928107E-2,-2.718348242E-2,-8.704823442E-3
3.335014340E2,-5.940660089E-2,-1.649334840E-2,3.817904973E-3
3.340055780E2,-6.108647678E-3,4.352411628E-2,8.704823442E-3
3.345097223E2,1.817322709E-2,-1.603520103E-2,-6.261364091E-3
3.350138666E2,-8.093958721E-3,-1.572976820E-2,1.099556591E-2
3.355180115E2,1.435532235E-2,1.404988952E-2,5.650499370E-3
3.360221573E2,-2.092211880E-2,-4.993819445E-2,-7.024944760E-3
3.365263037E2,3.970621154E-3,6.872228812E-3,-8.399390616E-3
3.370304507E2,1.069013379E-3,2.565632015E-2,-9.621120058E-3
3.375345985E2,5.497782957E-3,7.635809947E-3,-1.160643063E-2
3.380387521E2,1.847865991E-2,4.489856213E-2,1.481347065E-2
3.385428962E2,4.886918236E-3,-2.519817278E-2,1.114828233E-2
3.390470459E2,-4.581485875E-3,-2.565632015E-2,-6.719512399E-3
3.395511957E2,1.908952370E-2,5.513054505E-2,1.389717404E-2
3.400553459E2,-1.786779426E-2,-5.665770918E-2,-1.679878100E-3
3.405594964E2,-1.832594397E-3,8.704823442E-3,7.483093534E-3
3.410636473E2,2.596175298E-3,2.596175298E-3,-2.596175298E-3
3.415677986E2,-9.162971983E-4,7.635809598E-4,-3.512472380E-3
3.420719503E2,-1.664606482E-2,1.237001177E-2,-8.246674202E-3
3.425761025E2,3.558287397E-2,2.214384824E-2,-3.359756200E-3
3.430802552E2,-5.375609919E-2,-6.520981342E-2,3.054323839E-3
3.435844086E2,2.657261863E-2,6.307178736E-2,3.817904973E-3
3.440885626E2,3.359756200E-3,-3.817904741E-2,-8.399390616E-3
3.445927173E2,5.803215317E-3,9.773836471E-3,1.374445739E-3
3.450968727E2,-9.926552884E-3,2.748891478E-3,1.374445739E-3
3.456010288E2,1.175914705E-2,1.649334840E-2,-4.581485991E-4
3.461051853E2,2.153298259E-2,9.773836471E-3,-7.635809598E-4
3.466093420E2,-1.221729559E-3,-1.618791744E-2,1.023198478E-2
3.471134985E2,-6.719512399E-3,6.108647678E-3,-3.665188793E-3
3.476176551E2,9.926552884E-3,-1.832594397E-3,4.886918236E-3
3.481218119E2,-5.039634649E-3,-7.024944760E-3,2.748891478E-3
3.486259689E2,-2.290742937E-3,3.359756200E-3,-3.970621154E-3
3.491301262E2,-6.261364091E-3,-2.641990222E-2,-2.596175298E-3
3.496342839E2,1.191186346E-2,2.596175298E-2,2.138026757E-3
3.501384417E2,1.252272818E-2,-1.496618707E-2,-3.665188793E-3
3.506425995E2,-6.444623321E-2,-4.046979174E-2,1.114828233E-2
3.511467572E2,1.206457894E-2,5.971203372E-2,-1.069013379E-3
3.516509145E2,-5.650499370E-3,-2.199113183E-2,-4.581485875E-3
3.521550715E2,2.748891478E-3,-4.123337101E-3,-7.635809598E-4
3.526592281E2,7.177661173E-3,4.169152305E-2,1.267544460E-2
3.531633840E2,3.512472380E-3,-4.627300799E-2,-8.093958721E-3
3.536675390E2,-7.635809947E-3,1.313359290E-2,-1.527161920E-3
3.541716931E2,-8.093958721E-3,3.207040019E-3,-7.024944760E-3
3.546758462E2,1.710421406E-2,3.359756200E-3,-2.596175298E-3
3.551799985E2,-8.093958721E-3,9.162971983E-4,-9.162971983E-4
3.556841503E2,1.435532235E-2,-5.955931731E-3,1.527161920E-3
3.561883013E2,3.207040019E-3,-9.315688163E-3,4.428769462E-3
3.566924513E2,2.138026757E-3,1.191186346E-2,2.290742937E-3
3.571966004E2,1.221729559E-3,-6.872228812E-3,-4.581485991E-4
3.577007485E2,-9.773836471E-3,9.926552884E-3,4.581485991E-4
3.582048957E2,1.069013379E-3,5.039634649E-3,-6.566796452E-3
3.587090421E2,-3.054323839E-3,-8.857538924E-3,-1.527161949E-4
3.592131876E2,-8.246674202E-3,-1.267544460E-2,-9.162971983E-4
3.597173326E2,2.000582218E-2,1.359174121E-2,8.857538924E-3
3.602214779E2,-4.581485991E-4,1.359174121E-2,-3.054323897E-4
3.607256235E2,-9.926552884E-3,-1.069013402E-2,7.635809598E-4
3.612297694E2,6.872228812E-3,-9.315688163E-3,-1.374445739E-3
3.617339157E2,-9.621120058E-3,-8.246674202E-3,-7.024944760E-3
3.622380624E2,7.788525894E-3,1.496618707E-2,-2.596175298E-3
3.627422096E2,-5.192350596E-3,9.162971750E-3,1.069013379E-3
3.632463572E2,2.443459118E-3,1.832594397E-3,5.955931731E-3
3.637505050E2,3.970621154E-3,-1.832594397E-3,6.108647794E-4
3.642546533E2,1.527161949E-4,-1.221729559E-3,1.832594397E-3
3.647588022E2,-6.414080039E-3,-7.330377586E-3,-5.803215317E-3
3.652629515E2,6.872228812E-3,1.389717404E-2,3.054323897E-4
3.657671009E2,-6.872228812E-3,-1.374445762E-2,-1.374445739E-3
3.662712504E2,1.313359290E-2,3.252854943E-2,-1.527161949E-4
3.667753999E2,-7.788525894E-3,-1.710421406E-2,2.748891478E-3
3.672795492E2,4.428769462E-3,3.970621154E-3,1.069013379E-3
3.677836985E2,4.581485875E-3,1.038470119E-2,-7.330377586E-3
3.682878475E2,-4.886918236E-3,-2.138026757E-3,4.734201822E-3
3.687919964E2,2.229656465E-2,1.282816008E-2,-2.901607659E-3
3.692961453E2,-1.069013379E-3,-1.939495653E-2,-3.817904973E-3
3.698002942E2,-7.635809598E-4,7.177661173E-3,-6.108647678E-3
3.703044431E2,7.788525894E-3,9.468403645E-3,-5.345067009E-3
3.708085920E2,-2.596175298E-2,-1.527161989E-2,-6.108647794E-4
3.713127408E2,2.596175298E-3,1.572976820E-2,-1.069013379E-3
3.718168894E2,-1.038470119E-2,-3.359756200E-3,-9.621120058E-3
3.723210376E2,-1.175914705E-2,3.817904973E-3,-4.276053514E-3
3.728251854E2,1.237001177E-2,-1.023198478E-2,1.221729536E-2
3.733293327E2,8.857538924E-3,1.252272818E-2,5.497782957E-3
3.738334797E2,2.901607659E-3,-4.428769462E-3,1.252272818E-2
3.743376264E2,-5.039634649E-3,-8.552107029E-3,5.345067009E-3
3.748417729E2,4.581485875E-3,2.061668597E-2,1.053741761E-2
3.753459192E2,9.162971983E-4,3.359756200E-3,-4.428769462E-3
3.758500654E2,-3.359756200E-3,-2.871064469E-2,-4.428769462E-3
3.763542117E2,3.817904973E-3,8.246674202E-3,-2.138026757E-3
3.768583579E2,-1.985310577E-3,8.857538924E-3,-4.428769462E-3
3.773625041E2,1.191186346E-2,1.069013379E-3,1.832594397E-3
3.778666503E2,1.038470119E-2,1.649334840E-2,-1.679878100E-3
3.783707966E2,-3.191768378E-2,-1.527161920E-3,-4.734201822E-3
3.788749429E2,4.596757516E-2,3.420842811E-2,-2.138026757E-3
3.793790891E2,-3.359756246E-2,-6.047561392E-2,1.374445739E-3
3.798832351E2,2.718348242E-2,4.856374860E-2,2.748891478E-3
3.803873810E2,-1.221729536E-2,-5.772672221E-2,4.276053514E-3
3.808915268E2,-7.330377586E-3,-1.496618707E-2,1.175914705E-2
3.813956726E2,1.893680729E-2,1.970038936E-2,-3.207040019E-3
3.818998183E2,-2.290742937E-3,-8.399390616E-3,-3.054323897E-4
3.824039641E2,-2.290742937E-3,-2.748891478E-3,-3.054323897E-4
3.829081100E2,3.054323897E-4,-7.788525894E-3,1.069013379E-3
3.834122559E2,7.635809598E-4,2.489273995E-2,-2.138026757E-3
3.839164017E2,-6.719512399E-3,-1.985310577E-2,4.123337101E-3
3.844205475E2,-7.177661173E-3,1.420260593E-2,-3.817904973E-3
3.849246932E2,2.260199748E-2,1.069013379E-3,4.734201822E-3
3.854288385E2,-1.679878123E-2,5.955931731E-3,1.985310577E-3
3.859329837E2,1.939495653E-2,2.183841541E-2,6.261364091E-3
3.864371286E2,-2.275471389E-2,-4.474584386E-2,-6.261364091E-3
3.869412732E2,-1.267544460E-2,1.527161920E-3,6.261364091E-3
3.874454176E2,5.497782957E-3,-3.023780696E-2,1.527161920E-3
3.879495616E2,3.970621154E-3,1.206457894E-2,-7.941242307E-3
3.884537054E2,1.114828233E-2,2.458730713E-2,1.221729559E-3
3.889578489E2,-1.023198478E-2,-2.703076601E-2,-2.901607659E-3
3.894619921E2,1.527161949E-4,2.733619884E-2,-1.069013379E-3
3.899661348E2,5.803215317E-3,-2.306014486E-2,1.527161949E-4
3.904702771E2,-1.649334840E-2,1.527161920E-3,-5.955931731E-3
3.909744189E2,2.962694131E-2,3.512472659E-2,7.177661173E-3
3.914785602E2,-1.756236330E-2,-4.169152305E-2,1.069013379E-3
3.919827011E2,-3.512472380E-3,9.926552884E-3,-4.123337101E-3
3.924868416E2,3.359756200E-3,2.290742937E-3,-7.941242307E-3
3.929909818E2,6.414080039E-3,1.557705179E-2,2.443459118E-3
3.934951217E2,-8.246674202E-3,3.054323839E-3,5.039634649E-3
3.939992617E2,7.941242307E-3,3.207040019E-3,3.817904973E-3
3.945034010E2,-5.650499370E-3,0.000000000E0,1.221729559E-3
3.950075400E2,-1.572976820E-2,-3.008509055E-2,-1.588248461E-2
3.955116786E2,-1.206457894E-2,-2.122755162E-2,-3.268126398E-2
3.960158169E2,9.315688163E-3,4.886918236E-3,-3.176496923E-2
3.965199550E2,-1.725693047E-2,5.803215317E-3,-2.703076601E-2
3.970240927E2,6.719512399E-3,7.788525894E-3,-3.329212964E-2
3.975282303E2,-1.221729536E-2,-2.214384824E-2,-4.046979174E-2
3.980323676E2,-2.855792828E-2,-6.475166976E-2,-4.841103405E-2
3.985365047E2,-2.535088919E-2,-3.741546720E-2,-6.414080411E-2
3.990406415E2,1.832594397E-3,-1.832594350E-2,-6.276635826E-2
3.995447781E2,-1.695149764E-2,-2.000582218E-2,-6.597339362E-2
4.000489145E2,-6.719512399E-3,1.160643063E-2,-7.284562290E-2
4.005530507E2,-6.566796452E-3,1.191186346E-2,-6.322450191E-2
4.010571870E2,-7.483093534E-3,-1.466075517E-2,-5.161807314E-2
4.015613233E2,-1.145371422E-2,1.069013402E-2,-4.841103405E-2
4.020654597E2,7.788525894E-3,-1.206457894E-2,-4.260781780E-2
4.025695963E2,-1.740964688E-2,3.665188793E-3,-2.657261863E-2
4.030737330E2,2.748891525E-2,-4.581485875E-3,-2.474002354E-2
4.035778697E2,-6.108647794E-4,3.848448023E-2,-1.084284950E-2
4.040820065E2,2.382372692E-2,5.039634649E-3,-3.054323839E-3
4.045861434E2,-2.748891525E-2,-6.337722391E-2,-5.345067009E-3
4.050902804E2,3.817904973E-3,1.450803876E-2,-6.414080039E-3
4.055944175E2,9.315688163E-3,2.168569900E-2,-3.054323897E-4
4.060985547E2,-1.832594397E-3,-2.947422490E-2,-2.138026757E-3
4.066026919E2,3.817904973E-3,1.649334840E-2,1.527161949E-4
4.071068293E2,-2.443459118E-3,1.053741761E-2,2.748891478E-3
4.076109668E2,1.832594397E-3,-4.581485875E-3,6.108647794E-4
4.081151043E2,-5.955931731E-3,-6.566796452E-3,-1.221729559E-3
4.086192416E2,3.970621154E-3,-7.941242307E-3,-2.901607659E-3
4.091233787E2,9.162971750E-3,1.053741761E-2,-4.734201822E-3
4.096275155E2,9.162971750E-3,1.130099874E-2,7.635809598E-4
4.101316521E2,1.237001177E-2,1.466075517E-2,1.023198478E-2
4.106357885E2,-8.552107029E-3,-2.596175298E-3,4.734201822E-3
4.111399248E2,-8.399390616E-3,-1.206457894E-2,-1.145371422E-2
4.116440611E2,3.359756200E-3,2.901607752E-2,-1.069013379E-3
4.121481976E2,6.566796452E-3,-4.276053514E-3,2.596175298E-3
4.126523342E2,-9.315688163E-3,-5.879573524E-2,3.207040019E-3
4.131564710E2,-6.627883017E-2,2.718348242E-2,7.788525894E-3
4.136606081E2,6.185005978E-2,7.956513762E-2,7.788525894E-3
4.141647454E2,-4.413498193E-2,-1.009454057E-1,-3.207040019E-3
4.146688829E2,1.908952370E-2,2.916879393E-2,-1.374445739E-3
4.151730205E2,-4.123337101E-3,-4.428769462E-3,-1.374445739E-3
4.156771582E2,-1.527161949E-4,-1.832594350E-2,-5.192350596E-3
4.161812959E2,4.886918236E-3,1.282816008E-2,3.054323897E-4
4.166854338E2,3.512472380E-3,-1.084284950E-2,-6.108647678E-3
4.171895714E2,-4.581485991E-4,1.832594397E-3,2.901607659E-3
4.176937090E2,2.046396956E-2,1.756236330E-2,2.596175298E-3
4.181978465E2,-1.618791744E-2,1.069013402E-2,-5.955931731E-3
4.187019838E2,5.650499370E-3,-4.886918236E-3,6.719512399E-3
4.192061208E2,7.635809598E-4,-1.832594350E-2,4.581485875E-3
4.197102576E2,5.039634649E-3,2.061668597E-2,-3.054323839E-3
4.202143940E2,-7.177661173E-3,-1.572976820E-2,-4.123337101E-3
4.207185303E2,-9.926552884E-3,1.298087649E-2,2.443459118E-3
4.212226664E2,5.955931731E-3,6.872228812E-3,-7.330377586E-3
4.217268021E2,8.246674202E-3,1.710421406E-2,-1.069013379E-3
4.222309377E2,3.054323897E-4,-1.084284950E-2,9.315688163E-3
4.227350729E2,-7.330377586E-3,-1.175914705E-2,1.221729559E-3
4.232392078E2,1.221729559E-3,-1.053741761E-2,3.054323897E-4
4.237433425E2,4.581485875E-3,1.496618707E-2,4.123337101E-3
4.242474769E2,-5.039634649E-3,-1.191186346E-2,5.345067009E-3
4.247516113E2,-2.290742937E-3,-1.649334840E-2,7.635809598E-4
4.252557456E2,6.108647794E-4,-3.207040019E-3,4.886918236E-3
4.257598799E2,3.665188793E-3,-5.039634649E-3,5.497782957E-3
4.262640140E2,1.679878100E-3,-4.428769462E-3,1.267544460E-2
4.267681479E2,6.414080039E-3,-7.177661173E-3,1.924224012E-2
4.272722817E2,1.298087649E-2,-1.863137633E-2,3.207040206E-2
4.277764152E2,1.374445739E-3,-2.351829410E-2,3.237583488E-2
4.282805484E2,-4.581485991E-4,9.621120058E-3,4.337139800E-2
4.287846814E2,-1.572976820E-2,1.954767294E-2,3.252854943E-2
4.292888141E2,4.520399496E-2,-2.290742844E-2,5.635227636E-2
4.297929466E2,-1.893680729E-2,-9.315688163E-3,4.444041103E-2
4.302970790E2,3.069595434E-2,4.046979174E-2,4.428769648E-2
4.308012110E2,-1.679878100E-3,5.650499370E-3,4.810560122E-2
4.313053428E2,2.321286127E-2,2.183841541E-2,6.505709887E-2
4.318094736E2,7.635809598E-4,-4.123337101E-3,5.314523727E-2
4.323136042E2,2.336557768E-2,2.794706449E-2,5.543597788E-2
4.328177348E2,-4.581485875E-3,-7.330377586E-3,4.688387364E-2
4.333218656E2,2.092211880E-2,5.314523727E-2,5.497783050E-2
4.338259969E2,2.901607659E-3,-2.336557768E-2,6.841685623E-2
4.343301288E2,-1.511890348E-2,-8.093958721E-3,5.696314201E-2
4.348342610E2,9.926552884E-3,1.939495653E-2,5.803215504E-2
4.353383932E2,1.313359290E-2,-7.483093534E-3,4.917461425E-2
4.358425252E2,-1.908952370E-2,-7.483093534E-3,3.100138716E-2
4.363466568E2,9.926552884E-3,3.451386094E-2,3.100138716E-2
4.368507878E2,-1.084284950E-2,1.527161949E-4,2.840521187E-2
4.373549182E2,7.635809947E-3,9.468403645E-3,1.679878123E-2
4.378590480E2,-1.985310577E-3,1.481347065E-2,2.015853859E-2
4.383631774E2,2.000582218E-2,2.611446939E-2,1.160643063E-2
4.388673060E2,-4.581485689E-2,-1.343902480E-2,1.374445739E-3
4.393714343E2,2.916879393E-2,5.192350596E-2,-1.985310577E-3
4.398755619E2,-8.704823442E-3,-2.138026757E-3,-2.748891478E-3
4.403796892E2,1.038470119E-2,-7.024944760E-3,5.803215317E-3
4.408838160E2,-5.345067009E-3,2.092211880E-2,7.635809598E-4
4.413879424E2,9.773836471E-3,7.635809947E-3,4.886918236E-3
4.418920685E2,-9.162971983E-4,-6.414080039E-3,7.177661173E-3
4.423961944E2,1.420260593E-2,2.748891478E-3,6.872228812E-3
4.429003200E2,-9.315688163E-3,-3.054323979E-2,-7.635809598E-4
4.434044453E2,-3.970621154E-3,7.177661173E-3,-1.221729559E-3
4.439085705E2,2.290742937E-3,7.177661173E-3,-2.290742937E-3
4.444126956E2,-3.817904973E-3,3.970621154E-3,-2.901607659E-3
4.449168206E2,5.192350596E-3,1.954767294E-2,-1.985310577E-3
4.454209458E2,-1.221729559E-3,-1.313359290E-2,1.130099874E-2
4.459250713E2,-6.108647794E-4,2.000582218E-2,3.665188793E-3
4.464291970E2,-4.428769462E-3,-1.206457894E-2,8.399390616E-3
4.469333229E2,1.527161949E-4,-5.955931731E-3,1.069013379E-3
4.474374489E2,1.832594397E-3,-5.345067009E-3,5.803215317E-3
4.479415750E2,5.650499370E-3,-1.221729559E-3,1.832594397E-3
4.484457009E2,2.748891478E-3,4.581485991E-4,-5.039634649E-3
4.489498267E2,-1.053741761E-2,-1.527161949E-4,-5.650499370E-3
4.494539521E2,2.748891478E-3,6.108647794E-4,-8.093958721E-3
4.499580773E2,-1.985310577E-3,-6.566796452E-3,-7.024944760E-3
4.504622020E2,-2.138026757E-3,1.069013379E-3,-4.886918236E-3
4.509663263E2,-4.581485991E-4,7.635809947E-3,-9.162971983E-4
4.514704502E2,3.665188793E-3,-1.298087649E-2,0.000000000E0
4.519745739E2,-2.183841541E-2,-5.024362728E-2,-1.588248461E-2
4.524786974E2,-1.970038936E-2,-4.780016840E-2,-3.588830680E-2
4.529828209E2,-1.939495653E-2,-3.100138716E-2,-5.833758786E-2
4.534869444E2,-2.626718581E-2,2.596175298E-2,-5.910116807E-2
4.539910671E2,5.085449293E-2,1.945604384E-1,-1.374445762E-2
4.544951903E2,2.794706449E-2,6.887500733E-2,3.878991306E-2
4.549993135E2,1.404988952E-2,7.788525894E-3,9.239330143E-2
4.555034366E2,2.596175298E-2,5.161807314E-2,1.116355360E-1
4.560075600E2,-1.237001177E-2,-5.131264031E-2,9.071341902E-2
4.565116839E2,-2.916879393E-2,-8.231402934E-2,5.039634556E-2
4.570158083E2,-6.872228812E-3,-8.979712427E-2,-7.788525894E-3
4.575199332E2,-3.665188700E-2,-2.596175298E-2,-4.596757516E-2
4.580240585E2,-8.246674202E-3,-0.000000000E0,-3.268126398E-2
4.585281843E2,-3.359756200E-3,-2.443459118E-3,-2.809977904E-2
4.590323105E2,7.941242307E-3,7.024944760E-3,-2.504545636E-2
4.595364370E2,3.970621154E-3,-1.175914705E-2,-1.420260593E-2
4.600405639E2,-9.162971983E-4,1.221729559E-3,-4.276053514E-3
4.605446911E2,1.130099874E-2,2.046396956E-2,-1.542433538E-2
4.610488187E2,-9.162971750E-3,-1.298087649E-2,-1.466075517E-2
4.615529465E2,-5.650499370E-3,2.290742937E-3,-1.069013379E-3
4.620570746E2,5.650499370E-3,1.435532235E-2,8.246674202E-3
4.625612028E2,1.069013379E-3,1.252272818E-2,1.221729559E-3
4.630653312E2,4.581485991E-4,-1.527161989E-2,7.024944760E-3
4.635694599E2,2.290742937E-3,-3.054323897E-4,-3.054323897E-4
4.640735887E2,-5.497782957E-3,-6.108647678E-3,5.955931731E-3
4.645777175E2,-1.069013379E-3,-3.054323897E-4,-9.621120058E-3
4.650818463E2,-6.108647794E-4,7.635809947E-3,-1.298087649E-2
4.655859751E2,-1.786779426E-2,-1.145371422E-2,-4.123337101E-3
4.660901039E2,-6.566796452E-3,5.039634649E-3,-1.099556591E-2
4.665942328E2,-1.985310577E-3,-3.359756200E-3,-1.160643063E-2
4.670983619E2,7.635809598E-4,-2.214384824E-2,-1.786779426E-2
4.676024911E2,-7.177661173E-3,-1.298087649E-2,-2.474002354E-2
4.681066206E2,-2.596175298E-3,-2.336557768E-2,-3.207040206E-2
4.686107502E2,-1.191186346E-2,-2.306014486E-2,-2.611446939E-2
4.691148800E2,-6.108647678E-3,-6.414080039E-3,-2.412915789E-2
4.696190102E2,-4.581485875E-3,-1.527161949E-4,-2.809977904E-2
4.701231405E2,9.162971983E-4,-1.328630932E-2,-1.878409274E-2
4.706272707E2,-1.527161989E-2,-4.428769462E-3,-1.572976820E-2
4.711314008E2,1.527161920E-3,-3.512472380E-3,-1.481347065E-2
4.716355309E2,-5.039634649E-3,-2.138026757E-3,-1.802051067E-2
4.721396609E2,1.542433538E-2,-1.496618707E-2,-1.802051067E-2
4.726437913E2,-2.672533318E-2,-2.733619884E-2,-7.177661173E-3
4.731479217E2,3.054323897E-4,-1.252272818E-2,-1.588248461E-2
4.736520522E2,1.511890348E-2,8.552107029E-3,-5.955931731E-3
4.741561824E2,-1.374445739E-3,4.581485991E-4,-3.665188793E-3
4.746603123E2,-3.207040019E-3,3.665188793E-3,-2.901607659E-3
4.751644416E2,2.153298408E-1,2.321286201E-1,-3.802633286E-2
4.756685703E2,2.008218020E-1,2.115119249E-1,-6.261363626E-2
4.761726984E2,-1.542433500E-1,-6.062832847E-2,-4.092793912E-2
4.766768259E2,-5.161807314E-2,-8.826996386E-2,3.512472380E-3
4.771809534E2,-1.817322709E-2,-3.084867075E-2,1.053741761E-2
4.776850810E2,-2.031125315E-2,-3.390299529E-2,7.635809947E-3
4.781892091E2,-3.619373962E-2,-4.153880477E-2,1.221729536E-2
4.786933380E2,-2.809977904E-2,-3.711003438E-2,9.162971750E-3
4.791974678E2,-9.315688163E-3,-1.298087649E-2,2.138026757E-3
4.797015987E2,-7.941242307E-3,-7.635809947E-3,3.054323839E-3
4.802057306E2,-6.108647794E-4,-6.261364091E-3,5.803215317E-3
4.807098633E2,-2.443459118E-3,-5.192350596E-3,8.399390616E-3
4.812139968E2,-1.069013379E-3,-2.290742937E-3,4.428769462E-3
4.817181308E2,3.054323839E-3,-7.635809598E-4,4.734201822E-3
4.822222652E2,-1.832594397E-3,1.527161920E-3,4.276053514E-3
4.827264001E2,-1.069013379E-3,-1.527161949E-4,1.527161949E-4
4.832305354E2,-6.108647794E-4,-1.832594397E-3,3.665188793E-3
4.837346710E2,2.443459118E-3,-0.000000000E0,4.428769462E-3
4.842388069E2,-1.527161949E-4,-1.985310577E-3,3.512472380E-3
4.847429428E2,-1.572976820E-2,-2.474002354E-2,2.275471389E-2
4.852470789E2,-7.177661173E-3,-1.084284950E-2,1.069013402E-2
4.857512151E2,2.596175298E-3,4.428769462E-3,3.970621154E-3
4.862553512E2,-3.359756200E-3,-1.527161920E-3,3.054323839E-3
4.867594871E2,-1.679878100E-3,-2.748891478E-3,5.650499370E-3
4.872636227E2,6.566796452E-3,-3.054323897E-4,1.252272818E-2
4.877677581E2,2.596175298E-3,2.596175298E-3,1.786779426E-2
4.882718932E2,1.084284950E-2,-3.054323839E-3,2.336557768E-2
4.887760282E2,-6.108647678E-3,-1.481347065E-2,2.306014486E-2
4.892801633E2,1.695149764E-2,2.351829410E-2,1.496618707E-2
4.897842983E2,-7.635809598E-4,1.282816008E-2,1.649334840E-2
4.902884336E2,-8.093958721E-3,1.466075517E-2,2.367101051E-2
4.907925688E2,5.803215317E-3,2.092211880E-2,1.328630932E-2
4.912967038E2,6.108647678E-3,2.626718581E-2,8.093958721E-3
4.918008387E2,-9.010255337E-3,3.543015569E-2,2.183841541E-2
4.923049738E2,-1.588248461E-2,6.108647794E-4,2.932151034E-2
4.928091093E2,1.038470119E-2,4.734201822E-3,3.527744114E-2
4.933132452E2,-3.100138716E-2,-3.970621154E-3,3.451386094E-2
4.938173818E2,2.641990222E-2,4.123337194E-2,2.626718581E-2
4.943215188E2,3.115410358E-2,-3.665188793E-3,2.015853859E-2
4.948256563E2,-3.161225095E-2,-1.038470119E-2,2.199113183E-2
4.953297945E2,4.123337101E-3,2.168569900E-2,3.634645417E-2
4.958339330E2,1.985310577E-2,-3.039052337E-2,1.114828233E-2
4.963380718E2,-1.298087649E-2,-3.207040206E-2,2.641990222E-2
4.968422108E2,1.756236330E-2,3.512472659E-2,1.924224012E-2
4.973463499E2,-1.634063199E-2,2.138026757E-3,1.160643063E-2
4.978504890E2,6.719512399E-3,1.191186346E-2,1.908952370E-2
4.983546281E2,5.955931731E-3,-2.275471389E-2,6.108647678E-3
4.988587670E2,-9.926552884E-3,2.183841541E-2,8.246674202E-3
4.993629058E2,2.138026757E-3,-3.878991306E-2,1.588248461E-2
4.998670445E2,3.817904973E-3,-4.428769462E-3,9.315688163E-3
5.003711835E2,-8.552107029E-3,1.863137633E-2,-2.596175298E-3
5.008753226E2,-6.261364091E-3,-4.566214234E-2,-1.359174121E-2
5.013794617E2,1.679878100E-3,-1.527161920E-3,-1.985310577E-2
5.018836009E2,-5.955931731E-3,1.099556591E-2,-1.649334840E-2
5.023877400E2,-1.175914705E-2,-1.328630932E-2,-2.290742937E-3
5.028918794E2,8.246674202E-3,6.566796452E-3,-2.596175298E-3
5.033960187E2,-7.177661173E-3,-3.420842811E-2,7.330377586E-3
5.039001578E2,6.566796452E-3,1.863137633E-2,-1.374445739E-3
5.044042963E2,4.734201822E-3,2.015853859E-2,3.054323897E-4
5.049084343E2,-4.428769462E-3,-1.527161949E-4,-1.038470119E-2
5.054125715E2,3.359756200E-3,-2.138026757E-3,-9.926552884E-3
5.059167078E2,-4.428769462E-3,1.404988952E-2,-8.857538924E-3
5.064208430E2,-1.985310577E-3,-1.970038936E-2,-7.024944760E-3
5.069249770E2,1.832594397E-3,6.108647678E-3,-7.483093534E-3
5.074291100E2,-1.832594397E-3,-9.621120058E-3,-6.719512399E-3
5.079332420E2,-2.290742937E-3,-3.207040019E-3,-1.710421406E-2
5.084373729E2,3.970621154E-3,1.282816008E-2,-1.053741761E-2
5.089415031E2,-9.315688163E-3,7.177661173E-3,-4.428769462E-3
5.094456326E2,-7.941242307E-3,-5.497782957E-3,6.108647794E-4
5.099497613E2,1.053741761E-2,8.857538924E-3,2.596175298E-3
5.104538891E2,2.748891478E-3,1.038470119E-2,-1.221729559E-3
5.109580162E2,-7.788525894E-3,2.748891478E-3,8.704823442E-3
5.114621426E2,1.130099874E-2,-9.162971983E-4,1.374445762E-2
5.119662684E2,4.581485991E-4,-1.985310577E-3,-1.985310577E-3
5.124703935E2,-3.512472380E-3,-1.618791744E-2,5.345067009E-3
5.129745180E2,1.069013379E-3,-1.298087649E-2,-2.641990222E-2
5.134786418E2,-3.909534588E-2,-4.886918142E-2,-1.496618707E-2
5.139827657E2,-3.512472380E-3,-1.695149764E-2,-4.398226365E-2
5.144868892E2,-2.916879393E-2,-5.955931544E-2,-4.550942779E-2
5.149910131E2,-5.497783050E-2,-4.382954910E-2,-1.033888608E-1
5.154951377E2,-1.786779426E-2,-7.483093534E-3,-9.987638891E-2
5.159992628E2,-7.483093534E-3,-7.635809598E-4,-9.575305134E-2
5.165033887E2,-1.221729559E-3,1.120936871E-1,-4.352411628E-2
5.170075150E2,5.314523727E-2,1.217148080E-1,5.650499091E-2
5.175116415E2,1.267544460E-2,1.771507785E-2,8.888082206E-2
5.180157681E2,2.519817278E-2,2.886336111E-2,1.377500147E-1
5.185198947E2,4.596757516E-2,3.207040206E-2,1.577558219E-1
5.190240213E2,-2.474002354E-2,-6.108647794E-4,1.539379209E-1
5.195281477E2,3.711003438E-2,-8.857538924E-3,9.697478265E-2
5.200322738E2,-2.107483521E-2,-8.032871783E-2,1.603520103E-2
5.205363999E2,-3.420842811E-2,-3.543015569E-2,-3.237583488E-2
5.210405256E2,-1.908952370E-2,-3.207040206E-2,-6.200277433E-2
5.215446513E2,-3.176496923E-2,-2.428187430E-2,-7.635809481E-2
5.220487770E2,-2.336557768E-2,-1.863137633E-2,-7.620538026E-2
5.225529033E2,1.679878100E-3,1.145371422E-2,-7.040216774E-2
5.230570308E2,-2.748891478E-3,3.252854943E-2,-3.695731983E-2
5.235611598E2,5.955931731E-3,2.229656465E-2,-7.177661173E-3
5.240652903E2,8.552107029E-3,3.817904973E-3,4.123337101E-3
5.245694220E2,-2.290742937E-3,8.246674202E-3,1.298087649E-2
5.250735546E2,9.468403645E-3,7.330377586E-3,1.328630932E-2
5.255776884E2,-1.007926930E-2,2.443459118E-3,3.665188793E-3
5.260818233E2,5.192350596E-3,-1.679878123E-2,4.581485991E-4
5.265859594E2,-3.207040019E-3,3.054323839E-3,3.054323897E-4
5.270900963E2,1.343902480E-2,1.740964688E-2,6.414080039E-3
5.275942341E2,-5.955931731E-3,-1.191186346E-2,-2.901607659E-3
5.280983726E2,-1.527161920E-3,1.679878100E-3,-4.276053514E-3
5.286025116E2,-8.093958721E-3,6.108647794E-4,-1.374445739E-3
5.291066508E2,3.665188793E-3,-5.955931731E-3,1.679878100E-3
5.296107901E2,-3.054323897E-4,-7.635809947E-3,-4.123337101E-3
5.301149297E2,3.665188793E-3,-6.414080039E-3,-9.621120058E-3
5.306190700E2,3.054323839E-3,2.321286127E-2,-9.468403645E-3
5.311232113E2,6.261364091E-3,5.497782957E-3,5.192350596E-3
5.316273535E2,-3.817904973E-3,5.039634649E-3,-7.024944760E-3
5.321314963E2,-1.908952370E-2,7.177661173E-3,7.483093534E-3
5.326356392E2,1.359174121E-2,3.359756200E-3,1.374445739E-3
5.331397822E2,-1.374445762E-2,-4.627300799E-2,-1.389717404E-2
5.336439255E2,-1.740964688E-2,-3.695731983E-2,-1.802051067E-2
5.341480690E2,-2.596175298E-3,2.443459118E-3,-2.825249545E-2
5.346522127E2,-2.046396956E-2,-3.863719851E-2,-3.604102135E-2
5.351563561E2,-2.809977904E-2,-2.657261863E-2,-5.589412898E-2
5.356604991E2,-1.817322709E-2,-4.428769462E-3,-6.536252797E-2
5.361646416E2,-9.162971750E-3,1.603520103E-2,-6.307178736E-2
5.366687840E2,5.039634649E-3,1.970038936E-2,-4.108065739E-2
5.371729263E2,-2.244928107E-2,1.878409274E-2,-2.290742844E-2
5.376770684E2,-3.207040019E-3,-2.138026804E-2,-2.748891525E-2
5.381812106E2,9.162971750E-3,-5.039634649E-3,-2.687804960E-2
5.386853524E2,-8.399390616E-3,1.588248461E-2,-2.015853859E-2
5.391894936E2,1.160643063E-2,2.764163166E-2,-1.359174121E-2
5.396936342E2,1.527161920E-3,9.926552884E-3,-5.039634649E-3
5.401977741E2,6.108647678E-3,9.773836471E-3,3.970621154E-3
5.407019133E2,-9.010255337E-3,-1.863137633E-2,-0.000000000E0
5.412060518E2,1.878409274E-2,2.840521187E-2,1.313359290E-2
5.417101898E2,-7.177661173E-3,-1.511890348E-2,4.886918236E-3
5.422143271E2,9.162971983E-4,-9.773836471E-3,-1.679878100E-3
5.427184640E2,-1.527161920E-3,2.138026757E-3,-8.093958721E-3
5.432226004E2,-2.596175298E-3,1.756236330E-2,9.315688163E-3
5.437267365E2,-2.748891478E-3,-8.246674202E-3,-3.054323897E-4
5.442308722E2,7.483093534E-3,-4.123337101E-3,2.443459118E-3
5.447350076E2,6.566796452E-3,3.054323839E-3,-1.832594397E-3
5.452391425E2,-8.552107029E-3,-2.138026757E-3,-3.817904973E-3
5.457432772E2,2.443459118E-3,1.603520103E-2,7.330377586E-3
5.462474116E2,-1.038470119E-2,-8.399390616E-3,1.038470119E-2
5.467515460E2,1.359174121E-2,-1.710421406E-2,-2.901607659E-3
5.472556804E2,-1.191186346E-2,-7.635809598E-4,-1.466075517E-2
5.477598152E2,-5.650499370E-3,1.893680729E-2,-1.053741761E-2
5.482639502E2,2.428187430E-2,2.367101051E-2,-5.345067009E-3
5.487680851E2,-1.527161989E-2,-2.092211880E-2,4.734201822E-3
5.492722196E2,1.359174121E-2,1.420260593E-2,-9.162971983E-4
5.497763538E2,-1.053741761E-2,-1.481347065E-2,4.581485991E-4
5.502804878E2,-1.527161949E-4,6.566796452E-3,6.719512399E-3
5.507846216E2,-1.069013379E-3,2.290742937E-3,6.414080039E-3
5.512887554E2,5.803215317E-3,-7.941242307E-3,-3.054323839E-3
5.517928890E2,-8.246674202E-3,-5.803215317E-3,-5.497782957E-3
5.522970226E2,-1.114828233E-2,1.420260593E-2,6.719512399E-3
5.528011561E2,2.031125315E-2,4.734201822E-3,2.443459118E-3
5.533052895E2,-1.084284950E-2,-2.825249545E-2,-3.512472380E-3
5.538094228E2,0.000000000E0,1.282816008E-2,1.985310577E-3
5.543135558E2,2.214384824E-2,1.878409274E-2,5.497782957E-3
5.548176886E2,-2.061668597E-2,-2.153298259E-2,9.773836471E-3
5.553218211E2,2.336557768E-2,2.901607659E-3,7.024944760E-3
5.558259534E2,-2.580903657E-2,-3.207040206E-2,-1.099556591E-2
5.563300853E2,-1.069013379E-3,-6.566796452E-3,-1.664606482E-2
5.568342168E2,-3.665188793E-3,1.771507785E-2,-7.635809598E-4
5.573383480E2,3.817904973E-3,-3.054323897E-4,3.054323839E-3
5.578424788E2,1.053741761E-2,2.412915789E-2,-3.207040019E-3
5.583466093E2,-1.679878100E-3,-2.443459118E-3,8.857538924E-3
5.588507398E2,1.557705179E-2,6.872228812E-3,6.872228812E-3
5.593548700E2,-2.626718581E-2,-3.100138716E-2,-1.191186346E-2
5.598590000E2,1.527161920E-3,1.267544460E-2,-7.941242307E-3
5.603631297E2,2.748891478E-3,2.351829410E-2,-4.886918236E-3
5.608672590E2,-3.970621154E-3,-4.138609022E-2,3.054323897E-4
5.613713878E2,2.076940238E-2,1.756236330E-2,4.581485991E-4
5.618755164E2,-1.466075517E-2,1.496618707E-2,5.955931731E-3
5.623796447E2,-7.483093534E-3,-3.222311661E-2,-1.175914705E-2
5.628837730E2,-4.581485991E-4,5.192350596E-3,-4.581485875E-3
5.633879013E2,-4.581485991E-4,1.374445739E-3,-1.023198478E-2
5.638920296E2,-2.443459118E-3,8.552107029E-3,-5.345067009E-3
5.643961580E2,7.177661173E-3,-6.261364091E-3,6.872228812E-3
5.649002863E2,-1.038470119E-2,-9.773836471E-3,-6.719512399E-3
5.654044145E2,5.345067009E-3,1.572976820E-2,1.985310577E-3
5.659085426E2,-6.872228812E-3,-1.557705179E-2,-6.872228812E-3
5.664126706E2,-7.635809598E-4,-5.039634649E-3,-5.803215317E-3
5.669167986E2,2.443459118E-3,4.230238497E-2,1.679878100E-3
5.674209265E2,8.552107029E-3,-2.443459118E-3,-2.443459118E-3
5.679250543E2,-1.237001177E-2,-1.908952370E-2,9.621120058E-3
5.684291820E2,2.290742844E-2,1.298087649E-2,3.512472380E-3
5.689333098E2,-2.107483521E-2,-1.007926930E-2,1.527161920E-3
5.694374374E2,7.330377586E-3,5.497782957E-3,1.985310577E-3
5.699415649E2,2.290742937E-3,-6.872228812E-3,6.261364091E-3
5.704456924E2,7.635809598E-4,3.512472380E-3,-4.581485991E-4
5.709498199E2,-1.679878100E-3,-1.221729559E-3,-5.345067009E-3
5.714539473E2,-1.924224012E-2,-3.466657549E-2,-1.939495653E-2
5.719580745E2,7.483093534E-3,2.977965772E-2,6.566796452E-3
5.724622017E2,3.970621154E-3,2.596175298E-3,-3.054323897E-4
5.729663286E2,1.679878100E-3,-1.145371422E-2,1.069013379E-3
5.734704552E2,-3.054323897E-4,5.497782957E-3,4.734201822E-3
5.739745814E2,1.053741761E-2,7.941242307E-3,3.359756200E-3
5.744787076E2,-8.399390616E-3,-1.466075517E-2,-4.581485991E-4
5.749828336E2,-4.581485875E-3,-2.183841541E-2,-2.901607659E-3
5.754869597E2,2.443459118E-3,2.474002354E-2,1.374445739E-3
5.759910859E2,-1.313359290E-2,-2.596175298E-3,-5.803215317E-3
5.764952123E2,1.374445762E-2,5.345067009E-3,-4.581485875E-3
5.769993388E2,-6.566796452E-3,-3.054323897E-4,9.773836471E-3
5.775034654E2,3.375028074E-2,3.451386094E-2,6.414080039E-3
5.780075921E2,-4.428769648E-2,-3.237583488E-2,-1.374445739E-3
5.785117188E2,2.840521187E-2,3.054323839E-3,4.276053514E-3
5.790158457E2,-1.420260593E-2,-1.175914705E-2,-1.099556591E-2
5.795199727E2,-7.024944760E-3,1.252272818E-2,-4.734201822E-3
5.800240999E2,1.145371422E-2,1.527161920E-3,2.596175298E-3
5.805282273E2,-6.566796452E-3,8.246674202E-3,6.719512399E-3
5.810323549E2,-2.901607659E-3,-9.926552884E-3,4.428769462E-3
5.815364825E2,-2.901607659E-3,9.162971983E-4,1.374445739E-3
5.820406098E2,1.985310577E-3,1.130099874E-2,4.734201822E-3
5.825447366E2,3.512472380E-3,3.359756200E-3,-9.162971983E-4
5.830488630E2,-9.621120058E-3,-1.588248461E-2,-4.428769462E-3
5.835529896E2,-7.635809598E-4,-1.771507785E-2,-6.566796452E-3
5.840571164E2,-7.788525894E-3,1.130099874E-2,-6.566796452E-3
5.845612437E2,1.481347065E-2,6.566796452E-3,6.108647794E-4
5.850653712E2,-2.290742937E-3,-1.221729559E-3,1.679878100E-3
5.855695058E2,-6.414080039E-3,8.704823442E-3,-5.039634649E-3
5.860736271E2,3.512472380E-3,-5.345067009E-3,-6.108647794E-4
5.865777551E2,1.374445739E-3,-3.207040019E-3,-2.290742937E-3
5.870818831E2,-2.290742937E-3,7.024944760E-3,-5.192350596E-3
5.875860111E2,-1.221729559E-3,-6.261364091E-3,-1.359174121E-2
5.880901389E2,-1.175914705E-2,-4.444041103E-2,-1.878409274E-2
5.885942667E2,-2.306014486E-2,-2.290742844E-2,-2.580903657E-2
5.890983944E2,3.512472380E-3,-2.443459118E-3,-3.069595434E-2
5.896025218E2,-1.649334840E-2,-2.015853859E-2,-3.863719851E-2
5.901066491E2,-4.276053514E-3,1.374445762E-2,-2.825249545E-2
5.906107762E2,1.069013379E-3,1.130099874E-2,-1.786779426E-2
5.911149030E2,1.069013379E-3,2.412915789E-2,-1.206457894E-2
5.916190295E2,3.054323839E-3,2.748891478E-3,-1.695149764E-2
5.921231556E2,-7.024944760E-3,1.985310577E-3,-1.069013402E-2
5.926272812E2,1.634063199E-2,2.367101051E-2,-5.039634649E-3
5.931314065E2,-1.588248461E-2,-1.802051067E-2,4.428769462E-3
5.936355314E2,2.458730713E-2,2.565632015E-2,2.138026757E-3
5.941396562E2,-8.552107029E-3,-1.007926930E-2,1.832594397E-3
5.946437807E2,1.527161920E-3,-8.246674202E-3,-3.054323839E-3
5.951479051E2,-1.130099874E-2,1.221729559E-3,-1.374445739E-3
5.956520295E2,1.099556591E-2,2.443459118E-3,-3.054323839E-3
5.961561538E2,-1.527161920E-3,-1.221729559E-3,5.955931731E-3
5.966602779E2,7.635809598E-4,4.276053514E-3,2.138026757E-3
5.971644019E2,1.359174121E-2,5.345067009E-3,3.054323897E-4
5.976685258E2,-2.504545636E-2,-6.108647794E-4,5.650499370E-3
5.981726496E2,3.512472659E-2,7.635809947E-3,9.162971983E-4
5.986767732E2,-4.092793912E-2,-4.550942779E-2,-7.483093534E-3
5.991808964E2,4.276053514E-3,1.328630932E-2,-4.734201822E-3
5.996850194E2,1.114828233E-2,1.511890348E-2,-1.679878100E-3
6.001891420E2,-2.901607659E-3,9.468403645E-3,-9.162971983E-4
6.006932643E2,1.007926930E-2,7.635809598E-4,1.267544460E-2
6.011973864E2,-7.788525894E-3,-1.221729559E-3,2.138026757E-3
6.017015083E2,-1.527161949E-4,1.069013379E-3,1.985310577E-3
6.022056299E2,1.267544460E-2,-8.246674202E-3,-4.276053514E-3
6.027097514E2,-2.244928107E-2,-1.710421406E-2,-1.069013402E-2
6.032138730E2,1.511890348E-2,1.343902480E-2,3.359756200E-3
6.037179945E2,-1.114828233E-2,9.010255337E-3,1.985310577E-3
6.042221161E2,7.635809947E-3,1.527161920E-3,1.221729559E-3
6.047262377E2,8.399390616E-3,-1.282816008E-2,2.290742937E-3
6.052303592E2,-8.093958721E-3,4.581485991E-4,-4.734201822E-3
6.057344806E2,-1.221729559E-3,1.145371422E-2,-4.276053514E-3
6.062386018E2,-6.719512399E-3,-6.108647794E-4,-2.901607659E-3
6.067427226E2,4.886918236E-3,9.315688163E-3,5.955931731E-3
6.072468431E2,-2.901607659E-3,-7.483093534E-3,9.010255337E-3
6.077509633E2,5.650499370E-3,-1.298087649E-2,1.221729559E-3
6.082550832E2,-6.566796452E-3,4.123337101E-3,-7.330377586E-3
6.087592033E2,3.207040019E-3,7.941242307E-3,1.221729559E-3
6.092633238E2,-6.566796452E-3,-1.374445739E-3,1.374445739E-3
6.097674448E2,8.399390616E-3,-1.832594397E-3,2.138026757E-3
6.102715660E2,-4.886918236E-3,4.123337101E-3,-3.054323839E-3
6.107756876E2,-7.635809598E-4,-1.527161949E-4,5.803215317E-3
6.112798094E2,1.038470119E-2,-3.665188793E-3,-1.679878100E-3
6.117839312E2,-7.177661173E-3,-9.162971983E-4,-1.374445739E-3
6.122880532E2,7.941242307E-3,6.719512399E-3,-1.832594397E-3
6.127921751E2,-1.053741761E-2,-1.053741761E-2,-2.748891478E-3
6.132962970E2,1.634063199E-2,5.039634649E-3,-3.970621154E-3
6.138004185E2,-1.695149764E-2,-2.596175298E-3,-1.527161920E-3
6.143045398E2,-5.345067009E-3,-3.054323839E-3,-3.512472380E-3
6.148086608E2,1.420260593E-2,-1.527161920E-3,-3.359756200E-3
6.153127816E2,-9.162971750E-3,-3.878991306E-2,-5.345067009E-3
6.158169021E2,-7.635809947E-3,-3.802633286E-2,-1.328630932E-2
6.163210224E2,-2.916879393E-2,1.145371422E-2,-5.803215317E-3
6.168251425E2,2.397644334E-2,2.122755162E-2,-1.634063199E-2
6.173292628E2,-1.206457894E-2,7.177661173E-3,-9.468403645E-3
6.178333829E2,2.596175298E-3,-5.345067009E-3,-2.748891478E-3
6.183375030E2,8.246674202E-3,2.153298259E-2,-7.788525894E-3
6.188416230E2,4.260781780E-2,2.031125315E-2,8.552107029E-3
6.193457426E2,-1.924224012E-2,-2.290742937E-3,1.084284950E-2
6.198498620E2,5.192350596E-3,2.794706449E-2,1.756236330E-2
6.203539812E2,-1.191186346E-2,-1.191186346E-2,9.468403645E-3
6.208581001E2,1.023198478E-2,1.175914705E-2,2.015853859E-2
6.213622187E2,1.130099874E-2,-3.817904973E-3,1.954767294E-2
6.218663370E2,-1.603520103E-2,-2.290742937E-3,1.038470119E-2
6.223704549E2,1.130099874E-2,8.552107029E-3,7.635809947E-3
6.228745726E2,-8.093958721E-3,-2.504545636E-2,4.734201822E-3
6.233786900E2,-1.267544460E-2,8.093958721E-3,-1.130099874E-2
6.238828072E2,3.054323897E-4,-1.527161920E-3,1.832594350E-2
6.243869243E2,1.939495653E-2,4.276053514E-3,2.596175298E-3
6.248910411E2,7.635809598E-4,-1.145371422E-2,-2.748891478E-3
6.253951576E2,-5.345067009E-3,9.315688163E-3,4.276053514E-3
6.258992739E2,6.566796452E-3,1.175914705E-2,7.024944760E-3
6.264033899E2,1.679878100E-3,-1.053741761E-2,8.552107029E-3
6.269075057E2,-8.093958721E-3,-8.246674202E-3,2.901607659E-3
6.274116211E2,5.650499370E-3,1.496618707E-2,1.374445739E-3
6.279157364E2,-3.970621154E-3,-7.024944760E-3,-4.123337101E-3
6.284198516E2,-1.679878100E-3,-1.878409274E-2,-4.276053514E-3
6.289239668E2,3.207040019E-3,8.704823442E-3,-5.497782957E-3
6.294280819E2,-1.679878100E-3,-4.581485991E-4,9.162971983E-4
6.299321971E2,-4.276053514E-3,-4.123337101E-3,-2.138026757E-3
6.304363125E2,7.635809598E-4,-6.566796452E-3,-4.428769462E-3
6.309404281E2,1.069013379E-3,3.008509055E-2,5.955931731E-3
6.314445439E2,-3.207040019E-3,-1.679878100E-3,1.527161920E-3
6.319486602E2,9.162971983E-4,-9.162971750E-3,-1.527161920E-3
6.324527768E2,2.443459118E-3,-7.635809947E-3,-2.748891478E-3
6.329568935E2,-1.282816008E-2,3.054323897E-4,-9.162971983E-4
6.334610104E2,4.581485875E-3,1.374445739E-3,-6.108647678E-3
6.339651273E2,3.970621154E-3,6.566796452E-3,-1.374445739E-3
6.344692442E2,4.734201822E-3,1.679878100E-3,-5.955931731E-3
6.349733612E2,-1.237001177E-2,-1.847865991E-2,1.221729536E-2
6.354774782E2,1.725693047E-2,3.558287397E-2,-1.832594397E-3
6.359815953E2,-7.788525894E-3,-1.114828233E-2,-1.221729559E-3
6.364857127E2,-7.635809598E-4,2.138026757E-3,-4.276053514E-3
6.369898305E2,-1.679878100E-3,-5.803215317E-3,-1.527161949E-4
6.374939489E2,1.191186346E-2,-6.261364091E-3,2.901607659E-3
6.379980679E2,-1.298087649E-2,1.160643063E-2,-1.527161949E-4
6.385021871E2,4.886918236E-3,-7.024944760E-3,-1.832594397E-3
6.390063064E2,-3.054323897E-4,-5.650499370E-3,4.734201822E-3
6.395104256E2,7.788525894E-3,6.108647678E-3,1.069013379E-3
6.400145448E2,-1.114828233E-2,-6.872228812E-3,-1.679878100E-3
6.405186638E2,2.748891478E-3,-2.596175298E-3,-1.527161920E-3
6.410227827E2,7.788525894E-3,-5.803215317E-3,8.704823442E-3
6.415269015E2,1.527161949E-4,-2.596175298E-3,-8.399390616E-3
6.420310202E2,-1.939495653E-2,-1.053741761E-2,-1.725693047E-2
6.425351388E2,-1.649334840E-2,-4.581485875E-3,-1.374445739E-3
6.430392574E2,7.941242307E-3,2.901607659E-3,-9.468403645E-3
6.435433758E2,-9.315688163E-3,-2.168569900E-2,-8.857538924E-3
6.440474940E2,6.108647794E-4,-5.329795182E-2,-2.825249545E-2
6.445516120E2,-8.857538924E-3,-1.007926930E-2,-4.627300799E-2
6.450557298E2,-6.108647678E-3,1.466075517E-2,-8.231402934E-2
6.455598474E2,-3.237583488E-2,-2.565632015E-2,-1.058323234E-1
6.460639647E2,-2.443459071E-2,-1.450803876E-2,-1.229365394E-1
6.465680817E2,-3.512472659E-2,-2.076940238E-2,-1.461493969E-1
6.470721984E2,-5.482511222E-2,-4.703658819E-2,-1.710421443E-1
6.475763150E2,-6.612611562E-2,-5.070177838E-2,-1.968511790E-1
6.480804313E2,-8.765909821E-2,-6.826414168E-2,-2.470948100E-1
6.485845475E2,-1.223256737E-1,-8.002328873E-2,-3.135263622E-1
6.490886634E2,-1.392771751E-1,-7.819069177E-2,-3.211621642E-1
6.495927790E2,-1.334739476E-1,-1.343902480E-2,-3.839285076E-1
6.500968944E2,-1.441640854E-1,-1.221729536E-2,-3.819431961E-1
6.506010095E2,-8.261945844E-2,7.422006875E-2,-3.304778337E-1
6.511051244E2,-5.803215504E-2,1.588248461E-2,-1.843284518E-1
6.516092392E2,-1.771507785E-2,4.337139800E-2,-1.088866442E-1
6.521133538E2,2.199113183E-2,7.635809598E-4,9.162971750E-3
6.526174683E2,-1.832594350E-2,-3.069595434E-2,-1.847865991E-2
6.531215827E2,-2.397644334E-2,1.069013379E-3,-1.527161920E-3
6.536256974E2,-1.069013379E-3,1.710421406E-2,-2.306014486E-2
6.541298128E2,1.069013379E-3,3.145953640E-2,-1.817322709E-2
6.546339288E2,1.069013402E-2,-3.054323979E-2,-7.483093534E-3
6.551380456E2,-1.634063199E-2,2.687804960E-2,-2.886336111E-2
6.556421630E2,-3.359756200E-3,5.803215317E-3,-2.596175298E-3
6.561462807E2,1.069013379E-3,-1.832594397E-3,-2.138026757E-3
6.566503990E2,1.313359290E-2,-1.985310577E-3,-6.261364091E-3
6.571545177E2,-2.290742937E-3,-2.901607659E-3,-1.725693047E-2
6.576586369E2,5.497782957E-3,-1.588248461E-2,-1.634063199E-2
6.581627563E2,-2.443459118E-3,1.175914705E-2,-2.076940238E-2
6.586668757E2,8.704823442E-3,-9.162971750E-3,-2.076940238E-2
6.591709951E2,-1.313359290E-2,1.237001177E-2,-2.183841541E-2
6.596751145E2,1.404988952E-2,9.162971750E-3,-1.679878123E-2
6.601792337E2,-7.483093534E-3,1.374445739E-3,-8.246674202E-3
6.606833529E2,-5.192350596E-3,-8.704823442E-3,0.000000000E0
6.611874719E2,1.939495653E-2,1.221729559E-3,-4.428769462E-3
6.616915907E2,7.941242307E-3,-1.649334840E-2,1.282816008E-2
6.621957091E2,-1.527161949E-4,5.650499370E-3,-3.970621154E-3
6.626998273E2,-9.621120058E-3,-3.054323839E-3,6.872228812E-3
6.632039451E2,1.481347065E-2,5.971203372E-2,1.725693047E-2
6.637080627E2,3.420842811E-2,7.681624591E-2,7.589995116E-2
6.642121802E2,1.725693047E-2,3.451386094E-2,1.143844277E-1
6.647162976E2,3.741546720E-2,1.756236330E-2,1.591302752E-1
6.652204150E2,4.001164436E-2,2.306014486E-2,1.867718995E-1
6.657245323E2,3.756818548E-2,2.779434808E-2,2.281579971E-1
6.662286493E2,2.703076601E-2,-2.641990222E-2,1.968511790E-1
6.667327663E2,2.229656465E-2,5.345067009E-3,2.032652497E-1
6.672368829E2,4.581485689E-2,9.162971983E-4,1.798996776E-1
6.677409994E2,2.119700760E-1,4.144717455E-1,3.593412042E-1
6.682451156E2,-1.511890292E-1,-3.150535226E-1,1.067486182E-1
6.687492318E2,1.588248461E-2,-3.451386094E-2,2.046397030E-1
6.692533477E2,4.764745384E-2,2.901607752E-2,2.553414702E-1
6.697574632E2,2.626718581E-2,-1.053741761E-2,2.527453005E-1
6.702615785E2,2.229656465E-2,-1.313359290E-2,2.435823381E-1
6.707656935E2,3.955349326E-2,-4.886918236E-3,1.840230078E-1
6.712698079E2,3.268126398E-2,3.619373962E-2,1.655443609E-1
6.717739223E2,3.405570984E-2,1.252272818E-2,1.559232324E-1
6.722780363E2,5.085449293E-2,3.359756246E-2,1.493564397E-1
6.727821501E2,1.007926930E-2,-2.458730713E-2,1.105665267E-1
6.732862636E2,-3.054323839E-3,-3.039052337E-2,6.520981342E-2
6.737903768E2,6.872228812E-3,3.283398226E-2,3.329212964E-2
6.742944899E2,-2.290742937E-3,-4.886918236E-3,1.114828233E-2
6.747986026E2,-2.901607659E-3,5.345067009E-3,-1.069013402E-2
6.753027151E2,-2.153298259E-2,-1.527161989E-2,-2.550360374E-2
6.758068274E2,-1.130099874E-2,1.237001177E-2,-3.207040206E-2
6.763109396E2,-2.443459118E-3,-3.161225095E-2,-2.855792828E-2
6.768150515E2,1.053741761E-2,4.276053514E-3,-3.512472659E-2
6.773191631E2,6.108647678E-3,-9.468403645E-3,-1.359174121E-2
6.778232746E2,-2.596175298E-3,-6.261364091E-3,-1.114828233E-2
6.783273857E2,-6.108647678E-3,-1.481347065E-2,-3.665188793E-3
6.788314967E2,-3.512472380E-3,6.261364091E-3,-1.435532235E-2
6.793356075E2,-5.039634649E-3,-7.024944760E-3,-2.611446939E-2
6.798397181E2,2.748891478E-3,1.237001177E-2,-2.046396956E-2
6.803438287E2,2.122755162E-2,1.114828233E-2,-2.107483521E-2
6.808479392E2,1.557705179E-2,1.588248461E-2,4.123337101E-3
6.813520499E2,4.581485991E-4,-1.572976820E-2,4.276053514E-3
6.818561606E2,5.497782957E-3,3.970621154E-3,1.298087649E-2
6.823602716E2,-7.483093534E-3,-4.581485875E-3,9.926552884E-3
6.828643827E2,-1.389717404E-2,-2.855792828E-2,1.496618707E-2
6.833684939E2,-1.511890348E-2,1.649334840E-2,6.108647678E-3
6.838726053E2,2.031125315E-2,1.832594397E-3,-9.162971983E-4
6.843767168E2,7.483093534E-3,-9.621120058E-3,-1.740964688E-2
6.848808282E2,-2.443459118E-3,2.489273995E-2,-7.635809947E-3
6.853849397E2,-1.313359290E-2,-1.038470119E-2,-7.941242307E-3
6.858890510E2,1.939495653E-2,2.412915789E-2,-1.221729536E-2
6.863931622E2,-2.290742937E-3,-5.650499370E-3,-1.832594397E-3
6.868972732E2,-2.443459118E-3,8.246674202E-3,-6.108647678E-3
6.874013841E2,-3.359756200E-3,-7.635809598E-4,7.024944760E-3
6.879054950E2,1.908952370E-2,2.061668597E-2,2.748891478E-3
6.884096057E2,-4.123337101E-3,3.359756200E-3,7.788525894E-3
6.889137163E2,-5.039634649E-3,7.483093534E-3,9.162971750E-3
6.894178267E2,1.252272818E-2,2.596175298E-3,1.343902480E-2
6.899219369E2,2.596175298E-3,-4.581485875E-3,1.557705179E-2
6.904260468E2,1.679878100E-3,-1.237001177E-2,9.468403645E-3
6.909301566E2,-2.901607659E-3,-1.343902480E-2,1.267544460E-2
6.914342663E2,-3.359756200E-3,-6.261364091E-3,8.704823442E-3
6.919383759E2,-3.817904973E-3,-1.343902480E-2,-1.679878100E-3
6.924424853E2,-7.941242307E-3,-7.330377586E-3,-3.512472380E-3
6.929465946E2,-4.581485875E-3,-9.773836471E-3,-1.878409274E-2
6.934507038E2,-2.748891478E-3,8.704823442E-3,-1.634063199E-2
6.939548127E2,2.138026757E-3,1.038470119E-2,-1.542433538E-2
6.944589215E2,-5.955931731E-3,1.404988952E-2,-1.786779426E-2
6.949630301E2,-1.802051067E-2,7.635809947E-3,1.527161920E-3
6.954671387E2,-3.054323897E-4,-1.939495653E-2,-7.635809947E-3
6.959712472E2,6.108647794E-4,1.191186346E-2,-2.458730713E-2
6.964753556E2,-2.474002354E-2,-2.351829410E-2,-5.513054505E-2
6.969794639E2,-3.008509055E-2,-1.542433538E-2,-7.452550530E-2
6.974835720E2,-2.412915789E-2,-3.145953640E-2,-8.582650125E-2
6.979876799E2,-3.329212964E-2,-1.893680729E-2,-1.120936871E-1
6.984917878E2,-1.985310577E-2,2.260199748E-2,-1.014035568E-1
6.989958955E2,-2.138026804E-2,-2.733619884E-2,-5.971203372E-2
6.995000032E2,-1.710421406E-2,4.001164436E-2,-6.994401664E-2
7.000041109E2,1.023198478E-2,4.382954910E-2,-2.672533318E-2
7.005082185E2,1.313359290E-2,1.985310577E-3,4.734201822E-3
7.010123262E2,9.621120058E-3,-4.886918236E-3,4.734201822E-3
7.015164338E2,-8.246674202E-3,1.466075517E-2,1.786779426E-2
7.020205415E2,3.970621154E-3,1.359174121E-2,3.054323839E-3
7.025246493E2,-1.908952370E-2,-1.985310577E-2,-1.832594397E-3
7.030287571E2,2.031125315E-2,1.237001177E-2,-6.108647794E-4
7.035328650E2,-6.719512399E-3,5.192350596E-3,3.359756200E-3
7.040369729E2,-1.175914705E-2,2.443459118E-3,-3.817904973E-3
7.045410808E2,9.162971750E-3,-7.635809598E-4,-3.970621154E-3
7.050451887E2,5.650499370E-3,1.557705179E-2,-9.162971750E-3
7.055492966E2,-2.122755162E-2,-2.183841541E-2,9.162971983E-4
7.060534044E2,1.557705179E-2,1.542433538E-2,-1.038470119E-2
7.065575121E2,-4.276053514E-3,2.000582218E-2,-4.123337101E-3
7.070616197E2,-1.527161920E-3,-1.420260593E-2,3.665188793E-3
7.075657270E2,2.138026757E-3,1.221729559E-3,1.832594397E-3
7.080698343E2,8.857538924E-3,9.621120058E-3,1.114828233E-2
7.085739415E2,1.374445739E-3,-9.010255337E-3,4.886918236E-3
7.090780485E2,-3.207040019E-3,-1.374445762E-2,-9.621120058E-3
7.095821555E2,-1.374445762E-2,-4.856374860E-2,-2.794706449E-2
7.100862623E2,-4.413498193E-2,-7.574722916E-2,-6.902772188E-2
7.105903692E2,-7.116574794E-2,-4.550942779E-2,-1.291978955E-1
7.110944760E2,-2.657261863E-2,-4.581485875E-3,-1.301141977E-1
7.115985828E2,-4.138609022E-2,-1.466075517E-2,-1.382081509E-1
7.121026896E2,-5.604684353E-2,-1.007926930E-2,-1.479819864E-1
7.126067962E2,-3.756818548E-2,-3.054323897E-4,-1.524107605E-1
7.131109028E2,-9.941824526E-2,-4.520399496E-2,-1.731801629E-1
7.136150092E2,-3.466657549E-2,2.443459118E-3,-1.517999023E-1
7.141191156E2,-5.253437161E-2,5.497782957E-3,-1.531743407E-1
7.146232219E2,-3.817904741E-2,3.084867075E-2,-1.363755614E-1
7.151273281E2,-2.275471389E-2,2.580903657E-2,-1.137735620E-1
7.156314342E2,-1.374445762E-2,3.436114267E-2,-7.406735420E-2
7.161355402E2,5.803215317E-3,1.160643063E-2,-4.734201822E-3
7.166396527E2,1.908952370E-2,4.016435891E-2,-9.010255337E-3
7.171437521E2,-2.183841541E-2,7.483093534E-3,-1.130099874E-2
7.176478580E2,1.221729536E-2,3.191768378E-2,5.497782957E-3
7.181519638E2,-9.315688163E-3,5.192350596E-3,7.635809598E-4
7.186560698E2,2.290742937E-3,-1.267544460E-2,4.276053514E-3
7.191601759E2,-1.237001177E-2,-1.191186346E-2,-2.290742937E-3
7.196642824E2,9.926552884E-3,-8.399390616E-3,2.290742937E-3
7.201683892E2,3.420842811E-2,1.069013402E-2,2.000582218E-2
7.206724964E2,3.054323839E-3,2.046396956E-2,1.359174121E-2
7.211766037E2,-2.122755162E-2,-2.764163166E-2,1.114828233E-2
7.216807112E2,1.435532235E-2,-4.581485991E-4,4.581485991E-4
7.221848188E2,-1.527161949E-4,-1.679878100E-3,-7.635809598E-4
7.226889265E2,-5.650499370E-3,-1.145371422E-2,-1.527161949E-4
7.231930343E2,-7.635809947E-3,7.330377586E-3,8.399390616E-3
7.236971420E2,-1.679878100E-3,5.497782957E-3,6.872228812E-3
7.242012498E2,1.572976820E-2,1.298087649E-2,-1.374445739E-3
7.247053574E2,1.175914705E-2,-5.345067009E-3,-5.192350596E-3
7.252094651E2,-5.650499370E-3,-5.039634649E-3,-2.443459118E-3
7.257135727E2,-5.803215317E-3,8.093958721E-3,-3.207040019E-3
7.262176802E2,-4.581485875E-3,1.007926930E-2,-3.359756200E-3
7.267217877E2,-2.138026757E-3,8.552107029E-3,3.665188793E-3
7.272258952E2,1.114828233E-2,1.954767294E-2,3.100138716E-2
7.277300025E2,2.962694131E-2,1.649334840E-2,5.100720748E-2
7.282341097E2,3.375028074E-2,5.238165334E-2,9.987638891E-2
7.287382168E2,2.809977904E-2,2.138026804E-2,1.023198515E-1
7.292423236E2,1.588248461E-2,2.626718581E-2,1.043051630E-1
7.297464303E2,3.665188700E-2,3.649916872E-2,1.496618688E-1
7.302505369E2,1.496618707E-2,-3.069595434E-2,1.238528341E-1
7.307546435E2,2.825249545E-2,2.519817278E-2,1.285870373E-1
7.312587504E2,3.924806044E-2,1.359174121E-2,1.215620935E-1
7.317628576E2,1.130099874E-2,8.093958721E-3,1.244636998E-1
7.322669654E2,1.710421406E-2,9.162971983E-4,1.319467872E-1
7.327710736E2,1.389717404E-2,-3.008509055E-2,9.117157012E-2
7.332751824E2,-3.359756246E-2,-3.634645417E-2,3.451386094E-2
7.337792919E2,4.245510325E-2,7.147117704E-2,6.566796452E-2
7.342834021E2,2.871064469E-2,1.038470119E-2,9.651663154E-2
7.347875131E2,3.008509055E-2,2.626718581E-2,1.146898642E-1
7.352916249E2,1.359174121E-2,5.650499370E-3,1.366809905E-1
7.357957373E2,-1.237001177E-2,-2.290742844E-2,1.027780026E-1
7.362998503E2,-2.290742937E-3,-6.612611562E-2,1.237001177E-2
7.368039635E2,-5.436696485E-2,-3.940077871E-2,-4.413498193E-2
7.373080773E2,3.054323897E-4,-1.007926930E-2,-5.238165334E-2
7.378121919E2,-2.443459071E-2,5.039634649E-3,-3.298669681E-2
7.383163071E2,2.092211880E-2,1.206457894E-2,-2.764163166E-2
7.388204228E2,-2.229656465E-2,-7.024944760E-3,-6.261364091E-3
7.393245389E2,4.123337101E-3,2.107483521E-2,-1.603520103E-2
7.398286549E2,9.621120058E-3,2.412915789E-2,1.206457894E-2
7.403327711E2,-3.207040019E-3,-2.138026804E-2,7.635809598E-4
7.408368874E2,1.221729559E-3,-7.024944760E-3,3.512472380E-3
7.413410040E2,-6.108647794E-4,1.130099874E-2,-4.428769462E-3
7.418451212E2,6.414080039E-3,-1.313359290E-2,9.162971750E-3
7.423492394E2,1.374445739E-3,3.359756200E-3,2.443459118E-3
7.428533584E2,9.162971983E-4,3.665188793E-3,1.527161949E-4
7.433574778E2,-1.191186346E-2,-2.015853859E-2,-2.290742937E-3
7.438615973E2,3.970621154E-3,-7.635809598E-4,-1.221729559E-3
7.443657169E2,-1.527161949E-4,1.343902480E-2,-5.039634649E-3
7.448698365E2,-2.138026757E-3,-4.886918236E-3,-9.162971983E-4
7.453739559E2,-4.886918236E-3,-1.557705179E-2,3.359756200E-3
7.458780753E2,-2.901607659E-3,-6.261364091E-3,-7.635809598E-4
7.463821945E2,6.108647678E-3,-5.497782957E-3,-7.941242307E-3
7.468863137E2,-3.054323897E-4,5.345067009E-3,-1.572976820E-2
7.473904331E2,-1.878409274E-2,-7.941242307E-3,-2.107483521E-2
7.478945526E2,1.328630932E-2,1.374445739E-3,-2.794706449E-2
7.483986724E2,-2.107483521E-2,-9.315688163E-3,-2.993237413E-2
7.489027923E2,-2.611446939E-2,-4.642572254E-2,-4.337139800E-2
7.494069123E2,-1.924224012E-2,-2.703076601E-2,-5.558869615E-2
7.499110321E2,-1.313359290E-2,-1.847865991E-2,-5.558869615E-2
7.504151519E2,-1.481347065E-2,-2.565632015E-2,-4.382954910E-2
7.509192715E2,-2.412915789E-2,-1.038470119E-2,-5.161807314E-2
7.514233910E2,-1.191186346E-2,-1.007926930E-2,-3.711003438E-2
7.519275104E2,1.099556591E-2,-7.635809598E-4,-2.580903657E-2
7.524316294E2,-3.359756200E-3,1.985310577E-2,-3.039052337E-2
7.529357480E2,-1.756236330E-2,-1.985310577E-3,-2.428187430E-2
7.534398662E2,-1.404988952E-2,-1.069013379E-3,-3.787361458E-2
7.539439838E2,-1.924224012E-2,-1.924224012E-2,-3.878991306E-2
7.544481009E2,-1.710421406E-2,1.221729559E-3,-4.856374860E-2
7.549522174E2,-2.641990222E-2,-2.962694131E-2,-5.054906011E-2
7.554563336E2,-2.031125315E-2,1.954767294E-2,-5.696314201E-2
7.559604493E2,2.748891478E-3,4.871646687E-2,-3.344484791E-2
7.564645648E2,2.932151034E-2,1.065959036E-1,1.954767294E-2
7.569686800E2,1.572976820E-2,1.924224012E-2,5.513054505E-2
7.574727949E2,1.466075517E-2,1.832594350E-2,4.550942779E-2
7.579769099E2,1.740964688E-2,3.039052337E-2,6.673697382E-2
7.584810249E2,2.458730713E-2,-1.099556591E-2,7.727439702E-2
7.589851402E2,9.621120058E-3,1.114828233E-2,7.880155742E-2
7.594892556E2,3.420842811E-2,2.412915789E-2,7.971785218E-2
7.599933710E2,2.275471389E-2,2.107483521E-2,9.758564830E-2
7.604974862E2,1.298087649E-2,5.497782957E-3,1.104138121E-1
7.610016012E2,6.108647957E-2,3.283398226E-2,1.244636998E-1
7.615057160E2,1.237001177E-2,3.848448023E-2,1.325576603E-1
7.620098305E2,3.924806044E-2,3.375028074E-2,1.592829973E-1
7.625139450E2,1.466075517E-2,-1.527161920E-3,1.291978955E-1
7.630180591E2,3.833176568E-2,4.169152305E-2,1.316413581E-1
7.635221732E2,2.596175298E-2,3.481929377E-2,1.540906429E-1
7.640262868E2,2.229656465E-2,-1.695149764E-2,1.372918636E-1
7.645304003E2,4.428769462E-3,3.512472380E-3,1.279761642E-1
7.650345134E2,2.367101051E-2,1.389717404E-2,1.264490038E-1
7.655386262E2,-7.635809598E-4,2.138026757E-3,1.269071549E-1
7.660427386E2,3.634645417E-2,2.687804960E-2,1.499672979E-1
7.665468508E2,1.634063199E-2,-1.221729559E-3,1.519526094E-1
7.670509626E2,4.214967042E-2,2.626718581E-2,1.264490038E-1
7.675550741E2,2.290742937E-3,3.054323839E-3,1.221729591E-1
7.680591853E2,4.398226365E-2,2.382372692E-2,1.324049383E-1
7.685632963E2,2.687804960E-2,1.175914705E-2,1.543960720E-1
7.690674069E2,-3.817904973E-3,3.970621154E-3,1.435532272E-1
7.695715173E2,1.252272818E-2,-1.634063199E-2,1.186604798E-1
7.700756275E2,4.428769462E-3,-2.626718581E-2,8.826996386E-2
7.705797374E2,-1.007926930E-2,-4.138609022E-2,4.352411628E-2
7.710838471E2,-7.330377586E-3,-2.901607752E-2,1.924224012E-2
7.715879565E2,-2.901607659E-3,7.635809947E-3,1.527161920E-3
7.720920656E2,-2.443459118E-3,-2.290742937E-3,6.108647794E-4
7.725961745E2,-1.267544460E-2,-9.010255337E-3,-2.901607659E-3
7.731002829E2,3.970621154E-3,-9.162971983E-4,-7.635809598E-4
7.736043913E2,5.955931731E-3,8.552107029E-3,6.108647678E-3
7.741084993E2,-1.786779426E-2,-1.267544460E-2,7.635809947E-3
7.746126073E2,9.773836471E-3,1.343902480E-2,3.054323897E-4
7.751167149E2,3.817904973E-3,3.970621154E-3,1.221729559E-3
7.756208224E2,6.108647794E-4,-9.162971750E-3,-5.803215317E-3
7.761249297E2,-1.527161920E-3,-2.183841541E-2,-5.803215317E-3
7.766290367E2,-4.444041103E-2,-7.605266571E-2,-2.397644334E-2
7.771331435E2,-3.878991306E-2,-8.750637621E-2,-8.414662629E-2
7.776372500E2,-1.832594350E-2,2.138026804E-2,-1.693622619E-1
7.781413564E2,-3.680460155E-2,1.893680729E-2,-1.973093301E-1
7.786454625E2,-7.742711157E-2,-1.786779426E-2,-2.153298408E-1
7.791495684E2,-6.017018110E-2,-1.175914705E-2,-2.070831656E-1
7.796536741E2,-5.833758786E-2,-2.825249545E-2,-2.023489624E-1
7.801577796E2,-6.383536756E-2,7.635809947E-3,-2.102901936E-1
7.806618848E2,-6.566796452E-2,-2.061668597E-2,-2.084576041E-1
7.811659899E2,-8.170316368E-2,-2.855792828E-2,-2.075413018E-1
7.816700948E2,-6.566796452E-2,-1.542433538E-2,-2.086103261E-1
7.821741996E2,-6.582067907E-2,-2.321286127E-2,-2.008218020E-1
7.826783042E2,-7.712167501E-2,1.908952370E-2,-2.099847645E-1
7.831824088E2,-5.436696485E-2,1.267544460E-2,-1.818849891E-1
7.836865133E2,-2.107483521E-2,4.505127668E-2,-1.266017258E-1
7.841906177E2,-4.398226365E-2,2.916879393E-2,-7.605266571E-2
7.846947222E2,3.817904973E-3,7.635809947E-3,1.374445739E-3
7.851988265E2,1.084284950E-2,2.260199748E-2,4.016435891E-2
7.857029307E2,-4.428769462E-3,-2.519817278E-2,3.894263133E-2
7.862070347E2,5.955931731E-3,-4.581485991E-4,5.054906011E-2
7.867111386E2,9.162971750E-3,-1.695149764E-2,4.505127668E-2
7.872152423E2,2.504545636E-2,1.603520103E-2,3.848448023E-2
7.877193461E2,-1.175914705E-2,-3.191768378E-2,4.062250629E-2
7.882234499E2,2.260199748E-2,-1.817322709E-2,1.970038936E-2
7.887275537E2,1.359174121E-2,1.771507785E-2,2.351829410E-2
7.892316574E2,3.817904973E-3,-7.635809598E-4,1.985310577E-2
7.897357611E2,-1.298087649E-2,-2.901607752E-2,6.108647678E-3
7.902398648E2,1.374445739E-3,3.054323839E-3,-1.496618707E-2
7.907439682E2,-1.252272818E-2,-3.084867075E-2,-3.283398226E-2
7.912480714E2,-2.596175298E-3,2.947422490E-2,-4.978547990E-2
7.917521744E2,-1.740964688E-2,0.000000000E0,-5.222893879E-2
7.922562773E2,-1.404988952E-2,6.414080039E-3,-5.039634556E-2
7.927603800E2,-1.175914705E-2,6.566796452E-3,-3.451386094E-2
7.932644825E2,-4.734201822E-3,-8.093958721E-3,-2.443459071E-2
7.937685850E2,6.108647794E-4,7.483093534E-3,-9.468403645E-3
7.942726873E2,4.276053514E-3,1.069013379E-3,-8.093958721E-3
7.947767895E2,-1.832594397E-3,-3.207040019E-3,-3.207040019E-3
7.952808911E2,6.108647794E-4,2.443459118E-3,-7.635809598E-4
7.957849921E2,-1.985310577E-3,9.162971983E-4,-1.069013379E-3
7.962890925E2,-1.679878100E-3,7.635809598E-4,-2.138026757E-3
7.967931922E2,3.207040019E-3,1.069013379E-3,1.679878100E-3
7.972972913E2,-1.221729559E-3,1.679878100E-3,1.527161949E-4
7.978013900E2,3.970621154E-3,9.621120058E-3,-6.108647794E-4
7.983054886E2,-2.596175298E-3,-4.886918236E-3,1.221729559E-3
7.988095876E2,9.162971983E-4,1.527161920E-3,-1.679878100E-3
7.993136872E2,-7.635809598E-4,1.679878123E-2,-3.207040019E-3
7.998177875E2,-2.290742937E-3,1.343902480E-2,-7.635809598E-4
8.003218880E2,2.901607659E-3,-1.099556591E-2,1.527161920E-3
8.008259889E2,-6.108647794E-4,7.635809598E-4,7.635809598E-4
8.013300900E2,1.832594397E-3,7.177661173E-3,-1.527161949E-4
8.018341913E2,4.581485991E-4,-1.374445739E-3,-6.108647794E-4
8.023382927E2,-2.596175298E-3,-3.970621154E-3,-1.679878100E-3
8.028423942E2,1.527161949E-4,4.581485875E-3,-9.162971983E-4
8.033464958E2,4.734201822E-3,1.069013379E-3,2.901607659E-3
8.038505974E2,5.497782957E-3,3.970621154E-3,2.596175298E-3
8.043546991E2,-3.054323897E-4,-7.635809598E-4,-1.527161949E-4
8.048588009E2,1.527161949E-4,4.581485991E-4,-1.069013379E-3
8.053629028E2,-3.665188793E-3,7.635809598E-4,-3.054323839E-3
8.058670047E2,-1.374445739E-3,-7.635809598E-4,-1.527161920E-3
8.063711065E2,4.276053514E-3,-7.635809598E-4,3.054323839E-3
8.068752082E2,4.581485991E-4,-1.374445739E-3,7.635809598E-4
8.073793097E2,-6.108647794E-4,3.054323897E-4,3.054323897E-4
8.078834111E2,0.000000000E0,2.443459118E-3,-0.000000000E0
8.083875123E2,-2.443459118E-3,-3.359756200E-3,-1.832594397E-3
8.088916134E2,-6.261364091E-3,-4.276053514E-3,-2.901607659E-3
8.093957142E2,2.290742937E-3,9.162971983E-4,4.581485991E-4
8.098998150E2,4.123337101E-3,1.069013379E-3,2.290742937E-3
8.104039155E2,2.901607659E-3,3.512472380E-3,1.832594397E-3
8.109080159E2,-1.374445739E-3,-1.679878100E-3,-0.000000000E0
8.114121161E2,1.832594397E-3,-7.635809598E-4,-2.138026757E-3
8.119162162E2,-5.803215317E-3,1.527161920E-3,-3.207040019E-3
8.124203161E2,7.941242307E-3,2.901607659E-3,1.527161949E-4
8.129244161E2,6.414080039E-3,3.054323897E-4,-4.276053514E-3
8.134285159E2,2.138026757E-3,2.290742937E-3,1.985310577E-3
8.139326161E2,3.359756200E-3,-7.483093534E-3,-2.138026757E-3
8.144367157E2,-7.330377586E-3,-8.399390616E-3,-5.345067009E-3
8.149408152E2,9.789107740E-2,-1.588248461E-2,8.399390616E-3
8.154449144E2,5.421425030E-2,1.313359290E-2,4.932733253E-2
8.159490136E2,-1.534797698E-1,7.745765448E-1,-2.617555559E-1
8.164531128E2,1.618791744E-2,3.084867075E-2,-1.252272818E-2
8.169572118E2,-3.191768378E-2,-7.177661359E-2,-9.514218569E-2
8.174613109E2,2.066250145E-1,-3.558287397E-2,-4.841103405E-2
8.179654105E2,-5.726857483E-2,2.351829410E-2,6.352993846E-2
8.184695104E2,-8.109229803E-2,-4.948004708E-2,2.000582218E-2
8.189736109E2,-2.138026757E-3,-3.054323897E-4,9.743293375E-2
8.194777120E2,-2.535088919E-2,-6.933315098E-2,1.252272725E-1
8.199818137E2,-4.718930274E-2,-9.682206810E-2,1.238528341E-1
8.204859157E2,-1.328630932E-2,-3.604102135E-2,6.658425927E-2
8.209900180E2,-1.130099874E-2,-3.054323839E-3,9.621120058E-3
8.214941204E2,-1.191186346E-2,-4.581485991E-4,-6.414080039E-3
8.219982229E2,-1.450803876E-2,-1.282816008E-2,5.497782957E-3
8.225023253E2,1.374445739E-3,1.557705179E-2,-9.162971983E-4
8.230064278E2,-2.290742937E-3,-1.282816008E-2,1.527161989E-2
8.235105303E2,3.054323839E-3,4.428769462E-3,1.756236330E-2
8.240146328E2,-5.345067009E-3,5.039634649E-3,1.863137633E-2
8.245187351E2,3.207040019E-3,1.985310577E-3,1.725693047E-2
8.250228374E2,-1.313359290E-2,-2.504545636E-2,2.962694131E-2
8.255269398E2,1.679878100E-3,8.399390616E-3,7.177661173E-3
8.260310419E2,-3.817904973E-3,-6.872228812E-3,3.970621154E-3
8.265351439E2,-7.941242307E-3,-7.941242307E-3,-1.832594397E-3
8.270392457E2,-6.108647678E-3,1.832594397E-3,-3.054323897E-4
8.275433474E2,1.099556591E-2,1.343902480E-2,-1.053741761E-2
8.280474490E2,6.414080039E-3,-1.527161920E-3,-5.497782957E-3
8.285515504E2,-5.955931731E-3,1.221729559E-3,4.123337101E-3
8.290556516E2,9.468403645E-3,1.404988952E-2,1.679878100E-3
8.295597528E2,-6.719512399E-3,-9.468403645E-3,-5.803215317E-3
8.300638538E2,-6.566796452E-3,1.786779426E-2,-4.276053514E-3
8.305679547E2,-9.315688163E-3,-1.557705179E-2,-2.138026757E-3
8.310720556E2,5.345067009E-3,-5.497782957E-3,-2.596175298E-3
8.315761564E2,1.374445739E-3,-1.389717404E-2,4.428769462E-3
8.320802570E2,6.414080039E-3,-1.679878123E-2,6.719512399E-3
8.325843575E2,2.290742937E-3,1.145371422E-2,-6.108647678E-3
8.330884578E2,-1.267544460E-2,-3.054323897E-4,-4.428769462E-3
8.335925579E2,-9.468403645E-3,1.221729559E-3,-3.207040019E-3
8.340966577E2,-1.069013379E-3,-9.162971983E-4,-3.054323897E-4
8.346007573E2,5.497782957E-3,-2.443459118E-3,8.399390616E-3
8.351048569E2,6.566796452E-3,7.635809947E-3,3.207040019E-3
8.356089563E2,-7.483093534E-3,-6.566796452E-3,-4.734201822E-3
8.361130554E2,-1.359174121E-2,-5.803215317E-3,-6.719512399E-3
8.366171542E2,-7.635809947E-3,-4.428769462E-3,-5.039634649E-3
8.371212529E2,1.038470119E-2,5.345067009E-3,-9.162971983E-4
8.376253513E2,1.527161920E-3,-7.941242307E-3,-1.191186346E-2
8.381294495E2,2.351829410E-2,5.497782957E-3,5.039634649E-3
8.386335477E2,-3.726275265E-2,-3.313941509E-2,-6.108647794E-4
8.391376457E2,-4.734201822E-3,4.123337101E-3,1.084284950E-2
8.396417436E2,4.428769462E-3,-1.939495653E-2,1.160643063E-2
8.401458415E2,9.010255337E-3,3.726275265E-2,1.404988952E-2
8.406499391E2,5.345067009E-3,1.130099874E-2,8.399390616E-3
8.411540365E2,-7.635809947E-3,-1.252272818E-2,6.261364091E-3
8.416581339E2,-8.246674202E-3,-8.552107029E-3,-6.872228812E-3
8.421622311E2,-1.695149764E-2,-9.315688163E-3,-5.039634649E-3
8.426663283E2,5.192350596E-3,1.084284950E-2,-6.108647794E-4
8.431704255E2,4.428769462E-3,8.552107029E-3,-3.970621154E-3
8.436745227E2,1.527161949E-4,-6.108647794E-4,-6.872228812E-3
8.441786198E2,-3.207040019E-3,5.497782957E-3,-6.108647794E-4
8.446827169E2,7.024944760E-3,2.809977904E-2,8.704823442E-3
8.451868140E2,2.886336111E-2,4.627300799E-2,6.490438432E-2
8.456909110E2,1.130099874E-2,-1.237001177E-2,1.201876476E-1
8.461950079E2,1.069013402E-2,-9.926552884E-3,1.576031148E-1
8.466991048E2,-1.985310577E-3,-2.672533318E-2,1.556178033E-1
8.472032018E2,-3.665188700E-2,-7.009673119E-2,1.201876476E-1
8.477072987E2,-7.330377586E-3,2.153298259E-2,6.841685623E-2
8.482113955E2,-9.621120058E-3,-1.191186346E-2,1.389717404E-2
8.487154922E2,-5.039634649E-3,9.621120058E-3,-3.252854943E-2
8.492195888E2,2.290742937E-3,2.580903657E-2,-6.872228533E-2
8.497236853E2,-6.108647678E-3,-2.626718581E-2,-8.155044913E-2
8.502277817E2,4.886918236E-3,5.803215317E-3,-9.712749720E-2
8.507318781E2,-1.527161949E-4,6.108647678E-3,-1.149952933E-1
8.512359744E2,-8.399390616E-3,1.450803876E-2,-1.142317131E-1
8.517400705E2,-1.145371422E-2,3.054323897E-4,-7.941242307E-2
8.522441665E2,-1.084284950E-2,-2.214384824E-2,-4.978547990E-2
8.527482626E2,2.901607659E-3,2.015853859E-2,-3.711003438E-2
8.532523587E2,1.313359290E-2,1.328630932E-2,-2.748891525E-2
8.537564549E2,6.108647794E-4,-6.108647794E-4,-2.153298259E-2
8.542605511E2,-8.093958721E-3,7.330377586E-3,-1.496618707E-2
8.547646475E2,1.450803876E-2,8.399390616E-3,3.359756200E-3
8.552687438E2,-3.359756200E-3,4.886918236E-3,1.221729559E-3
8.557728400E2,-1.527161949E-4,1.389717404E-2,1.496618707E-2
8.562769361E2,2.153298259E-2,2.596175298E-3,2.443459118E-3
8.567810321E2,5.497782957E-3,-1.603520103E-2,-1.679878100E-3
8.572851280E2,-1.802051067E-2,5.803215317E-3,1.572976820E-2
8.577892238E2,-2.611446939E-2,-2.443459071E-2,2.641990222E-2
8.582933195E2,4.520399496E-2,4.581485689E-2,-2.596175298E-3
8.587974152E2,3.894263133E-2,3.039052337E-2,-9.315688163E-3
8.593015107E2,1.160643063E-2,6.108647794E-4,-8.552107029E-3
8.598056062E2,-1.175914705E-2,3.802633286E-2,-1.588248461E-2
8.603097015E2,2.932151034E-2,2.367101051E-2,7.177661173E-3
8.608137968E2,6.108647678E-3,-1.237001177E-2,1.420260593E-2
8.613178918E2,-9.926552884E-3,-1.084284950E-2,2.138026757E-3
8.618219869E2,-3.665188793E-3,-5.955931731E-3,-0.000000000E0
8.623260821E2,-8.399390616E-3,-1.527161920E-3,-9.621120058E-3
8.628301772E2,3.054323897E-4,-5.192350596E-3,-1.023198478E-2
8.633342722E2,-4.581485991E-4,-4.734201822E-3,3.054323897E-4
8.638383673E2,3.817904973E-3,1.924224012E-2,-6.414080039E-3
8.643424625E2,6.108647794E-4,-1.007926930E-2,-3.665188793E-3
8.648465575E2,-1.191186346E-2,-8.246674202E-3,-5.497782957E-3
8.653506527E2,1.832594397E-3,3.054323839E-3,-1.420260593E-2
8.658547480E2,1.527161949E-4,6.108647678E-3,-9.621120058E-3
8.663588433E2,-4.581485875E-3,-6.108647678E-3,8.246674202E-3
8.668629390E2,-1.114828233E-2,-4.886918236E-3,6.414080039E-3
8.673670350E2,5.345067009E-3,6.719512399E-3,1.023198478E-2
8.678711314E2,-5.345067009E-3,-6.719512399E-3,8.857538924E-3
8.683752281E2,6.108647794E-4,-2.596175298E-3,2.443459118E-3
8.688793328E2,7.635809598E-4,1.023198478E-2,9.010255337E-3
8.693834216E2,-5.192350596E-3,6.108647794E-4,1.328630932E-2
8.698875183E2,7.330377586E-3,-6.719512399E-3,8.246674202E-3
8.703916149E2,-1.985310577E-3,-3.207040019E-3,3.054323839E-3
8.708957114E2,-3.512472380E-3,-2.168569900E-2,-1.389717404E-2
8.713998077E2,-3.787361458E-2,-4.871646687E-2,-5.543597788E-2
8.719039039E2,-7.635809947E-3,-9.621120058E-3,-1.266017258E-1
8.724080000E2,-1.328630932E-2,-4.886918236E-3,-2.032652497E-1
8.729120960E2,-4.092793912E-2,-2.244928107E-2,-2.707658112E-1
8.734161918E2,-1.634063199E-2,1.389717404E-2,-3.104720116E-1
8.739202870E2,-5.619955808E-2,-2.718348242E-2,-3.378082216E-1
8.744243826E2,-6.475166976E-2,-1.572976820E-2,-3.404043913E-1
8.749284781E2,-3.252854943E-2,2.504545636E-2,-3.342957497E-1
8.754325733E2,-2.474002354E-2,2.397644334E-2,-2.883281708E-1
8.759366684E2,-5.589412898E-2,-2.764163166E-2,-2.217439115E-1
8.764407632E2,-4.428769462E-3,3.451386094E-2,-1.899789423E-1
8.769448578E2,-5.345067009E-3,1.313359290E-2,-1.469129771E-1
8.774489523E2,-1.802051067E-2,-1.481347065E-2,-9.712749720E-2
8.779530468E2,-6.719512399E-3,3.207040019E-3,-6.536252797E-2
8.784571413E2,3.985892609E-2,4.596757516E-2,-3.115410358E-2
8.789612356E2,-3.817904973E-3,-2.107483521E-2,-2.871064469E-2
8.794653297E2,8.093958721E-3,1.237001177E-2,-2.046396956E-2
8.799694236E2,-2.580903657E-2,1.939495653E-2,-1.435532235E-2
8.804735174E2,-1.557705179E-2,-4.734201822E-3,-1.206457894E-2
8.809776110E2,1.084284950E-2,1.389717404E-2,-1.496618707E-2
8.814817045E2,1.756236330E-2,-3.054323839E-3,-3.756818548E-2
8.819857981E2,-5.955931731E-3,1.679878123E-2,-3.711003438E-2
8.824898915E2,1.908952370E-2,3.955349326E-2,-3.741546720E-2
8.829939851E2,-5.955931731E-3,3.145953640E-2,-2.932151034E-2
8.834980786E2,1.099556591E-2,3.008509055E-2,7.177661173E-3
8.840021721E2,4.123337101E-3,1.679878123E-2,3.375028074E-2
8.845062656E2,5.345067009E-3,-1.374445739E-3,2.504545636E-2
8.850103590E2,9.468403645E-3,9.162971750E-3,3.252854943E-2
8.855144526E2,-3.359756200E-3,-4.734201822E-3,3.176496923E-2
8.860185461E2,-5.955931731E-3,-2.748891478E-3,2.580903657E-2
8.865226396E2,1.496618707E-2,1.007926930E-2,9.010255337E-3
8.870267330E2,1.603520103E-2,-5.650499370E-3,2.916879393E-2
8.875308263E2,-5.955931731E-3,-5.803215317E-3,1.328630932E-2
8.880349194E2,3.207040019E-3,4.123337101E-3,3.054323839E-3
8.885390124E2,2.748891478E-3,5.955931731E-3,2.290742937E-3
8.890431053E2,-1.069013379E-3,-4.734201822E-3,2.901607659E-3
8.895471981E2,-1.130099874E-2,7.635809598E-4,-3.207040019E-3
8.900512908E2,4.886918236E-3,2.290742937E-3,1.527161949E-4
8.905553834E2,1.679878100E-3,-1.221729559E-3,4.428769462E-3
8.910594759E2,-1.374445739E-3,3.054323897E-4,1.221729559E-3
8.915635682E2,-4.581485875E-3,-3.207040019E-3,2.748891478E-3
8.920676603E2,1.527161920E-3,9.162971983E-4,1.527161949E-4
8.925717523E2,-4.123337101E-3,-3.512472380E-3,-2.138026757E-3
8.930758442E2,-1.069013379E-3,-6.108647794E-4,-3.054323839E-3
8.935799361E2,2.290742937E-3,7.635809598E-4,5.650499370E-3
8.940840279E2,1.527161949E-4,-2.138026757E-3,3.054323897E-4
8.945881197E2,-1.527161949E-4,1.527161949E-4,1.679878100E-3
8.950922114E2,-9.162971983E-4,-3.054323897E-4,-7.635809598E-4
8.955963030E2,-2.290742937E-3,1.679878100E-3,-4.123337101E-3
8.961003945E2,-2.901607659E-3,-4.581485991E-4,0.000000000E0
8.966044859E2,3.817904973E-3,-2.138026757E-3,2.901607659E-3
8.971085773E2,-1.527161949E-4,-1.069013379E-3,1.832594397E-3
8.976126686E2,-1.221729559E-3,-1.527161949E-4,4.581485991E-4
8.981167599E2,1.527161920E-3,6.108647794E-4,-1.679878100E-3
8.986208511E2,-2.901607659E-3,2.596175298E-3,-2.901607659E-3
8.991249421E2,2.290742937E-3,-7.635809947E-3,3.207040019E-3
8.996290329E2,1.985310577E-3,-7.788525894E-3,9.162971750E-3
9.001331236E2,7.635809947E-3,-1.466075517E-2,1.740964688E-2
9.006372143E2,1.527161920E-3,-1.374445762E-2,-1.374445739E-3
9.011413050E2,-1.023198478E-2,-5.451968312E-2,5.925388262E-2
9.016453957E2,1.328630932E-2,2.809977904E-2,6.566796452E-3
9.021494863E2,1.435532235E-2,5.925388262E-2,2.367101051E-2
9.026535770E2,-1.007926930E-2,-4.444041103E-2,2.397644334E-2
9.031576675E2,4.886918236E-3,-3.817904973E-3,1.817322709E-2
9.036617579E2,3.817904973E-3,-1.450803876E-2,1.023198478E-2
9.041658482E2,1.374445739E-3,-6.414080039E-3,4.734201822E-3
9.046699385E2,5.955931731E-3,1.069013379E-3,-6.566796452E-3
9.051740288E2,4.886918236E-3,-6.414080039E-3,-1.099556591E-2
9.056781191E2,1.099556591E-2,-1.527161920E-3,-1.053741761E-2
9.061822092E2,-4.123337101E-3,-1.710421406E-2,-1.527161920E-3
9.066862994E2,8.246674202E-3,2.138026757E-3,-6.261364091E-3
9.071903895E2,-4.276053514E-3,-6.414080039E-3,-6.566796452E-3
9.076944795E2,5.177079141E-2,-6.261364091E-3,-3.512472380E-3
9.081985696E2,-3.207040206E-2,1.496618707E-2,-1.160643063E-2
9.087026598E2,-4.382954910E-2,-1.710421406E-2,2.443459118E-3
9.092067499E2,4.795288667E-2,3.298669681E-2,2.901607659E-3
9.097108401E2,-8.857538924E-3,6.414080039E-3,1.145371422E-2
9.102149304E2,-6.414080039E-3,-2.504545636E-2,1.404988952E-2
9.107190208E2,9.773836471E-3,3.054323839E-3,7.024944760E-3
9.112231112E2,-1.084284950E-2,-1.038470119E-2,3.817904973E-3
9.117272015E2,-1.649334840E-2,-1.725693047E-2,3.817904973E-3
9.122312919E2,-8.552107029E-3,-2.275471389E-2,1.007926930E-2
9.127353821E2,-1.924224012E-2,4.734201822E-3,1.069013402E-2
9.132394722E2,-3.054323979E-2,-6.108647678E-3,2.290742937E-3
9.137435622E2,-1.893680729E-2,7.635809598E-4,-1.343902480E-2
9.142476521E2,-1.267544460E-2,1.863137633E-2,-8.093958721E-3
9.147517418E2,-3.084867075E-2,4.276053514E-3,-1.237001177E-2
9.152558314E2,-2.214384824E-2,-2.748891478E-3,-1.725693047E-2
9.157599211E2,-5.650499370E-3,6.719512399E-3,-1.634063199E-2
9.162640108E2,4.276053514E-3,1.878409274E-2,-1.588248461E-2
9.167681003E2,-1.004872546E-1,2.092211880E-2,8.704823442E-3
9.172721898E2,3.023780696E-2,-4.581485689E-2,1.069013379E-3
9.177762791E2,6.368265301E-2,5.024362728E-2,-1.343902480E-2
9.182803682E2,-3.665188700E-2,-3.817904741E-2,-7.177661173E-3
9.187844572E2,1.527161989E-2,-2.443459118E-3,7.330377586E-3
9.192885461E2,-3.512472380E-3,7.330377586E-3,-5.345067009E-3
9.197926350E2,-8.857538924E-3,1.664606482E-2,7.483093534E-3
9.202967238E2,-2.244928107E-2,-3.130681813E-2,-1.267544460E-2
9.208008125E2,2.962694131E-2,3.497200832E-2,9.162971750E-3
9.213049011E2,-1.298087649E-2,-8.093958721E-3,-2.748891478E-3
9.218089897E2,2.596175298E-3,-2.214384824E-2,6.566796452E-3
9.223130783E2,1.985310577E-3,8.857538924E-3,9.162971983E-4
9.228171670E2,4.581485875E-3,-9.926552884E-3,-2.596175298E-3
9.233212560E2,-2.443459118E-3,-1.527161949E-4,-1.527161920E-3
9.238253451E2,-1.069013379E-3,-2.138026757E-3,1.069013379E-3
9.243294345E2,6.414080039E-3,7.788525894E-3,-4.886918236E-3
9.248335241E2,-0.000000000E0,1.679878100E-3,3.054323897E-4
9.253376141E2,-8.857538924E-3,-6.414080039E-3,-1.985310577E-3
9.258417044E2,1.053741761E-2,1.206457894E-2,-3.054323839E-3
9.263457948E2,-6.566796452E-3,-3.359756200E-3,6.261364091E-3
9.268498853E2,-4.734201822E-3,1.985310577E-3,4.276053514E-3
9.273539758E2,1.832594397E-3,-3.817904973E-3,1.527161949E-4
9.278580666E2,5.803215317E-3,-2.748891478E-3,-5.650499370E-3
9.283621578E2,-3.817904973E-3,1.527161920E-3,3.054323897E-4
9.288662495E2,-1.527161920E-3,-8.552107029E-3,-4.428769462E-3
9.293703413E2,9.162971983E-4,-6.414080039E-3,-7.788525894E-3
9.298744334E2,2.306014486E-2,-7.483093534E-3,-3.084867075E-2
9.303785255E2,3.359756200E-3,-1.878409274E-2,-5.894844979E-2
9.308826176E2,-4.214967042E-2,-3.573558852E-2,-1.098029464E-1
9.313867096E2,-2.351829410E-2,2.641990222E-2,-1.586721241E-1
9.318908016E2,-4.306596518E-2,-5.803215317E-3,-2.237292230E-1
9.323948935E2,-2.153298259E-2,2.718348242E-2,-2.860374451E-1
9.328989854E2,5.714640021E-1,5.804742575E-1,-9.393573403E-1
9.334030771E2,3.252854943E-2,-1.834121495E-1,-3.155116439E-1
9.339071688E2,-1.221729559E-3,-3.878991306E-2,-3.043633699E-1
9.344112603E2,5.513054505E-2,-6.704241037E-2,-2.838993967E-1
9.349153516E2,1.618791744E-2,-4.382954910E-2,-2.793179154E-1
9.354194428E2,4.337139800E-2,3.359756200E-3,-2.280052751E-1
9.359235339E2,6.108647794E-4,-2.443459071E-2,-1.864664704E-1
9.364276250E2,-1.832594397E-3,-2.626718581E-2,-1.278234571E-1
9.369317160E2,-1.542433538E-2,1.221729559E-3,-8.032871783E-2
9.374358070E2,3.054323839E-3,2.962694131E-2,-3.604102135E-2
9.379398980E2,2.718348242E-2,1.404988952E-2,-9.926552884E-3
9.384439891E2,6.872228812E-3,3.054323897E-4,1.374445739E-3
9.389480802E2,9.010255337E-3,-3.817904973E-3,2.138026804E-2
9.394521713E2,-1.221729559E-3,4.581485991E-4,-1.435532235E-2
9.399562625E2,-5.039634649E-3,1.985310577E-3,-1.496618707E-2
9.404603537E2,9.468403645E-3,1.114828233E-2,9.162971750E-3
9.409644447E2,-1.053741761E-2,-1.832594397E-3,1.466075517E-2
9.414685359E2,1.267544460E-2,2.076940238E-2,5.192350596E-3
9.419726269E2,-1.908952370E-2,-2.519817278E-2,1.649334840E-2
9.424767179E2,1.175914705E-2,2.962694131E-2,3.054323897E-4
9.429808089E2,2.703076601E-2,4.245510325E-2,7.177661173E-3
9.434848996E2,1.343902480E-2,3.344484791E-2,4.688387364E-2
9.439889904E2,-1.252272818E-2,3.115410358E-2,8.216131479E-2
9.444930810E2,-2.214384824E-2,3.054323897E-4,1.055268943E-1
9.449971717E2,-2.229656465E-2,6.368265301E-2,1.235474050E-1
9.455012625E2,-3.604102135E-2,4.841103405E-2,1.824958473E-1
9.460053535E2,-6.032289565E-2,4.535670951E-2,2.393062711E-1
9.465094446E2,-6.948586553E-2,1.160643063E-2,3.042106628E-1
9.470135360E2,-8.155044913E-2,-1.049160287E-1,3.787361681E-1
9.475176274E2,2.006690800E-1,-9.071341902E-2,4.573850036E-1
9.480217188E2,-1.160643063E-2,1.157588735E-1,1.437059343E-1
9.485258104E2,-9.315688163E-3,6.352993846E-2,2.220493406E-1
9.490299023E2,-1.878409274E-2,8.918625861E-2,1.863137633E-1
9.495339947E2,-1.970038936E-2,1.058323234E-1,1.116355360E-1
9.500380877E2,-2.244928107E-2,9.239330143E-2,1.134681329E-1
9.505421809E2,-1.023198478E-2,3.008509055E-2,1.800523996E-1
9.510462746E2,-1.542433538E-2,1.985310577E-3,1.983783394E-1
9.515503686E2,-4.459312931E-2,7.941242307E-3,9.208786488E-2
9.520544627E2,-3.527744114E-2,2.321286127E-2,-7.635809947E-3
9.525585571E2,-1.038470119E-2,-8.246674202E-3,-2.321286127E-2
9.530626518E2,-4.963276163E-2,-2.794706449E-2,1.832594397E-3
9.535667469E2,-3.100138716E-2,-2.138026757E-3,-2.199113183E-2
9.540708425E2,-2.825249545E-2,-2.397644334E-2,-2.046396956E-2
9.545749385E2,-9.773836471E-3,9.315688163E-3,8.399390616E-3
9.550790350E2,-1.740964688E-2,-5.955931731E-3,3.512472380E-3
9.555831317E2,0.000000000E0,-0.000000000E0,-7.024944760E-3
9.560872287E2,-4.734201822E-3,2.260199748E-2,-1.572976820E-2
9.565913258E2,-9.926552884E-3,3.207040019E-3,4.276053514E-3
9.570954230E2,-3.359756200E-3,7.177661173E-3,5.803215317E-3
9.575995202E2,7.483093534E-3,4.276053514E-3,3.970621154E-3
9.581036174E2,4.734201822E-3,1.298087649E-2,-3.054323839E-3
9.586077144E2,-5.192350596E-3,1.832594397E-3,7.635809947E-3
9.591118113E2,2.443459118E-3,2.000582218E-2,8.246674202E-3
9.596159080E2,-2.229656465E-2,-1.588248461E-2,1.435532235E-2
9.601200045E2,6.414080039E-3,4.276053514E-3,1.466075517E-2
9.606241007E2,-4.886918236E-3,-8.857538924E-3,3.054323839E-3
9.611281967E2,-6.108647794E-4,6.261364091E-3,1.038470119E-2
9.616322925E2,2.748891478E-3,-7.941242307E-3,-1.527161920E-3
9.621363881E2,-1.649334840E-2,-1.099556591E-2,-9.926552884E-3
9.626404836E2,1.007926930E-2,1.511890348E-2,-1.038470119E-2
9.631445789E2,-1.282816008E-2,4.734201822E-3,7.788525894E-3
9.636486740E2,-4.886918236E-3,-1.130099874E-2,-4.276053514E-3
9.641527690E2,4.581485991E-4,8.552107029E-3,9.162971983E-4
9.646568640E2,-4.428769462E-3,-4.581485875E-3,-2.596175298E-3
9.651609587E2,-2.290742937E-3,9.162971983E-4,-1.069013379E-3
9.656650532E2,-7.635809598E-4,3.817904973E-3,-5.039634649E-3
9.661691474E2,-8.552107029E-3,6.872228812E-3,9.010255337E-3
9.666732414E2,-4.886918142E-2,6.261364091E-3,2.672533318E-2
9.671773352E2,3.588830680E-2,1.756236330E-2,-7.788525894E-3
9.676814288E2,3.039052337E-2,-1.832594350E-2,-3.940077871E-2
9.681855222E2,-2.443459118E-3,2.535088919E-2,-6.108647794E-4
9.686896155E2,1.832594397E-3,-9.162971983E-4,-1.160643063E-2
9.691937087E2,-1.847865991E-2,-7.483093534E-3,-4.886918236E-3
9.696978016E2,2.458730713E-2,1.099556591E-2,1.313359290E-2
9.702018944E2,-2.031125315E-2,1.114828233E-2,5.650499370E-3
9.707059869E2,4.123337101E-3,-5.436696485E-2,1.878409274E-2
9.712100792E2,2.550360374E-2,8.338304609E-2,-1.664606482E-2
9.717141713E2,-4.352411628E-2,-4.749473557E-2,1.145371422E-2
9.722182632E2,6.108647678E-3,6.872228812E-3,8.246674202E-3
9.727223551E2,-9.162971750E-3,-9.621120058E-3,7.024944760E-3
9.732264466E2,1.221729559E-3,-1.374445739E-3,9.468403645E-3
9.737305380E2,2.901607659E-3,1.420260593E-2,2.748891478E-3
9.742346292E2,1.527161949E-4,3.512472380E-3,-2.138026757E-3
9.747387201E2,-1.038470119E-2,-3.970621154E-3,-5.803215317E-3
9.752428109E2,1.221729559E-3,7.483093534E-3,-3.665188793E-3
9.757469015E2,5.345067009E-3,-6.414080039E-3,8.857538924E-3
9.762509919E2,4.886918236E-3,1.542433538E-2,2.901607659E-3
9.767550822E2,-5.955931731E-3,-5.955931731E-3,1.832594397E-3
9.772591723E2,9.926552884E-3,1.221729536E-2,-2.138026757E-3
9.777632622E2,-1.145371422E-2,-1.282816008E-2,9.162971983E-4
9.782673519E2,-5.192350596E-3,6.261364091E-3,5.650499370E-3
9.787714416E2,-1.695149764E-2,-1.954767294E-2,1.175914705E-2
9.792755310E2,6.261364091E-3,1.389717404E-2,1.374445739E-3
9.797796203E2,-0.000000000E0,-6.872228812E-3,-1.603520103E-2
9.802837096E2,-2.748891478E-3,-8.093958721E-3,-1.221729559E-3
9.807877987E2,-6.566796452E-3,-4.581485991E-4,4.581485991E-4
9.812918878E2,8.399390616E-3,-9.162971983E-4,-2.748891478E-3
9.817959769E2,3.512472380E-3,-5.955931731E-3,-6.566796452E-3
9.823000660E2,-6.566796452E-3,2.138026804E-2,7.788525894E-3
9.828041551E2,-8.093958721E-3,3.665188700E-2,3.237583488E-2
9.833082442E2,2.382372692E-2,8.185587823E-2,1.021671370E-1
9.838123334E2,-5.849030241E-2,8.399390616E-3,1.530216336E-1
9.843164228E2,-1.802051067E-2,7.574722916E-2,2.405280024E-1
9.848205120E2,-3.604102135E-2,1.435532235E-2,2.698495090E-1
9.853246012E2,-4.932733253E-2,4.245510325E-2,3.176496923E-1
9.858286904E2,-6.062832847E-2,6.383536756E-2,3.248273432E-1
9.863327795E2,-6.169734150E-2,6.215549260E-2,3.346011937E-1
9.868368686E2,-4.871646687E-2,6.337722391E-2,3.255909383E-1
9.873409576E2,-4.917461425E-2,2.138026804E-2,2.974911332E-1
9.878450465E2,-5.039634556E-2,5.894844979E-2,2.583957911E-1
9.883491353E2,-5.085449293E-2,-9.926552884E-3,1.963930279E-1
9.888532241E2,-1.603520103E-2,2.076940238E-2,1.290451884E-1
9.893573129E2,-3.207040019E-3,-2.367101051E-2,6.230820715E-2
9.898614014E2,-3.237583488E-2,3.512472380E-3,3.176496923E-2
9.903654899E2,-2.901607659E-3,1.527161949E-4,2.275471389E-2
9.908695781E2,3.207040019E-3,-1.756236330E-2,1.160643063E-2
9.913736662E2,-1.618791744E-2,-1.069013379E-3,7.177661173E-3
9.918777541E2,1.069013402E-2,1.099556591E-2,-8.399390616E-3
9.923818418E2,-3.390299529E-2,-2.794706449E-2,1.985310577E-2
9.928859295E2,-1.145371422E-2,-5.497782957E-3,4.886918236E-3
9.933900169E2,5.497782957E-3,2.474002354E-2,-8.246674202E-3
9.938941042E2,1.985310577E-3,-6.108647678E-3,4.276053514E-3
9.943981912E2,3.512472380E-3,1.221729536E-2,-8.704823442E-3
9.949022781E2,-9.162971983E-4,-2.367101051E-2,1.420260593E-2
9.954063648E2,2.733619884E-2,3.390299529E-2,-3.817904973E-3
9.959104515E2,-2.886336111E-2,-5.024362728E-2,8.857538924E-3
9.964145381E2,-7.483093534E-3,-2.199113183E-2,1.557705179E-2
9.969186247E2,-6.261364091E-3,-1.527161920E-3,1.679878123E-2
9.974227112E2,-1.374445762E-2,-6.872228812E-3,8.857538924E-3
9.979267976E2,2.290742937E-3,2.122755162E-2,1.221729559E-3
