"Time (s)","Linear Acceleration x (m/s^2)","Linear Acceleration y (m/s^2)","Linear Acceleration z (m/s^2)"
0.000000000E0,2.035735846E-1,-8.157100677E-1,5.753054619E-1
1.433786560E-1,1.353144050E0,1.406822205E-1,-4.469785690E-1
6.433786560E-1,8.268324137E-1,5.143184662E-1,-7.864484787E-1
1.143378656E0,1.777163863E0,8.339016438E-1,2.275943756E-2
1.643378656E0,9.867259860E-1,-1.772310972E0,5.214977264E-1
2.143378656E0,-5.989670753E-1,-5.053801537E-1,-1.569528580E-1
2.643378656E0,2.461256981E-1,-5.818842649E-1,1.395168304E-1
3.143378656E0,-3.579957485E0,-5.031448841E0,2.226738930E0
3.643378656E0,9.019960165E-1,9.846665859E-1,-3.719186783E-1
4.143378656E0,1.211775899E0,-2.715170383E-1,1.809144020E0
4.643378656E0,-2.627080679E-1,-5.060505867E-2,7.441520691E-2
5.143378656E0,-8.467960358E-2,-3.591322899E-2,2.630558014E-1
5.643378656E0,-1.037096977E-2,8.486223221E-2,-5.853748322E-2
6.143378656E0,9.488087893E-2,3.612279892E-2,-1.613321304E-1
6.643378656E0,-9.528207779E-1,-4.314739704E-1,3.279676437E-1
7.143378656E0,1.947336912E0,2.311720848E-1,-6.287841797E-1
7.643378656E0,3.539695740E-1,5.701160431E-2,-6.331062317E-2
8.143378656E0,2.563839555E-1,-7.695484161E-2,-9.635162354E-2
8.643378656E0,-4.961978197E-1,-5.754303932E-2,3.907871246E-1
9.143378656E0,-9.134504795E-1,-3.302133083E-1,3.647327423E-2
9.643378656E0,-5.277726650E-1,-2.335040569E-1,-9.126567841E-2
1.014337866E1,-3.721408844E-1,-1.510268450E-1,-1.491470337E-1
1.064337866E1,-1.766889095E-1,-1.366419792E-1,1.321010590E-1
1.114337866E1,-1.304664612E-1,-1.329076290E-1,-9.554862976E-3
1.164337866E1,-2.622509003E-2,-3.958344460E-2,1.081991196E-1
1.214337866E1,1.029887199E-1,-2.391275167E-1,-3.467464447E-2
1.264337866E1,2.126765251E-2,-1.668795347E-1,1.765623093E-1
1.314337866E1,2.540605068E-1,-7.889962196E-2,1.480464935E-1
1.364337866E1,9.645336866E-1,5.217766762E-2,-3.708410263E-1
1.414337866E1,1.723907471E0,-3.812861443E-2,-1.101970673E-1
1.464337866E1,2.034420490E0,4.102373123E-1,2.285957336E-2
1.514337866E1,8.812674880E-1,1.089880466E-1,-4.842376709E-2
1.564337866E1,5.456676483E-1,2.118639946E-1,-6.941699982E-2
1.614337866E1,1.117879510E0,2.610700130E-1,-4.611043930E-1
1.664337866E1,5.187386274E-1,5.580806732E-2,-1.615085602E-1
1.714337866E1,3.548481464E-1,1.000633240E-1,1.454725266E-1
1.764337866E1,3.932166100E-1,-1.154656410E-1,6.399536133E-2
1.814337866E1,-1.239919662E-1,-5.157256126E-2,2.007112503E-1
1.864337866E1,2.073273659E-1,9.817695618E-2,-2.631006241E-1
1.914337866E1,8.649420738E-2,-2.453556061E-1,8.147525787E-2
1.964337866E1,5.973339081E-2,-9.268379211E-2,2.938499451E-1
2.014337866E1,2.013945580E-1,5.820512772E-3,2.089948654E-1
2.064337866E1,2.282679081E-2,-5.184078217E-2,-1.592254639E-1
2.114337866E1,-1.773539782E-1,-7.309174538E-2,4.741764069E-2
2.164337866E1,-1.336632967E-1,-2.821755409E-2,1.328840256E-1
2.214337866E1,-2.394850850E-1,-1.320734024E-1,-2.105607986E-1
2.264337866E1,-7.873222828E-1,-4.732246399E-1,3.049287796E-1
2.314337866E1,-1.078225851E0,-7.134950161E-1,3.052196503E-1
2.364337866E1,-4.571928382E-1,-4.378948212E-1,2.279949188E-2
2.414337866E1,-4.148405790E-2,-7.129883766E-2,1.043367386E-1
2.464337866E1,-7.088407874E-2,-7.216954231E-2,-3.155231476E-2
2.514337866E1,-2.117857039E-1,-2.934321165E-1,-2.761468887E-1
2.564337866E1,4.044799507E-2,1.102130413E-1,2.850580215E-1
2.614337866E1,2.335563302E-2,1.162126064E-1,1.878004074E-1
2.664337866E1,-6.890830398E-2,6.802725792E-2,3.920898438E-1
2.714337866E1,-7.476055622E-2,-8.548378944E-2,-1.624298096E-2
2.764337866E1,6.222863495E-2,-8.419346809E-2,8.335494995E-2
2.814337866E1,-1.135745645E-2,-1.651464701E-1,-1.166810989E-1
2.864337866E1,5.644232035E-3,-5.477905273E-3,-1.061820984E-2
2.914337866E1,7.476876676E-2,1.450145245E-1,1.968574524E-1
2.964337866E1,1.041182578E-1,-2.104687691E-2,-1.359300613E-1
3.014337866E1,7.108853757E-2,1.416747570E-1,9.881210327E-2
3.064337866E1,-3.258770704E-2,-1.193479300E-1,-1.172552109E-1
3.114337866E1,1.092621684E-2,1.118462086E-1,-1.576900482E-2
3.164337866E1,-8.713218570E-2,-1.199433804E-1,-1.200284958E-1
3.214337866E1,7.060734928E-2,5.339884758E-2,2.841949463E-2
3.264337866E1,4.390165210E-2,4.931449890E-3,3.287792206E-2
3.314337866E1,-1.087573767E-1,-7.203376293E-2,1.069164276E-2
3.364337866E1,-4.361015558E-2,-4.758155346E-2,9.469127655E-2
3.414337866E1,1.434955001E-2,1.554298401E-2,-5.454826355E-2
3.464337866E1,4.468286037E-2,-2.336883545E-2,1.216506958E-2
3.514337866E1,6.509664655E-2,5.081725121E-2,-3.866291046E-2
3.564337866E1,7.813218236E-2,8.441936970E-2,-1.162881851E-1
3.614337866E1,6.881633401E-2,3.685393333E-1,-7.514095306E-2
3.664337866E1,-7.420471311E-2,-5.369125605E-1,-2.722930908E-1
3.714337866E1,5.619858205E-2,-4.721025229E-1,3.014411926E-1
3.764337866E1,6.543248892E-3,-2.807439566E-1,5.788326263E-2
3.814337866E1,9.446412325E-3,-2.682820559E-1,5.710411072E-2
3.864337866E1,2.049455047E-2,-3.023722172E-1,1.429767609E-1
3.914337866E1,2.692511678E-2,-8.306860924E-3,5.700397491E-2
3.964337866E1,-2.630838752E-2,-3.324961662E-2,-4.542350769E-2
4.014337866E1,3.578943014E-2,4.530160427E-1,-1.236820221E-1
4.064337866E1,3.382733464E-2,1.610118151E-1,-3.396034241E-2
4.114337866E1,-1.564052105E-1,9.265017509E-2,-3.442287445E-2
4.164337866E1,-3.245240450E-2,2.876930237E-1,-7.601070404E-2
4.214337866E1,-6.150367856E-2,7.974319458E-1,-2.460813522E-1
4.264337866E1,-6.670466065E-2,5.711903572E-1,-1.750907898E-1
4.314337866E1,-1.739886403E-2,2.789816856E-1,-1.046552658E-1
4.364337866E1,-5.670487881E-3,1.810431480E-1,-6.403446198E-2
4.414337866E1,3.525322676E-2,1.430025101E-1,-9.842872620E-3
4.464337866E1,-4.168421030E-2,1.423881054E-1,-1.116237640E-1
4.514337866E1,5.267030001E-2,5.450439453E-2,-4.914760590E-2
4.564337866E1,1.959470212E-1,1.529998779E-1,-7.562446594E-2
4.614337866E1,-4.652059078E-2,-1.706147194E-1,3.672399521E-1
4.664337866E1,-6.304234266E-3,-2.174975872E-1,-2.732276917E-3
4.714337866E1,5.528566241E-2,-1.111173630E-1,8.068752289E-2
4.764337866E1,3.346714377E-2,1.596140862E-2,5.388927460E-2
4.814337866E1,2.925419807E-2,9.360647202E-2,-2.711420059E-1
4.864337866E1,-8.432066441E-2,5.655288696E-2,-8.979225159E-2
4.914337866E1,-1.122799814E-1,-2.376725674E-1,5.299091339E-2
4.964337866E1,-1.076300144E-1,-8.438849449E-2,1.348428726E-1
5.014337866E1,-1.366198063E-3,2.048325539E-2,8.239746094E-4
5.064337866E1,5.302917957E-2,-6.725072861E-3,-4.928302765E-2
5.114337866E1,8.790016174E-3,-6.982326508E-3,2.846717834E-3
5.164337866E1,1.088588983E-1,3.762722015E-2,-5.847740173E-2
5.214337866E1,-1.715323329E-2,-4.716682434E-2,7.294940948E-2
5.264337866E1,-9.278774261E-3,1.388676167E-1,-6.753635406E-2
5.314337866E1,-1.837369204E-1,-2.752528191E-1,1.820516586E-1
5.364337866E1,-2.030047178E-1,-2.835631371E-2,3.684329987E-2
5.414337866E1,-4.200616479E-2,-5.335164070E-2,-3.991889954E-1
5.464337866E1,4.737558961E-2,-8.280277252E-3,-1.045160294E-1
5.514337866E1,7.426753640E-2,-6.690979004E-2,1.173305511E-2
5.564337866E1,9.630453587E-2,-1.706128120E-1,-1.118288040E-1
5.614337866E1,6.631657481E-2,-3.746962547E-2,-1.631355286E-2
5.664337866E1,-1.480688453E-1,7.480931282E-2,1.502609253E-1
5.714337866E1,8.979430795E-2,6.238293648E-2,-3.459072113E-2
5.764337866E1,-8.062738180E-2,8.703947067E-3,2.143955231E-2
5.814337866E1,1.000739038E-1,-6.031537056E-2,-1.793127060E-1
5.864337866E1,-3.208945990E-1,3.628847599E-1,9.999513626E-1
5.914337866E1,1.704718918E-1,4.855871201E-3,-6.742382050E-1
5.964337866E1,-1.869954169E-1,1.890296936E-1,2.741756439E-1
6.014337866E1,3.044733107E-1,2.654542923E-1,-7.658576965E-2
6.064337866E1,-2.287610173E-1,2.924754620E-1,6.111021042E-1
6.114337866E1,8.297425508E-2,4.951024055E-2,-4.654979706E-2
6.164337866E1,-2.530020475E-2,6.335568428E-2,3.898143768E-2
6.214337866E1,-7.942467928E-3,2.431035042E-2,6.130218506E-3
6.264337866E1,-6.604588032E-2,8.221602440E-2,1.127719879E-1
6.314337866E1,1.362317801E-2,1.361918449E-2,-8.166408539E-2
6.364337866E1,1.735144854E-2,3.272891045E-2,2.795886993E-2
6.414337866E1,-7.642698288E-2,1.653099060E-2,8.665561676E-2
6.464337866E1,-4.274702072E-2,-2.214574814E-2,-3.185939789E-2
6.514337866E1,-1.142144203E-1,-4.271578789E-2,-8.193016052E-3
6.564337866E1,-1.299129128E-1,-2.729237080E-1,-3.418807983E-1
6.614337866E1,1.329524517E-1,3.474290371E-1,1.405878067E-1
6.664337866E1,1.241950393E-1,-8.463859558E-3,-1.861972809E-1
6.714337866E1,-3.194624186E-2,1.320068836E-1,3.017330170E-1
6.764337866E1,1.546769142E-1,-5.699181557E-2,-5.033597946E-1
6.814337866E1,-5.997538567E-1,6.161069870E-2,2.021989822E-1
6.864337866E1,-1.396043301E-1,-6.833457947E-2,-5.131835938E-1
6.914337866E1,-2.572531700E-1,8.734488487E-2,4.197530746E-1
6.964337866E1,-1.443637013E-1,7.847476006E-2,2.438974380E-1
7.014337866E1,-5.694454908E-2,-1.085138321E-1,1.477546692E-1
7.064337866E1,6.265777349E-2,5.239939690E-2,-2.992706299E-1
7.114337866E1,-1.262376904E-1,1.342296600E-4,7.543468475E-2
7.164337866E1,7.218348980E-2,7.408905029E-2,4.624652863E-2
7.214337866E1,-1.397987604E-1,-1.999132633E-1,4.382419586E-2
7.264337866E1,-3.081703186E-2,-1.621387005E-1,-2.666091919E-2
7.314337866E1,2.226141691E-1,-1.028543711E-1,4.029922485E-1
7.364337866E1,-7.439225912E-2,3.461289406E-2,3.307313919E-1
7.414337866E1,1.710723937E-1,-6.915831566E-2,1.027774811E-2
7.464337866E1,-1.686363965E-1,9.828662872E-2,1.066503525E-1
7.514337866E1,-1.451899558E-1,-1.236404181E-1,9.114074707E-2
7.564337866E1,1.885069460E-1,-5.495905876E-3,-6.100559235E-2
7.614337866E1,-1.905620098E-3,4.062151909E-2,1.200037003E-1
7.664337866E1,8.104054630E-2,2.023983002E-2,-2.824306488E-2
7.714337866E1,7.779483497E-2,3.613233566E-2,1.684913635E-1
7.764337866E1,5.072364956E-2,5.599975586E-3,-8.965873718E-2
7.814337866E1,2.142469585E-2,1.671655178E-1,-2.684593201E-3
7.864337866E1,-1.058743298E-1,1.890285015E-1,-1.445674896E-2
7.914337866E1,1.349055767E-2,1.129205227E-1,-3.114223480E-2
7.964337866E1,2.446386218E-2,3.994226456E-3,-1.230707169E-1
8.014337866E1,-1.825042963E-1,1.046228409E-2,1.192922592E-1
8.064337866E1,8.905991912E-2,6.471395493E-3,-2.500019073E-1
8.114337866E1,2.711400390E-2,-6.783723831E-3,-4.264736176E-2
8.164337866E1,-2.658330202E-1,-3.331179619E-1,-7.386589050E-2
8.214337866E1,-6.556510925E-7,-2.884185314E-1,-6.589031219E-2
8.264337866E1,-4.685181379E-2,-1.964809895E-1,1.964092255E-2
8.314337866E1,4.882088304E-2,-4.743671417E-2,-4.592037201E-2
8.364337866E1,1.171071231E-1,-1.208782196E-3,-9.303092957E-3
8.414337866E1,-4.728269577E-2,-4.300451279E-2,5.087566376E-2
8.464337866E1,9.855091572E-3,4.435324669E-2,2.245044708E-2
8.514337866E1,-1.293168962E-1,-5.450034142E-2,-3.541374207E-2
8.564337866E1,7.249075174E-2,-2.216018438E-1,-1.658535004E-2
8.614337866E1,-3.041166067E-2,-1.916198730E-1,1.234598160E-1
8.664337866E1,-4.406866431E-2,-1.205521822E-1,4.904270172E-2
8.714337866E1,2.217531204E-3,1.506602764E-1,-3.243637085E-2
8.764337866E1,-3.498226404E-2,2.308344841E-2,-4.321584702E-1
8.814337866E1,-1.741805375E-1,2.492523193E-2,2.476024628E-2
8.864337866E1,1.131561399E-2,1.543927193E-2,1.046934128E-1
8.914337866E1,-3.843873739E-2,1.476144791E-2,1.172676086E-1
8.964337866E1,1.645110399E-1,1.126170158E-1,-1.683912277E-1
9.014337866E1,-8.427200466E-2,7.729077339E-2,-5.307006836E-2
9.064337866E1,-7.518029958E-2,-1.514507532E-1,-2.904090881E-1
9.114337866E1,6.773389876E-2,1.309170723E-1,3.446674347E-2
9.164337866E1,-6.811789423E-2,-3.326869011E-2,6.311035156E-2
9.214337866E1,-8.109566569E-2,5.415987968E-2,-9.614181519E-2
9.264337866E1,1.698049754E-1,2.137112617E-2,-4.070758820E-2
9.314337866E1,-2.853893638E-1,-1.312029362E-1,3.544807434E-1
9.364337866E1,1.305498034E-1,4.155038595E-1,-7.204837799E-1
9.414337866E1,1.497033387E-1,-3.588182926E-1,-7.783050537E-1
9.464337866E1,-1.161180139E-1,3.983132839E-1,6.053428650E-1
9.514337866E1,7.403516769E-2,1.369743347E-1,-5.686578751E-1
9.564337866E1,-5.918249488E-2,3.933417797E-1,1.543216705E-1
9.614337866E1,-1.050310731E-1,9.559869766E-3,-1.832189560E-1
9.664337866E1,-1.074707508E-1,1.013510227E-1,9.083271027E-2
9.714337866E1,-9.969383478E-2,-4.123258591E-2,4.652976990E-2
9.764337866E1,4.518589377E-2,1.971266270E-1,-8.611679077E-4
9.814337866E1,-6.473302841E-3,-3.653502464E-2,-6.930637360E-2
9.864337866E1,-3.276109695E-3,-1.215655804E-1,-8.371257782E-2
9.914337866E1,6.663939357E-2,1.544642448E-1,7.417201996E-2
9.964337866E1,-9.502112865E-3,-1.841161251E-1,-1.060962677E-2
1.001433787E2,-1.084882021E-2,-9.327125549E-2,6.856727600E-2
1.006433787E2,-1.089400053E-2,1.338014603E-1,-2.385520935E-2
1.011433787E2,3.083086014E-2,3.731632233E-2,-1.163473129E-1
1.016433787E2,-9.486985207E-2,-2.119631767E-1,-4.550075531E-2
1.021433787E2,-8.374124765E-3,1.974344254E-3,9.195995331E-2
1.026433787E2,-5.191120505E-2,-9.852480888E-2,-3.067684174E-2
1.031433787E2,-1.122441292E-1,-2.033710480E-4,-1.027679443E-2
1.036433787E2,5.232608318E-2,6.003880501E-2,6.594657898E-3
1.041433787E2,-1.323804259E-1,-4.287981987E-2,9.574222565E-2
1.046433787E2,-1.456802487E-1,-1.261365414E-1,-1.181764603E-1
1.051433787E2,-7.913804054E-2,-2.689599991E-3,-4.184341431E-2
1.056433787E2,-2.849704027E-2,-1.153755188E-1,-4.024028778E-2
1.061433787E2,-5.881571770E-2,7.671761513E-2,1.328601837E-1
1.066433787E2,-1.801928282E-1,-1.864402294E-1,-1.948518753E-1
1.071433787E2,-1.484434605E-1,5.103802681E-2,1.389055252E-1
1.076433787E2,1.097881198E-1,-1.016399860E-1,8.739471436E-2
1.081433787E2,-2.493155003E-1,4.910254478E-2,1.051645279E-1
1.086433787E2,1.242514849E-1,-7.646083832E-4,1.485843658E-1
1.091433787E2,2.982717752E-2,9.589529037E-2,1.555585861E-1
1.096433787E2,2.064094543E-1,5.343699455E-2,9.246921539E-2
1.101433787E2,-2.678102255E-2,3.322267532E-2,1.200542450E-1
1.106433787E2,-1.760190725E-2,-1.857328415E-2,-3.755521774E-1
1.111433787E2,4.204136133E-2,5.552744865E-2,4.575061798E-2
1.116433787E2,-2.157995701E-1,-5.902719498E-2,-3.322172165E-1
1.121433787E2,8.819070458E-2,4.912710190E-2,-1.467809677E-1
1.126433787E2,7.957288623E-2,8.449816704E-2,7.726955414E-2
1.131433787E2,1.251536608E-2,1.363751888E-1,-1.293182373E-3
1.136433787E2,-4.562866688E-2,-1.040594578E-1,2.999010086E-1
1.141433787E2,4.143555760E-1,-1.024937630E-2,-5.542440414E-1
1.146433787E2,3.679502308E-1,-4.596467018E-1,-3.376331329E-1
1.151433787E2,1.756166667E-1,-1.960182190E-2,-4.370021820E-2
1.156433787E2,2.144542038E-1,-1.047506332E-1,-1.023769379E-1
1.161433787E2,-2.388294041E-1,-1.796758175E-1,-8.916568756E-2
1.166433787E2,-1.270480454E-1,-1.488542557E-2,-1.247692108E-2
1.171433787E2,-1.073909849E-1,-1.561865807E-1,-1.828193665E-2
1.176433787E2,-1.474902034E-1,1.069574356E-1,7.107067108E-2
1.181433787E2,2.243540287E-1,2.673649788E-2,-1.617116928E-1
1.186433787E2,1.724673808E-1,1.571154594E-2,-1.147079468E-1
1.191433787E2,-9.454995394E-2,-1.516847610E-1,3.070545197E-2
1.196433787E2,-4.485785216E-2,2.482056618E-2,4.223728180E-2
1.201433787E2,1.023185775E-1,7.340717316E-2,-9.561443329E-2
1.206433787E2,-4.911896959E-2,-1.375420094E-1,7.465934753E-2
1.211433787E2,3.904341161E-2,-3.589653969E-2,3.657627106E-2
1.216433787E2,-3.714000434E-2,3.062725067E-2,3.323650360E-2
1.221433787E2,5.221721530E-2,-7.064151764E-2,-9.439086914E-2
1.226433787E2,1.108729243E-1,-8.044481277E-3,7.415485382E-2
1.231433787E2,-1.596145332E-2,4.677271843E-2,-1.410102844E-2
1.236433787E2,-1.601527631E-1,-5.982351303E-2,-1.738739014E-2
1.241433787E2,3.332074732E-2,8.948969841E-2,1.765470505E-1
1.246433787E2,8.700691909E-2,-1.899545193E-1,-2.480697632E-2
1.251433787E2,-7.185249776E-2,-4.156041145E-2,-6.169795990E-2
1.256433787E2,1.626862586E-2,-1.835143566E-2,-7.032775879E-2
1.261433787E2,3.808891773E-2,2.594113350E-3,-2.659702301E-2
1.266433787E2,1.285710931E-2,4.533064365E-2,-9.233379364E-2
1.271433787E2,4.996329546E-3,3.031730652E-2,7.451534271E-2
1.276433787E2,6.431120634E-2,4.499268532E-2,3.407382965E-2
1.281433787E2,5.448830128E-2,-2.002763748E-2,-1.508808136E-2
1.286433787E2,-2.244275808E-2,8.477687836E-3,3.770542145E-2
1.291433787E2,-2.094024420E-2,-3.970146179E-2,-5.805301666E-2
1.296433787E2,-5.622643232E-2,7.385182381E-2,8.056735992E-2
1.301433787E2,2.021461725E-2,-6.971621513E-2,8.676528931E-3
1.306433787E2,2.641856670E-2,2.817106247E-2,1.457185745E-1
1.311433787E2,2.949578166E-1,2.232711315E-1,1.750555038E-1
1.316433787E2,-5.440622568E-2,3.133845329E-2,-5.623149872E-2
1.321433787E2,-8.595395088E-2,9.981513023E-2,1.985549927E-3
1.326433787E2,-1.448923349E-2,-8.026242256E-2,2.973079681E-2
1.331433787E2,-2.040405869E-1,-1.184940338E-4,-1.685571671E-1
1.336433787E2,9.775501490E-2,1.695895195E-2,-9.558200836E-2
1.341433787E2,1.284865737E-1,1.134383678E-1,1.038370132E-1
1.346433787E2,-1.685012579E-1,-4.204154015E-2,-5.441570282E-2
1.351433787E2,7.649838924E-2,7.288026810E-2,3.513050079E-2
1.356433787E2,-2.153337002E-3,1.133894920E-2,-1.004228592E-1
1.361433787E2,-8.462220430E-2,-3.689980507E-2,-1.653642654E-1
1.366433787E2,5.781733990E-2,-8.390784264E-2,3.639125824E-2
1.371433787E2,2.784458399E-1,2.537736893E-1,3.015804291E-1
1.376433787E2,-1.236356497E-1,-2.575900555E-1,-6.584644318E-2
1.381433787E2,-3.793603182E-2,-1.628643274E-1,8.059883118E-2
1.386433787E2,-2.839666605E-2,-4.921960831E-2,-3.067293167E-1
1.391433787E2,-1.292173862E-1,-2.666076422E-1,-3.040132523E-1
1.396433787E2,9.253546000E-1,5.798565149E-1,6.481132507E-1
1.401433787E2,1.661089659E-1,2.278860807E-1,9.327316284E-2
1.406433787E2,-1.745213866E-1,-4.680545330E-1,-1.097587585E0
1.411433787E2,7.566128373E-1,3.097558022E-1,7.284383774E-1
1.416433787E2,4.771153927E-1,3.459023237E-1,4.600143433E-1
1.421433787E2,5.758783817E-1,-3.940141201E-1,-5.986213684E-1
1.426433787E2,7.049565315E-1,4.226827621E-2,1.620054245E-1
1.431433787E2,3.338823318E-1,3.753447533E-2,1.663875580E-2
1.436433787E2,2.285399437E-1,1.564195156E-1,2.463626862E-1
1.441433787E2,1.241850853E-1,6.568789482E-2,1.095190048E-1
1.446433787E2,1.374751329E-1,-1.172766685E-1,-3.131732941E-1
1.451433787E2,-3.665709496E-2,2.830100060E-2,2.084245682E-1
1.456433787E2,-8.096301556E-2,-1.147468090E-1,-1.881694794E-2
1.461433787E2,1.931154728E-2,2.512693405E-3,3.569602966E-2
1.466433787E2,-5.108249187E-2,-2.655458450E-2,-1.418018341E-2
1.471433787E2,-2.043827772E-1,-5.868220329E-2,-1.033258438E-1
1.476433787E2,-2.001951933E-1,-4.844689369E-2,-4.666042328E-2
1.481433787E2,1.221793294E-1,7.542967796E-2,1.611709595E-1
1.486433787E2,1.171916127E-1,-6.959104538E-2,7.184219360E-2
1.491433787E2,4.033768177E-2,1.107740402E-1,-1.643495560E-1
1.496433787E2,-3.223867118E-1,5.843234062E-2,-9.670925140E-2
1.501433787E2,-8.242896199E-1,1.100780964E-1,4.121017456E-2
1.506433787E2,-1.172540188E0,1.560626030E-1,1.123905182E-2
1.511433787E2,-4.897388816E-1,-3.968000412E-3,-1.951160431E-1
1.516433787E2,-1.460503340E-1,-5.191636086E-2,7.707214355E-2
1.521433787E2,-5.537164211E-2,-9.731888771E-2,7.862377167E-2
1.526433787E2,3.890711069E-2,-1.171782017E-1,1.724834442E-1
1.531433787E2,2.152159512E-1,2.193522453E-2,-2.623996735E-1
1.536433787E2,3.368016481E-1,-1.688599586E-2,-3.068342209E-1
1.541433787E2,2.492641956E-1,5.249547958E-2,3.297519684E-2
1.546433787E2,5.640124083E-1,2.383890152E-1,4.760198593E-1
1.551433787E2,2.189360857E-1,9.813785553E-3,-2.192764282E-1
1.556433787E2,9.952920675E-2,9.130787849E-2,-2.692890167E-1
1.561433787E2,-1.095837504E-1,-7.128453255E-2,-9.750652313E-2
1.566433787E2,1.454384327E-1,3.786563873E-3,2.207088470E-2
1.571433787E2,1.787087023E-1,3.492116928E-3,2.014827728E-2
1.576433787E2,-1.219043732E-1,1.986551285E-2,-7.176399231E-3
1.581433787E2,-2.141973525E-1,-4.671335220E-3,-1.156320572E-1
1.586433787E2,1.896516979E-1,8.349370956E-2,-3.039455414E-2
1.591433787E2,3.500592709E-2,7.364034653E-3,-3.047180176E-2
1.596433787E2,-1.035654545E-1,-1.178518534E-1,1.086645126E-1
1.601433787E2,-8.654534817E-2,6.535601616E-2,1.213598251E-1
1.606433787E2,3.977812827E-2,5.674099922E-2,2.053928375E-1
1.611433787E2,-3.575426340E-2,-1.037916660E0,3.838205338E-1
1.616433787E2,1.101449430E-1,-8.188995123E-1,1.498441696E-1
1.621433787E2,2.318868041E-2,-1.703706980E-1,-8.639240265E-2
1.626433787E2,-4.521568865E-2,8.838057518E-2,-4.403400421E-2
1.631433787E2,-1.585597694E-1,-3.149725199E-1,1.768465042E-1
1.636433787E2,2.534030080E-1,-8.859558702E-1,2.969779968E-1
1.641433787E2,4.657229185E-1,1.794050932E-1,-3.283672333E-1
1.646433787E2,-3.437572718E-2,5.505384207E-1,-2.641773224E-1
1.651433787E2,-4.100141227E-1,8.989809752E-1,-2.520122528E-1
1.656433787E2,-5.142312050E-1,4.548591375E-1,4.798889160E-3
1.661433787E2,-2.340633631E0,6.770253181E-2,-1.358919144E-1
1.666433787E2,-5.112379789E-1,3.016144037E-1,-7.513523102E-2
1.671433787E2,-2.705822885E-1,-7.512116432E-2,7.861423492E-2
1.676433787E2,1.983107775E-1,1.491487026E-1,1.670207977E-1
1.681433787E2,-7.293857634E-2,7.303655148E-1,-1.339607239E-1
1.686433787E2,-4.710977077E-1,2.368044853E-2,4.387664795E-2
1.691433787E2,-5.228171349E-1,-4.072238207E-1,4.561042786E-2
1.696433787E2,-1.719877720E-1,-4.597474337E-1,1.839723587E-1
1.701433787E2,3.781431913E-2,-2.874273062E-1,-1.142416000E-1
1.706433787E2,9.062922001E-2,-2.295762300E-1,1.180562973E-1
1.711433787E2,2.894526422E-1,-2.949281931E-1,-1.197614670E-1
1.716433787E2,4.357590675E-1,-2.503731251E-1,1.183061600E-1
1.721433787E2,1.918693632E-1,1.409111023E-1,-9.144210815E-2
1.726433787E2,4.083222449E-1,-2.211854458E-1,1.174154282E-1
1.731433787E2,2.792742848E-1,2.932524681E-2,-2.372074127E-2
1.736433787E2,3.493314385E-1,-3.544545174E-2,2.194662094E-1
1.741433787E2,1.257797480E-1,-1.750907898E-1,-2.958297729E-3
1.746433787E2,2.955603600E-2,-8.679986000E-2,3.008365631E-2
1.751433787E2,-4.853022099E-2,6.240677834E-2,5.997657776E-3
1.756433787E2,-1.297473907E-3,-2.325193882E-1,8.050632477E-2
1.761433787E2,-3.151649237E-2,6.244599819E-2,3.591823578E-2
1.766433787E2,-5.631566048E-3,3.615045547E-2,-2.849578857E-3
1.771433787E2,-2.540034056E-2,1.517081261E-2,-8.992195129E-2
1.776433787E2,-4.194408655E-2,1.094846725E-1,-6.296443939E-2
1.781433787E2,9.249448776E-4,1.346580982E-1,2.005767822E-2
1.786433787E2,-4.701495171E-3,2.681136131E-2,4.194927216E-2
1.791433787E2,2.287864685E-2,-1.841722727E-1,7.878398895E-2
1.796433787E2,4.364109039E-2,-1.125549078E-1,2.625560760E-2
1.801433787E2,7.056832314E-3,-1.593124866E-2,2.266216278E-2
1.806433787E2,3.216725588E-2,7.343435287E-2,6.914138794E-4
1.811433787E2,-4.127681255E-3,1.506069899E-1,-4.537868500E-2
1.816433787E2,8.509695530E-3,1.115298271E-1,-2.261257172E-2
1.821433787E2,5.880177021E-3,6.608748436E-2,-2.889919281E-2
1.826433787E2,-4.464030266E-3,7.036447525E-3,-8.236885071E-3
1.831433787E2,3.497827053E-2,9.236073494E-2,-1.998233795E-2
1.836433787E2,-5.037844181E-3,1.618754864E-1,4.579544067E-2
1.841433787E2,4.357355833E-2,-5.509853363E-2,1.196660995E-1
1.846433787E2,-2.139693499E-2,1.487970352E-3,-4.318332672E-2
1.851433787E2,4.727911949E-2,-3.033041954E-2,4.010200500E-2
1.856433787E2,-1.018577814E-2,-2.311539650E-2,-3.555393219E-2
1.861433787E2,2.148175240E-2,2.804613113E-2,1.830577850E-2
1.866433787E2,-2.907562256E-2,4.737615585E-3,4.062652588E-4
1.871433787E2,3.717970848E-2,-6.870508194E-3,-7.055282593E-3
1.876433787E2,-7.746815681E-4,1.798844337E-2,2.520561218E-2
1.881433787E2,1.047152281E-2,-2.445721626E-2,3.715991974E-2
1.886433787E2,2.421951294E-2,1.668930054E-6,3.381061554E-2
1.891433787E2,-1.075989008E-2,-2.712488174E-3,-3.017330170E-2
1.896433787E2,-2.295207977E-2,5.232334137E-3,-2.534389496E-2
1.901433787E2,-4.994642735E-2,1.054644585E-2,-9.694194794E-2
1.906433787E2,1.822632551E-2,-4.720473289E-2,1.002626419E-1
1.911433787E2,2.177292109E-2,1.159739494E-2,1.530170441E-2
1.916433787E2,-3.951638937E-2,-5.974054337E-3,2.366161346E-2
1.921433787E2,-1.287019253E-2,-2.877330780E-2,2.365112305E-3
1.926433787E2,-4.486739635E-3,-2.424621582E-2,3.252887726E-2
1.931433787E2,1.550275087E-2,-1.643896103E-3,-1.215076447E-2
1.936433787E2,-2.150917053E-2,5.189418793E-3,-5.436229706E-2
1.941433787E2,1.221223474E-1,1.399023533E-1,-7.652854919E-2
1.946433787E2,-1.285493374E-3,-7.026410103E-2,2.852916718E-2
1.951433787E2,1.154983044E-2,-1.585984230E-2,-2.282047272E-2
1.956433787E2,-1.359063387E-2,1.422643661E-2,-4.347419739E-2
1.961433787E2,1.718580723E-3,-2.260601521E-2,-3.274917603E-3
1.966433787E2,-1.224994659E-3,-5.160450935E-3,-5.187034607E-3
1.971433787E2,-6.760895252E-3,-8.963465691E-3,2.516746521E-3
1.976433787E2,-2.823293209E-3,1.174604893E-2,-1.273536682E-2
1.981433787E2,-2.245748043E-2,-1.637363434E-2,7.847785950E-3
1.986433787E2,8.728206158E-3,-1.231062412E-2,6.078720093E-3
1.991433787E2,-7.467329502E-3,6.260514259E-3,-5.872726440E-3
1.996433787E2,4.553794861E-3,8.306741714E-3,-1.867961884E-2
2.001433787E2,-1.437664032E-3,-4.067540169E-3,1.153469086E-2
2.006433787E2,5.003571510E-3,8.341431618E-3,-1.902580261E-3
2.011433787E2,-3.644227982E-4,-1.711583138E-2,-7.228851318E-3
2.016433787E2,6.512284279E-3,-3.996610641E-3,7.391929626E-3
2.021433787E2,-5.547165871E-3,1.743519306E-2,-1.934623718E-2
2.026433787E2,1.987659931E-2,2.265822887E-2,-2.397346497E-2
2.031433787E2,1.283824444E-2,-8.655786514E-3,3.262519836E-3
2.036433787E2,9.832859039E-3,2.189683914E-2,-4.975318909E-3
2.041433787E2,1.065385342E-2,1.134264469E-2,-2.527141571E-2
2.046433787E2,5.084395409E-3,-4.593133926E-3,1.442909241E-3
2.051433787E2,3.481745720E-3,7.045626640E-3,1.716613770E-4
2.056433787E2,9.797334671E-3,1.472866535E-2,-4.593849182E-3
2.061433787E2,1.046252251E-2,-3.279924393E-3,1.048278809E-2
2.066433787E2,1.548111439E-2,-8.799314499E-3,2.282619476E-2
2.071433787E2,1.711559296E-2,2.595043182E-2,-1.333045959E-2
2.076433787E2,1.162433624E-2,-9.370207787E-3,-2.357482910E-3
2.081433787E2,1.290643215E-2,4.800915718E-3,3.989219666E-3
2.086433787E2,3.649622202E-2,-3.207707405E-2,-1.647853851E-2
2.091433787E2,4.282480478E-2,5.084323883E-2,-2.753448486E-2
2.096433787E2,-6.516116858E-2,6.014275551E-2,1.125049591E-2
2.101433787E2,-7.660567760E-3,1.156997681E-2,-1.179599762E-2
2.106433787E2,-6.423780322E-2,6.676125526E-2,-2.022171021E-2
2.111433787E2,-2.761653066E-2,1.098465919E-2,7.855415344E-3
2.116433787E2,3.401708603E-2,-2.846646309E-2,1.509189606E-2
2.121433787E2,1.712828875E-1,-1.930036545E-1,9.929466248E-2
2.126433787E2,-9.899358451E-2,2.823266983E-1,-1.555976868E-1
2.131433787E2,2.142211795E-2,-5.903077126E-2,8.067417145E-2
2.136433787E2,-1.022930741E-1,-2.326314449E-1,5.470561981E-2
2.141433787E2,2.297245860E-1,6.934094429E-2,-3.368949890E-2
2.146433787E2,1.157817841E-1,2.850711346E-1,-1.503543854E-1
2.151433787E2,-7.918387651E-2,-2.373259068E-1,1.223649979E-1
2.156433787E2,7.209950686E-2,1.595332623E-1,-1.073007584E-1
2.161433787E2,9.417223930E-2,7.758545876E-2,-4.437923431E-2
2.166433787E2,-1.559789628E-1,-8.553314209E-2,3.158283234E-2
2.171433787E2,5.984455347E-3,-3.213191032E-2,3.635501862E-2
2.176433787E2,-4.117310047E-2,2.934751511E-1,-7.478618622E-2
2.181433787E2,8.000642061E-2,1.366842270E0,-3.531465530E-1
2.186433787E2,7.235634327E-2,5.693957806E-1,-1.386041641E-1
2.191433787E2,4.640311003E-2,2.856183052E-2,-3.070735931E-2
2.196433787E2,-2.104926109E-2,6.488180161E-2,-4.412937164E-2
2.201433787E2,1.463860273E-2,2.424099445E-1,-4.603099823E-2
2.206433787E2,-6.494683027E-2,-1.935539246E-1,4.581451416E-2
2.211433787E2,7.961452007E-3,2.062628269E-1,-8.642482758E-2
2.216433787E2,1.926215291E-1,8.590130806E-1,-6.123743057E-1
2.221433787E2,1.233863533E-1,-4.644534588E-1,4.888038635E-1
2.226433787E2,1.170837879E-2,3.137197495E-1,-6.586170197E-1
2.231433787E2,1.851325333E-1,8.537030220E-2,3.667640686E-2
2.236433787E2,1.117244959E-1,1.879217625E-1,-6.838293076E-1
2.241433787E2,2.111217976E-1,-2.031078339E-1,8.015499115E-1
2.246433787E2,3.818058968E-2,-3.071887493E-1,1.241695404E0
2.251433787E2,1.009419560E-1,-2.068665028E-1,-9.819908142E-1
2.256433787E2,-7.273879647E-2,-3.291740417E-1,-8.980970383E-1
2.261433787E2,1.514568031E-1,-2.818865776E-1,4.540929794E-1
2.266433787E2,1.018299758E-1,1.021409035E-2,2.155876160E-1
2.271433787E2,-5.703499913E-2,-1.647157669E-1,-1.484584808E-1
2.276433787E2,6.394824386E-2,-1.299166679E-1,-9.570217133E-2
2.281433787E2,1.701191068E-2,5.338430405E-3,1.309318542E-1
2.286433787E2,6.699505448E-2,1.887106895E-2,-1.473417282E-1
2.291433787E2,7.638794184E-2,-2.403426170E-2,1.795864105E-2
2.296433787E2,-8.358359337E-4,-2.424311638E-2,-6.812381744E-2
2.301433787E2,-2.669945359E-2,-1.277136803E-2,9.819316864E-2
2.306433787E2,2.402776480E-2,3.175759315E-2,-3.066062927E-3
2.311433787E2,-4.691055417E-2,-6.283998489E-3,-5.158138275E-2
2.316433787E2,-2.372035384E-2,4.801535606E-2,9.114265442E-3
2.321433787E2,-4.953536391E-2,-3.035855293E-2,-6.577873230E-2
2.326433787E2,1.601221561E-1,-8.445262909E-3,-6.809234619E-4
2.331433787E2,4.954236746E-2,-1.260988712E-1,1.028165817E-1
2.336433787E2,-7.987299562E-2,-4.587459564E-2,1.225090027E-2
2.341433787E2,-1.055276245E-1,-2.094879150E-1,2.178182602E-1
2.346433787E2,-1.590800285E-2,-6.845855713E-2,8.972072601E-2
2.351433787E2,-2.901294827E-2,-2.753779888E-1,9.443473816E-2
2.356433787E2,-1.270085424E-1,-2.692520618E-2,-1.171798706E-1
2.361433787E2,-5.856552720E-2,-2.192379236E-1,-2.821254730E-2
2.366433787E2,2.033385634E-2,7.592988014E-2,1.758337021E-1
2.371433787E2,3.274479508E-2,9.728550911E-3,-9.542942047E-2
2.376433787E2,-1.905739307E-3,2.225065231E-2,9.088897705E-2
2.381433787E2,2.046901286E-1,5.646717548E-2,7.005977631E-2
2.386433787E2,-1.010237038E-1,5.415332317E-2,-1.592950821E-1
2.391433787E2,2.579492927E-1,-7.039618492E-2,-5.146398544E-1
2.396433787E2,1.924908757E-1,7.549202442E-2,1.467924118E-1
2.401433787E2,2.769845724E-2,-9.667420387E-2,-1.439180374E-1
2.406433787E2,1.822304726E-2,2.314460278E-2,-7.050037384E-2
2.411433787E2,-2.052730322E-2,7.837653160E-2,-1.720380783E-1
2.416433787E2,-4.217213392E-2,-1.216578484E-2,2.601909637E-2
2.421433787E2,-4.483699799E-2,5.244052410E-2,1.921997070E-1
2.426433787E2,5.436056852E-2,-1.281881332E-2,5.136489868E-2
2.431433787E2,-4.273322225E-2,-3.336405754E-2,-1.853179932E-2
2.436433787E2,8.645468950E-2,9.438991547E-4,-1.545076370E-1
2.441433787E2,-3.491312265E-3,-1.804538965E-1,-7.506561279E-2
2.446433787E2,4.069522023E-2,1.537406445E-1,1.519222260E-1
2.451433787E2,-5.328875780E-2,5.668389797E-2,-6.599235535E-2
2.456433787E2,4.212886095E-3,2.362072468E-2,1.128673553E-2
2.461433787E2,5.426147580E-2,3.732287884E-2,3.555679321E-2
2.466433787E2,9.606242180E-3,1.652276516E-2,4.684352875E-2
2.471433787E2,2.816027403E-2,4.198479652E-2,-7.301616669E-2
2.476433787E2,-5.817669630E-2,1.368355751E-2,-6.600093842E-2
2.481433787E2,-1.330828667E-2,1.795959473E-2,1.792812347E-2
2.486433787E2,-2.900093794E-2,2.681175470E-1,-7.664871216E-2
2.491433787E2,1.097351909E-1,1.594147682E-1,-1.820755005E-2
2.496433787E2,-4.933798313E-2,8.391022682E-2,3.706169128E-2
2.501433787E2,-5.600035191E-3,4.915761948E-2,-4.600811005E-2
2.506433787E2,9.433966875E-2,2.962756157E-2,-8.662033081E-2
2.511433787E2,1.485387683E-1,-1.557271481E-1,1.822662354E-1
2.516433787E2,-8.907651901E-2,1.104605198E-1,-1.252603531E-1
2.521433787E2,7.143622637E-2,1.413083076E-1,1.786231995E-3
2.526433787E2,-4.811006784E-2,-2.527165413E-2,-1.286306381E-1
2.531433787E2,9.370326996E-2,1.164886951E-1,1.769351959E-1
2.536433787E2,2.633929253E-3,-6.027793884E-2,3.479290009E-2
2.541433787E2,6.661844254E-2,-1.395909786E-1,-6.881427765E-2
2.546433787E2,-1.804107428E-2,-2.852293253E-1,2.310657501E-2
2.551433787E2,6.399786472E-2,-1.690959930E-1,8.401870728E-4
2.556433787E2,9.341692924E-2,3.316223621E-2,2.182102203E-2
2.561433787E2,9.254527092E-2,8.051037788E-2,-7.848644257E-2
2.566433787E2,1.121696234E-1,1.221854687E-1,1.012630463E-1
2.571433787E2,-1.502752304E-2,-3.490650654E-2,-8.713912964E-2
2.576433787E2,-5.231893063E-2,-5.681490898E-2,3.619384766E-2
2.581433787E2,-2.691626549E-3,-2.096903324E-2,-4.384040833E-2
2.586433787E2,-1.166638136E-1,3.027200699E-2,3.330421448E-2
2.591433787E2,-2.745640874E-1,4.019808769E-2,-4.818534851E-2
2.596433787E2,-2.643793821E-1,3.677678108E-2,2.239589691E-1
2.601433787E2,1.904729009E-2,-4.655432701E-2,-2.497777939E-1
2.606433787E2,-1.684034169E-1,-8.943462372E-2,1.630859375E-1
2.611433787E2,2.140617967E-1,-3.117609024E-2,-1.506023407E-1
2.616433787E2,1.634720564E-1,2.276396751E-2,-5.476732254E-1
2.621433787E2,-2.316200137E-1,-8.837962151E-2,1.430559158E-1
2.626433787E2,-2.377964854E-1,-8.839368820E-3,-9.993267059E-2
2.631433787E2,6.080937386E-2,-1.266074181E-2,-8.309364319E-3
2.636433787E2,4.450440407E-2,4.780077934E-2,-3.918361664E-2
2.641433787E2,4.637181759E-3,-6.441593170E-3,-7.700443268E-2
2.646433787E2,1.017668843E-1,-1.825356483E-2,-2.437896729E-1
2.651433787E2,-8.360868692E-2,9.268164635E-2,2.538137436E-1
2.656433787E2,2.223614454E-1,2.909231186E-2,-1.786241531E-1
2.661433787E2,-6.967077255E-1,1.232392788E-1,5.897159576E-1
2.666433787E2,-1.501487792E-1,-5.809283257E-2,-1.298809052E-1
2.671433787E2,-1.024222001E-1,-5.732059479E-3,7.343387604E-2
2.676433787E2,-1.833323240E-1,6.328129768E-2,2.505483627E-1
2.681433787E2,3.704806045E-2,-7.650327682E-2,-4.062480927E-1
2.686433787E2,4.574463069E-1,-6.203126907E-2,-8.457469940E-2
2.691433787E2,2.861360610E-1,1.135065556E-1,-2.569770813E-2
2.696433787E2,1.334863901E-1,-1.555668116E-1,-1.733369827E-1
2.701433787E2,-2.581977844E-2,1.764173508E-1,-5.577659607E-2
2.706433787E2,1.237860918E-1,-2.292275429E-2,-4.293346405E-2
2.711433787E2,6.502568722E-2,2.628636360E-2,2.896690369E-2
2.716433787E2,1.236389279E-1,6.534075737E-2,-1.070117950E-2
2.721433787E2,9.014546871E-3,-2.859187126E-2,-6.505680084E-2
2.726433787E2,-1.854796410E-1,7.351446152E-2,1.480531693E-1
2.731433787E2,9.748244286E-2,-1.999258995E-2,-1.214513779E-1
2.736433787E2,5.120539665E-2,-1.506543159E-2,1.418809891E-1
2.741433787E2,9.625673294E-2,5.382561684E-2,-1.259946823E-1
2.746433787E2,-5.972856283E-2,-4.162335396E-2,1.792974472E-1
2.751433787E2,-1.294898987E-1,2.586841583E-2,9.897899628E-2
2.756433787E2,2.815628052E-2,-8.280038834E-3,-9.087753296E-2
2.761433787E2,-8.294796944E-2,2.173852921E-2,7.422447205E-2
2.766433787E2,2.081024647E-2,2.109313011E-2,-1.177797318E-1
2.771433787E2,2.438604832E-3,-1.420235634E-2,9.096050262E-2
2.776433787E2,1.127521992E-1,4.632711411E-3,-9.391784668E-3
2.781433787E2,4.579102993E-2,-2.417194843E-2,-1.102800369E-1
2.786433787E2,-1.289671659E-1,-7.117402554E-2,-6.196117401E-2
2.791433787E2,-3.412026167E-2,-2.556765079E-2,-8.431720734E-2
2.796433787E2,-2.984589338E-2,-2.680754662E-2,2.140712738E-1
2.801433787E2,-4.209220409E-3,-3.974878788E-2,-1.780414581E-2
2.806433787E2,5.418038368E-2,1.760399342E-2,4.323768616E-2
2.811433787E2,-3.254246712E-2,-1.184427738E-2,2.981567383E-2
2.816433787E2,1.361245513E-1,-1.487731934E-2,-4.963684082E-2
2.821433787E2,-8.603852987E-2,-5.172252655E-3,1.872119904E-1
2.826433787E2,1.194189191E-1,1.486575603E-2,-3.154191971E-1
2.831433787E2,-1.326089501E-1,-5.371022224E-2,1.651010513E-1
2.836433787E2,-4.997414351E-2,3.010201454E-2,3.014945984E-2
2.841433787E2,-2.786321938E-1,-4.600191116E-2,1.996994019E-2
2.846433787E2,-2.632520795E-1,2.732527256E-2,1.514348984E-1
2.851433787E2,1.582823396E-1,-2.984929085E-2,-1.375036240E-1
2.856433787E2,-8.661776781E-2,3.879201412E-2,1.409673691E-1
2.861433787E2,1.993321776E-1,1.744008064E-2,-4.479408264E-2
2.866433787E2,1.067221165E-2,-2.693581581E-2,1.037788391E-2
2.871433787E2,-1.835030317E-2,3.959953785E-2,-9.822940826E-2
2.876433787E2,9.781837463E-3,-5.065691471E-2,1.940727234E-2
2.881433787E2,-1.578951478E-1,1.837742329E-2,6.865310669E-2
2.886433787E2,1.046878695E-1,7.301568985E-4,-1.248493195E-1
2.891433787E2,-6.840044260E-2,-4.554629326E-3,1.544876099E-1
2.896433787E2,-2.182519436E-2,2.552354336E-2,2.622890472E-2
2.901433787E2,3.672444820E-2,-3.380548954E-2,-1.134586334E-2
2.906433787E2,-4.154026508E-3,2.394104004E-2,7.126235962E-2
2.911433787E2,-6.526881456E-2,-3.404676914E-2,-1.193904877E-1
2.916433787E2,-3.139895201E-2,-2.472770214E-2,1.274785995E-1
2.921433787E2,3.338003159E-2,-2.454471588E-2,-6.942653656E-2
2.926433787E2,8.749520779E-2,1.287436485E-2,-7.362079620E-2
2.931433787E2,4.076391459E-2,4.037511349E-2,-5.766105652E-2
2.936433787E2,1.021459699E-1,5.075407028E-2,-1.455497742E-2
2.941433787E2,1.866632700E-2,4.858255386E-3,-3.415393829E-2
2.946433787E2,-7.637113333E-2,-7.999539375E-3,-2.103805542E-2
2.951433787E2,3.006678820E-2,2.147197723E-3,-3.074550629E-2
2.956433787E2,-8.013361692E-2,-3.518033028E-2,1.344900131E-1
2.961433787E2,-1.537435651E-1,1.486552954E-1,-1.284685135E-1
2.966433787E2,2.362504005E-1,-1.027997732E-1,-7.370462418E-1
2.971433787E2,5.406713486E-2,2.023744583E-1,8.347330093E-1
2.976433787E2,1.842398643E-1,-1.521092653E-1,-2.958097458E-1
2.981433787E2,5.693539381E-1,-6.029832363E-2,-3.109827042E-1
2.986433787E2,-1.822726130E-1,-1.281359196E-1,6.508350372E-2
2.991433787E2,-4.615616798E-2,9.002566338E-3,7.220268250E-3
2.996433787E2,-1.743667722E-1,-9.480476379E-3,2.163496017E-1
3.001433787E2,-7.748746872E-2,-5.786061287E-3,2.628421783E-2
3.006433787E2,1.758870482E-1,-1.545298100E-2,-2.878761292E-2
3.011433787E2,1.708800793E-1,-1.376342773E-2,1.425237656E-1
3.016433787E2,-5.127674341E-2,-1.170659065E-2,-1.722621918E-1
3.021433787E2,-7.964271307E-2,3.571021557E-2,-1.056299210E-1
3.026433787E2,-3.234666586E-2,-8.916497231E-3,1.823644638E-1
3.031433787E2,-1.713519096E-1,4.089212418E-2,1.215524673E-1
3.036433787E2,9.102863073E-2,-1.213848591E-2,-1.163930893E-1
3.041433787E2,9.179949760E-3,1.972258091E-2,1.653261185E-1
3.046433787E2,8.279925585E-2,-2.402007580E-1,-7.373809814E-3
3.051433787E2,-2.292233706E-2,-9.639036655E-2,-9.052276611E-3
3.056433787E2,-8.602362871E-2,-2.931702137E-2,-1.069364548E-1
3.061433787E2,2.119892836E-2,-3.746592999E-2,-1.461696625E-2
3.066433787E2,1.960027218E-2,-1.431560516E-2,3.263854980E-2
3.071433787E2,5.666053295E-2,-1.775467396E-2,-1.461315155E-2
3.076433787E2,2.121317387E-2,5.483865738E-3,-1.262693405E-1
3.081433787E2,-2.435564995E-2,8.714199066E-4,8.060646057E-2
3.086433787E2,-2.110898495E-3,6.152236462E-2,6.424808502E-2
3.091433787E2,1.469779015E-2,-6.783330441E-2,-5.642509460E-2
3.096433787E2,1.944285631E-2,6.977200508E-2,1.686000824E-1
3.101433787E2,-6.410342455E-2,-8.206582069E-2,-9.053039551E-2
3.106433787E2,-2.193308920E-1,2.270758152E-2,7.532787323E-2
3.111433787E2,1.604545116E-1,-2.909171581E-2,-1.553564072E-1
3.116433787E2,1.775494218E-1,6.008946896E-2,-3.640556335E-2
3.121433787E2,6.033396721E-2,-2.073884010E-3,-4.615688324E-2
3.126433787E2,1.220195293E-1,6.974637508E-2,1.073083878E-1
3.131433787E2,-1.483377218E-1,2.947127819E-2,-9.579181671E-2
3.136433787E2,-3.467184305E-2,-5.128526688E-2,1.442623138E-2
3.141433787E2,-2.941429615E-2,9.843599796E-2,1.166534424E-1
3.146433787E2,8.200252056E-2,-1.159727573E-2,-9.701061249E-2
3.151433787E2,-1.015853882E-1,-5.975604057E-3,1.546392441E-1
3.156433787E2,-8.171677589E-2,2.519190311E-2,-6.228542328E-2
3.161433787E2,3.141522408E-2,-1.309657097E-2,-5.533123016E-2
3.166433787E2,-2.745985985E-3,-7.259249687E-3,2.240734100E-1
3.171433787E2,-1.885235310E-2,1.982355118E-2,-2.364702225E-1
3.176433787E2,-1.217473149E-1,-2.664041519E-2,-1.340169907E-1
3.181433787E2,-6.083548069E-2,2.830624580E-3,1.227254868E-1
3.186433787E2,-3.634798527E-2,-7.518410683E-3,1.119146347E-1
3.191433787E2,1.232474446E-1,1.246857643E-2,-7.166099548E-2
3.196433787E2,5.320250988E-3,-6.492745876E-2,-1.593303680E-2
3.201433787E2,-5.448764563E-2,-4.859328270E-3,-1.333236694E-3
3.206433787E2,4.356622696E-2,-6.348335743E-2,-4.855632782E-2
3.211433787E2,-6.817889214E-2,3.741347790E-2,3.944396973E-3
3.216433787E2,-4.253226519E-2,-5.066812038E-2,-3.531837463E-2
3.221433787E2,-2.119183540E-3,-2.270174026E-2,1.693849564E-1
3.226433787E2,5.860197544E-2,2.133108377E-1,-1.972646713E-1
3.231433787E2,5.334454775E-2,5.062305927E-2,-7.178840637E-1
3.236433787E2,2.537733316E-2,9.134471416E-2,5.868148804E-2
3.241433787E2,8.342641592E-2,-7.789254189E-3,-1.176977158E-1
3.246433787E2,2.978968620E-1,1.825125217E-1,1.138181686E-1
3.251433787E2,-3.110134900E-1,-6.545865536E-2,-1.437187195E-3
3.256433787E2,1.008900404E-1,1.306009293E-2,3.853607178E-2
3.261433787E2,2.941286564E-2,-9.666085243E-3,-2.594947815E-3
3.266433787E2,-1.273377538E-1,-1.910293102E-2,-5.229854584E-2
3.271433787E2,1.321418285E-1,-2.365970612E-2,2.716064453E-3
3.276433787E2,-3.456693888E-2,7.610917091E-3,-8.427333832E-2
3.281433787E2,1.311405301E-1,-1.116278172E-1,2.415409088E-1
3.286433787E2,-7.419413328E-2,2.951455116E-2,1.798954010E-1
3.291433787E2,1.658128500E-1,-2.026582956E-1,-1.709489822E-1
3.296433787E2,-2.446171939E-1,-2.056688070E-1,-2.950286865E-2
3.301433787E2,1.178999543E-1,-1.631975174E-4,6.743907928E-2
3.306433787E2,8.285200596E-2,-1.015566587E-1,1.295585632E-1
3.311433787E2,1.370460987E-1,6.748020649E-2,-3.428869247E-1
3.316433787E2,3.030079603E-2,-1.465568542E-1,1.298379898E-1
3.321433787E2,1.596987247E-3,-2.182626724E-2,1.822252274E-1
3.326433787E2,1.924651861E-2,5.288517475E-2,4.223918915E-2
3.331433787E2,1.074558496E-2,1.172440052E-1,1.008491516E-1
3.336433787E2,4.020881653E-2,1.318491697E-1,1.954183578E-1
3.341433787E2,8.517265320E-2,1.670788527E-1,-1.314183235E0
3.346433787E2,-2.669469714E-1,2.025437355E-1,4.113559723E-1
3.351433787E2,2.963900566E-2,2.725104094E-1,-1.014133453E0
3.356433787E2,-3.874361515E-2,1.954878569E-1,3.324842453E-1
3.361433787E2,-1.794291139E-1,3.724435568E-1,-4.924516678E-1
3.366433787E2,1.744327545E-1,1.949342489E-1,-5.553350449E-1
3.371433787E2,3.293204308E-2,7.317650318E-2,-1.897144318E-2
3.376433787E2,9.285092354E-3,8.426988125E-2,-1.452836990E-1
3.381433787E2,-5.910718441E-2,4.733586311E-2,3.713035583E-2
3.386433787E2,-2.550664842E-1,4.264903069E-2,1.815071106E-1
3.391433787E2,-4.796969891E-2,1.434397697E-2,-2.233047485E-1
3.396433787E2,1.658726335E-1,-9.839189053E-2,-2.246751785E-1
3.401433787E2,-2.276822031E-1,3.684186935E-2,2.437105179E-1
3.406433787E2,1.924368143E-1,5.213212967E-2,-3.058576584E-1
3.411433787E2,-1.041787863E-2,-3.284394741E-2,2.520179749E-1
3.416433787E2,1.588392854E-1,-2.433550358E-2,-6.534576416E-2
3.421433787E2,1.276320219E-2,1.216030121E-2,-2.339792252E-1
3.426433787E2,8.995217085E-2,-7.062613964E-2,2.723045349E-1
3.431433787E2,-2.214718461E-1,1.626234055E-1,1.982584000E-1
3.436433787E2,3.799695373E-1,-1.614794731E-1,-4.227228165E-1
3.441433787E2,-9.067291021E-2,-1.792049408E-2,8.701419830E-2
3.446433787E2,1.663943529E-1,1.406311989E-3,-2.939538956E-1
3.451433787E2,1.708745956E-2,-3.994107246E-2,1.243190765E-1
3.456433787E2,-2.900904417E-2,-5.901885033E-2,-1.555309296E-1
3.461433787E2,1.294672489E-3,-9.054899216E-2,2.234468460E-1
3.466433787E2,4.572349787E-2,-4.179918766E-2,-9.906101227E-2
3.471433787E2,4.721045494E-3,-3.427970409E-2,-1.331243515E-1
3.476433787E2,-8.576875925E-2,-1.811528206E-2,-4.078865051E-3
3.481433787E2,-7.064366341E-2,3.274309635E-2,7.856464386E-2
3.486433787E2,4.997235537E-2,-3.762924671E-2,-2.870368958E-2
3.491433787E2,8.653670549E-2,5.485463142E-2,1.376113892E-1
3.496433787E2,1.013243198E-1,-2.949929237E-2,-1.938695908E-1
3.501433787E2,-1.205140352E-1,-1.261353493E-2,1.784944534E-1
3.506433787E2,-7.215118408E-2,1.393548250E-1,-2.162370682E-1
3.511433787E2,1.921212673E-2,1.083385944E-1,-1.412961006E0
3.516433787E2,1.199889183E-2,2.199758291E-1,9.255495071E-1
3.521433787E2,8.735668659E-2,7.886385918E-2,-1.326236725E-1
3.526433787E2,5.406081676E-2,-6.290233135E-2,-4.211711884E-2
3.531433787E2,-1.473834515E-1,-5.596745014E-2,1.474752426E-1
3.536433787E2,1.524307728E-1,1.439249516E-2,-1.085090637E-1
3.541433787E2,-1.044400930E-1,-5.338418484E-2,2.569007874E-2
3.546433787E2,-5.233353376E-2,-4.118394852E-2,-1.320838928E-2
3.551433787E2,-4.846036434E-3,1.344084740E-3,8.418273926E-2
3.556433787E2,-1.321225762E-1,-3.342199326E-2,1.960086823E-2
3.561433787E2,3.112226725E-2,3.327858448E-2,8.157825470E-2
3.566433787E2,2.319300175E-2,1.207327843E-2,-2.970695496E-3
3.571433787E2,-1.349711418E-2,1.277458668E-2,-5.808734894E-2
3.576433787E2,7.427906990E-2,4.779207706E-2,-1.982116699E-2
3.581433787E2,1.045721769E-2,9.786844254E-3,-2.554607391E-2
3.586433787E2,-5.085545778E-2,1.610541344E-2,-5.018234253E-3
3.591433787E2,5.528551340E-2,4.305362701E-2,4.663658142E-2
3.596433787E2,1.882165670E-2,-2.354001999E-2,-1.266927719E-1
3.601433787E2,-9.264767170E-2,3.632545471E-2,3.949642181E-2
3.606433787E2,-3.771173954E-2,-1.093972921E-1,-5.805969238E-3
3.611433787E2,9.856820107E-4,-2.759504318E-2,1.535406113E-1
3.616433787E2,-7.927417755E-5,4.403138161E-2,4.516792297E-2
3.621433787E2,9.937620163E-2,-4.914295673E-2,-8.430385590E-2
3.626433787E2,-8.070987463E-2,4.457604885E-2,1.927680969E-1
3.631433787E2,8.407533169E-3,-2.867102623E-3,6.803512573E-3
3.636433787E2,-4.181951284E-2,3.305709362E-2,8.791255951E-2
3.641433787E2,-1.134032011E-2,3.878831863E-3,-1.046276093E-2
3.646433787E2,-3.448194265E-2,-7.694840431E-3,-2.818012238E-2
3.651433787E2,1.640510559E-2,-3.338181973E-2,-6.454658508E-2
3.656433787E2,-2.804744244E-2,-3.202176094E-2,1.686906815E-1
3.661433787E2,6.776493788E-2,-5.251598358E-2,-1.540670395E-1
3.666433787E2,-6.579971313E-2,-1.487135887E-3,6.659030914E-2
3.671433787E2,-1.369301081E-1,5.467295647E-3,-1.001834869E-2
3.676433787E2,7.037985325E-2,9.726607800E-2,5.591297150E-2
3.681433787E2,2.584940195E-2,-2.608549595E-2,1.285514832E-1
3.686433787E2,-4.216760397E-2,-3.383517265E-3,-8.631801605E-2
3.691433787E2,3.718668222E-2,-5.860495567E-2,3.027820587E-2
3.696433787E2,4.962426424E-2,-1.936554909E-3,3.665447235E-2
3.701433787E2,-1.894503832E-2,-6.996083260E-2,-1.074314117E-1
3.706433787E2,-1.101171374E-1,8.513474464E-2,1.050024033E-1
3.711433787E2,3.908836842E-2,2.869760990E-2,-9.690856934E-2
3.716433787E2,-3.453665972E-2,7.403814793E-2,8.876514435E-2
3.721433787E2,6.414622068E-2,1.206314564E-2,-1.003379822E-1
3.726433787E2,-5.177915096E-2,-3.649914265E-2,-3.361797333E-2
3.731433787E2,-5.263108015E-2,-2.754080296E-2,-1.151065826E-1
3.736433787E2,9.498405457E-2,-4.108071327E-3,1.671991348E-1
3.741433787E2,-1.446475387E-1,1.014697552E-2,9.239864349E-2
3.746433787E2,9.347999096E-2,4.940032959E-3,-1.629629135E-1
3.751433787E2,1.113420725E-1,3.615283966E-2,2.910776138E-1
3.756433787E2,1.846325397E-2,-3.795862198E-2,2.235612869E-1
3.761433787E2,-8.934140205E-3,5.387306213E-2,-1.138715744E-1
3.766433787E2,-2.027446032E-2,-3.597974777E-3,-1.477231979E-1
3.771433787E2,2.652388811E-2,-5.007803440E-2,1.606626511E-1
3.776433787E2,2.939546108E-2,1.200904846E-1,7.015705109E-2
3.781433787E2,9.627604485E-2,-9.012007713E-2,9.782123566E-2
3.786433787E2,1.027983427E-2,-3.621840477E-2,-2.901859283E-1
3.791433787E2,-6.600499153E-2,7.317900658E-3,3.165016174E-1
3.796433787E2,-5.855351686E-2,1.483649015E-1,-1.243638992E-1
3.801433787E2,2.176988423E-1,-1.949260235E-1,-2.477188110E-1
3.806433787E2,-3.130033016E-1,1.296858788E-1,5.059213638E-1
3.811433787E2,3.062046170E-1,-1.697659492E-2,-2.827186584E-1
3.816433787E2,-7.464474440E-2,-6.432008743E-2,-1.670360565E-2
3.821433787E2,6.384468079E-2,-1.576375961E-2,-2.136707306E-2
3.826433787E2,-4.165863991E-2,8.699774742E-3,3.136339188E-1
3.831433787E2,1.757462621E-1,2.084112167E-2,-1.810045242E-1
3.836433787E2,3.738123178E-2,-1.322638988E-2,-2.315425873E-2
3.841433787E2,-4.596126080E-2,4.798710346E-2,-3.082180023E-2
3.846433787E2,8.312594891E-2,-2.140796185E-2,-1.804494858E-1
3.851433787E2,-1.396159530E-1,-3.477346897E-2,2.345018387E-1
3.856433787E2,-1.599413157E-2,4.741120338E-2,-1.510124207E-1
3.861433787E2,-2.619570494E-2,1.676440239E-3,3.628034592E-1
3.866433787E2,1.217931509E-2,2.195799351E-2,-8.885478973E-2
3.871433787E2,4.306972027E-2,5.321800709E-2,-1.717147827E-1
3.876433787E2,-1.296542883E-1,-1.253385544E-1,1.891412735E-1
3.881433787E2,2.861962914E-1,-6.577444077E-2,-3.657093048E-1
3.886433787E2,-1.008580327E-1,-1.053667068E-2,4.142665863E-2
3.891433787E2,3.373730183E-2,1.428163052E-2,-1.541891098E-1
3.896433787E2,1.332744956E-1,1.586675644E-4,3.861427307E-3
3.901433787E2,-6.159693003E-2,2.402901649E-2,2.324361801E-1
3.906433787E2,1.418286562E-1,-3.647053242E-2,-3.069477081E-1
3.911433787E2,1.045319438E-1,-4.834175110E-3,1.405286789E-1
3.916433787E2,-1.299962401E-1,1.455783844E-2,-1.766614914E-1
3.921433787E2,1.170445681E-1,-2.259957790E-2,-2.889537811E-1
3.926433787E2,4.355967045E-3,2.467322350E-2,1.965341568E-1
3.931433787E2,-6.166964769E-2,-2.074778080E-2,-7.677936554E-2
3.936433787E2,-8.578479290E-3,5.023002625E-2,2.466011047E-2
3.941433787E2,3.621888161E-2,4.606127739E-3,1.919937134E-2
3.946433787E2,-5.925893784E-3,9.749174118E-3,3.128051758E-2
3.951433787E2,6.309884787E-2,-1.242136955E-2,-2.106866837E-1
3.956433787E2,1.845616102E-1,1.143801212E-2,4.718303680E-2
3.961433787E2,1.419845819E-1,-9.914481640E-2,6.463527679E-2
3.966433787E2,5.708456039E-2,1.861727238E-2,-1.600694656E-1
3.971433787E2,3.533184528E-2,-9.335637093E-3,6.258487701E-2
3.976433787E2,6.857943535E-2,2.479207516E-2,2.850437164E-2
3.981433787E2,1.486971378E-1,1.429438591E-3,-4.321956635E-2
3.986433787E2,2.430865765E-1,-2.430987358E-2,-2.763652802E-2
3.991433787E2,8.329796791E-2,-7.047069073E-2,2.548980713E-2
3.996433787E2,9.433317184E-2,-3.535914421E-2,-1.546955109E-2
4.001433787E2,1.340935230E-1,-3.744852543E-2,-1.011695862E-1
4.006433787E2,-4.291391373E-2,7.043123245E-3,6.397628784E-2
4.011433787E2,-2.071959972E-1,-2.180159092E-2,4.436779022E-2
4.016433787E2,-3.571200371E-2,-1.440179348E-2,-4.281616211E-2
4.021433787E2,-1.910874844E-1,-7.789504528E-2,1.093082428E-1
4.026433787E2,-2.977347374E-2,1.672601700E-2,-1.320486069E-1
4.031433787E2,-1.807738543E-1,-7.180368900E-2,7.310485840E-2
4.036433787E2,-5.838680267E-2,6.967926025E-2,9.272480011E-2
4.041433787E2,-3.465982080E-1,-9.621298313E-2,-8.532619476E-2
4.046433787E2,-3.346279263E-1,3.511583805E-2,9.077358246E-2
4.051433787E2,1.306869984E-1,-1.518011093E-2,-9.352016449E-2
4.056433787E2,1.192071438E-1,-6.244182587E-3,1.527853012E-1
4.061433787E2,-9.015643597E-2,-1.220500469E-2,-2.878952026E-2
4.066433787E2,8.056092262E-2,-6.984829903E-3,-1.542730331E-1
4.071433787E2,-1.191468239E-1,-6.490945816E-4,4.894924164E-2
4.076433787E2,-1.457957029E-1,-2.522289753E-2,-1.128959656E-2
4.081433787E2,-4.532885551E-2,3.633987904E-2,5.548095703E-2
4.086433787E2,5.879044533E-3,-5.074977875E-2,1.555347443E-2
4.091433787E2,1.796635389E-1,1.134705544E-2,7.742595673E-2
4.096433787E2,2.657949924E-2,3.386938572E-2,2.577114105E-2
4.101433787E2,-1.384916902E-1,-4.434216022E-2,-2.487659454E-2
4.106433787E2,-2.355320454E-1,3.866600990E-2,-1.719684601E-1
4.111433787E2,-5.265176296E-3,4.297614098E-3,1.447162628E-1
4.116433787E2,6.578111649E-2,1.079356670E-2,-1.982498169E-2
4.121433787E2,2.980470657E-2,5.848824978E-2,1.101303101E-1
4.126433787E2,-3.443503380E-2,5.584824085E-2,1.653213501E-1
4.131433787E2,6.889522076E-2,2.358396053E-1,-1.187928200E0
4.136433787E2,1.367398500E-1,-1.590267420E-1,-7.708377838E-1
4.141433787E2,-5.875524282E-1,2.926938534E-1,7.994346619E-1
4.146433787E2,1.942532063E-1,-1.269942522E-1,-4.483594894E-1
4.151433787E2,1.779706478E-1,6.840229034E-3,6.495771408E-1
4.156433787E2,1.163458824E-2,-3.473317623E-2,-3.307628632E-2
4.161433787E2,1.446906328E-1,-1.618814468E-2,5.027866364E-2
4.166433787E2,-1.287102699E-2,-5.406141281E-3,1.527452469E-1
4.171433787E2,6.647050381E-2,1.210892200E-2,-1.307773590E-2
4.176433787E2,-3.890597820E-2,-3.864550591E-2,-8.228969574E-2
4.181433787E2,-1.303172112E-2,-8.752954006E-2,1.649169922E-1
4.186433787E2,4.775524139E-3,-1.142002344E-1,-2.271728516E-1
4.191433787E2,-1.596602798E-1,-3.231966496E-2,3.583908081E-2
4.196433787E2,9.841954708E-2,-3.004062176E-2,-9.235191345E-2
4.201433787E2,-4.528689384E-2,-2.217161655E-2,-2.607822418E-2
4.206433787E2,4.512155056E-2,2.884507179E-3,-1.739244461E-1
4.211433787E2,-1.846492290E-2,-2.208471298E-2,-5.710601807E-2
4.216433787E2,-6.415110826E-2,1.697897911E-3,4.085254669E-2
4.221433787E2,-9.692513943E-2,-1.158893108E-2,2.805137634E-2
4.226433787E2,3.578788042E-2,2.366542816E-3,-9.076118469E-3
4.231433787E2,3.034174442E-2,1.504492760E-2,-8.206272125E-2
4.236433787E2,8.330750465E-2,-1.183927059E-2,1.838874817E-2
4.241433787E2,-3.978520632E-2,1.970446110E-2,1.088399887E-1
4.246433787E2,-7.588237524E-2,1.987695694E-2,-1.371011734E-1
4.251433787E2,-2.031803131E-2,-4.004371166E-2,3.285598755E-2
4.256433787E2,3.341686726E-2,2.268373966E-2,9.665012360E-2
4.261433787E2,-2.752423286E-3,-7.447445393E-2,3.610134125E-2
4.266433787E2,-1.117591262E-1,-1.255786419E-2,-4.167270660E-2
4.271433787E2,-1.205136180E-1,-3.414392471E-2,1.285352707E-1
4.276433787E2,-1.208131909E-1,-1.871585846E-3,9.385204315E-2
4.281433787E2,-7.049101591E-2,-9.140610695E-3,-2.805156708E-1
4.286433787E2,-1.060650349E-1,3.021121025E-2,-6.322765350E-2
4.291433787E2,-1.826696396E-1,-1.596646309E-1,1.799592972E-1
4.296433787E2,-1.932475567E-1,8.657026291E-2,6.170263290E-1
4.301433787E2,3.431581259E-1,-1.654446125E-1,-1.569175720E-1
4.306433787E2,5.910950899E-2,-2.972638607E-2,1.370725632E-1
4.311433787E2,-1.245862246E-2,-9.094119072E-2,-1.074495316E-1
4.316433787E2,-8.181700110E-2,1.321673393E-2,1.683416367E-1
4.321433787E2,6.410938501E-2,-7.552921772E-2,-1.946582794E-1
4.326433787E2,6.149768829E-3,-8.286559582E-2,1.343240738E-1
4.331433787E2,1.794764400E-1,-6.024384499E-2,-1.112470627E-1
4.336433787E2,1.966224313E-1,1.512588263E-1,-3.343296051E-2
4.341433787E2,-2.673345208E-1,-1.006606817E-1,2.085208893E-2
4.346433787E2,1.006889343E-1,-7.382619381E-2,-2.468204498E-1
4.351433787E2,-1.030037105E-1,5.773782730E-3,-7.274627686E-3
4.356433787E2,1.153174639E-1,-6.282341480E-2,3.427314758E-2
4.361433787E2,2.375132442E-1,-1.495110989E-2,-9.997463226E-2
4.366433787E2,9.888017178E-2,-2.313852310E-2,2.259778976E-1
4.371433787E2,7.502257824E-2,-5.014240742E-2,3.003215790E-2
4.376433787E2,-1.024779081E-1,-4.011642933E-2,-1.165933609E-1
4.381433787E2,9.394097328E-2,-1.272864342E-1,5.166053772E-3
4.386433787E2,-5.730175972E-2,4.237151146E-2,8.002376556E-2
4.391433787E2,1.159554720E-1,-2.507590055E-1,-9.195098877E-1
4.396433787E2,3.915790319E-1,7.982206345E-2,4.535655975E-1
4.401433787E2,1.855909824E-2,-4.366374016E-2,-2.420530319E-1
4.406433787E2,1.006467342E-1,9.548914433E-2,1.524667740E-1
4.411433787E2,-1.180422306E-2,-2.227225304E-1,-2.373342514E-1
4.416433787E2,-5.229282379E-2,-2.157874703E-1,1.819810867E-1
4.421433787E2,9.729504585E-3,-1.792916656E-1,-1.095027924E-1
4.426433787E2,-1.331348419E-1,8.897125721E-3,7.108592987E-2
4.431433787E2,-1.592481136E-2,2.616224289E-1,1.000537872E-1
4.436433787E2,8.372175694E-2,3.496962786E-2,-1.177263260E-1
4.441433787E2,-1.435029507E-2,3.603041172E-3,5.189895630E-2
4.446433787E2,4.549777508E-2,4.955250025E-2,-6.248378754E-2
4.451433787E2,-3.808748722E-2,-4.312443733E-2,-4.936885834E-2
4.456433787E2,3.168654442E-2,4.436928034E-2,1.143245697E-1
4.461433787E2,-1.003140807E-1,-4.967814684E-2,-1.152153015E-1
4.466433787E2,1.978766918E-2,4.173934460E-3,-4.681968689E-2
4.471433787E2,4.355275631E-2,2.333313227E-2,4.006862640E-2
4.476433787E2,-6.615638733E-3,5.987322330E-2,-1.243753433E-1
4.481433787E2,1.653230190E-2,8.951807022E-2,1.166057587E-2
4.486433787E2,9.181797504E-2,4.555642605E-2,1.185960770E-1
4.491433787E2,7.168376446E-2,4.631841183E-2,1.588249207E-2
4.496433787E2,-7.851016521E-2,-6.240344048E-2,-5.324840546E-2
4.501433787E2,-6.892633438E-2,-8.636951447E-3,6.665515900E-2
4.506433787E2,-1.080945730E-1,-1.896798611E-2,-2.323818207E-2
4.511433787E2,-1.054822206E-1,-7.748818398E-2,-4.954433441E-2
4.516433787E2,-7.500278950E-2,-7.260024548E-2,-4.515361786E-2
4.521433787E2,6.146347523E-2,2.018404007E-2,7.782649994E-2
4.526433787E2,9.821605682E-2,1.475751400E-2,-1.779613495E-1
4.531433787E2,1.573057175E-1,-8.229374886E-3,5.600833893E-2
4.536433787E2,1.859688759E-1,2.362549305E-2,-8.075809479E-2
4.541433787E2,1.427087784E-1,-4.126608372E-2,6.161594391E-2
4.546433787E2,-1.096143007E0,4.642570019E-2,2.417716980E-1
4.551433787E2,-1.296797752E0,-4.636371136E-2,-2.709770203E-2
4.556433787E2,-1.011841297E0,-1.296505928E-1,7.267150879E-1
4.561433787E2,-1.338805914E0,2.848255634E-2,1.545667648E-1
4.566433787E2,-1.003126740E0,2.231899500E-1,3.250064850E-1
4.571433787E2,-1.665973663E-2,2.774125338E-1,7.804584503E-2
4.576433787E2,4.228003025E-1,6.427469254E-1,-2.407865524E-1
4.581433787E2,1.116373539E-1,2.874830961E-1,-1.448440552E-1
4.586433787E2,8.345484734E-2,1.356607676E-1,7.673931122E-2
4.591433787E2,-7.297229767E-2,6.304132938E-2,5.611038208E-2
4.596433787E2,-3.793513775E-2,2.698993683E-2,1.318731308E-1
4.601433787E2,-4.851865768E-2,-2.406835556E-4,7.279396057E-2
4.606433787E2,1.846313477E-3,-6.045305729E-2,-2.496395111E-1
4.611433787E2,-1.232427359E-1,-4.534029961E-2,-1.495676041E-1
4.616433787E2,1.715064049E-3,-1.314426661E-1,1.087636948E-1
4.621433787E2,-5.018770695E-2,-6.746351719E-2,2.303600311E-2
4.626433787E2,-3.054428101E-2,-5.278527737E-2,9.787559509E-3
4.631433787E2,-2.671301365E-2,2.571630478E-2,1.263799667E-1
4.636433787E2,-2.180039883E-2,-2.333664894E-2,9.947776794E-3
4.641433787E2,2.758085728E-2,-6.238102913E-3,-8.449745178E-2
4.646433787E2,-6.074142456E-2,-8.687460423E-2,-7.157611847E-2
4.651433787E2,8.736610413E-2,-1.122612953E-1,4.423141479E-3
4.656433787E2,1.201808453E-2,-2.958500385E-2,6.975460052E-2
4.661433787E2,8.478677273E-2,1.277208328E-2,1.058950424E-1
4.666433787E2,4.139077663E-2,2.688658237E-2,3.429508209E-2
4.671433787E2,-5.274224281E-2,8.131492138E-2,7.138347626E-2
4.676433787E2,1.075661182E-2,4.289722443E-2,2.904796600E-2
4.681433787E2,1.379446983E-1,1.315737963E-1,8.874893188E-3
4.686433787E2,4.472637177E-2,1.856684685E-2,3.243732452E-2
4.691433787E2,5.541253090E-2,-7.874321938E-2,-1.790714264E-2
4.696433787E2,2.537894249E-2,-2.348196507E-2,-2.469539642E-2
4.701433787E2,2.777743340E-2,-5.968250036E-1,4.495811462E-2
4.706433787E2,-1.456735134E-1,-5.052747726E-1,1.283359528E-2
4.711433787E2,-9.710526466E-2,-3.283090889E-1,1.045484543E-1
4.716433787E2,-2.284693718E-2,2.818978578E-2,7.354259491E-2
4.721433787E2,-9.345746040E-2,2.172146738E-2,2.489280701E-2
4.726433787E2,1.284403801E-1,8.587384224E-2,2.675294876E-1
4.731433787E2,-5.936145782E-2,-3.499399126E-2,-3.666772842E-1
4.736433787E2,-1.525669098E-1,-1.057349667E-1,-8.177757263E-2
4.741433787E2,-3.877449036E-2,-4.062284827E-1,2.157316208E-1
4.746433787E2,1.463198662E-2,-7.135787606E-2,-3.705406189E-2
4.751433787E2,3.358368874E-1,-2.912786007E-1,-1.148099899E-1
4.756433787E2,4.753042459E-1,-4.830322266E-1,2.157421112E-1
4.761433787E2,-8.442856073E-1,8.387530446E-1,-5.075273514E-1
4.766433787E2,-4.921134710E-1,4.689194560E-1,1.198673248E-1
4.771433787E2,-1.469078660E-1,5.871199369E-1,2.578067780E-2
4.776433787E2,-1.142678857E-1,2.519787550E-1,-4.973602295E-2
4.781433787E2,1.523047686E-2,3.903031349E-2,1.348876953E-2
4.786433787E2,-7.794427872E-2,6.707680225E-2,-3.695487976E-3
4.791433787E2,5.231821537E-2,4.130756855E-2,1.855564117E-2
4.796433787E2,4.615426064E-3,8.971822262E-2,-1.704692841E-2
4.801433787E2,6.220221519E-3,6.807577610E-2,-2.088356018E-2
4.806433787E2,1.050162315E-2,6.565630436E-2,-1.410961151E-2
4.811433787E2,3.372085094E-2,4.021275043E-2,4.370975494E-2
4.816433787E2,-8.915781975E-3,6.391084194E-2,-7.213306427E-2
4.821433787E2,2.933824062E-2,3.133010864E-2,-2.864360809E-2
4.826433787E2,5.144000053E-3,-1.454375982E-1,-2.384185791E-5
4.831433787E2,-7.502198219E-3,-3.919422626E-2,-2.252483368E-2
4.836433787E2,5.482316017E-3,3.112304211E-2,-1.933765411E-2
4.841433787E2,1.262784004E-2,1.200644970E-1,-1.371860504E-2
4.846433787E2,-1.256120205E-2,8.533024788E-2,-2.104854584E-2
4.851433787E2,-1.956914663E-1,1.278858423E0,-1.682071686E-1
4.856433787E2,3.336191177E-2,6.644006968E-1,-1.230707169E-1
4.861433787E2,-1.467406750E-2,1.972684860E-1,-4.170417786E-2
4.866433787E2,-1.185786724E-2,1.832101345E-1,3.822231293E-2
4.871433787E2,-2.515125275E-2,2.660298347E-2,4.925918579E-2
4.876433787E2,-2.706849575E-2,2.785286903E-1,-8.488941193E-2
4.881433787E2,-2.619290352E-2,1.702377796E-1,-9.071063995E-2
4.886433787E2,-8.579885960E-2,3.602497578E-1,5.369663239E-2
4.891433787E2,1.453709602E-2,-4.040486813E-1,5.908107758E-2
4.896433787E2,4.433143139E-2,7.139444351E-2,5.733776093E-2
4.901433787E2,-4.857361317E-2,2.165157795E-1,-3.882789612E-2
4.906433787E2,7.444643974E-2,-2.094085217E-1,2.301883698E-2
4.911433787E2,-4.077899456E-2,-3.875803947E-2,-5.188846588E-2
4.916433787E2,-1.134872437E-3,1.022052765E-2,6.292057037E-2
4.921433787E2,1.915490627E-2,6.206297874E-2,-6.441116333E-3
4.926433787E2,-2.004104853E-2,-2.644729614E-2,2.194499969E-2
4.931433787E2,-1.561772227E-1,-1.632201672E-1,1.351575851E-1
4.936433787E2,-2.115362883E-2,-3.320264816E-2,-2.017707825E-1
4.941433787E2,-5.339580774E-2,-2.822461128E-1,-1.125307083E-1
4.946433787E2,1.953327656E-2,9.804439545E-2,1.084028244E0
4.951433787E2,3.383308649E-1,7.249021530E-2,5.999851227E-2
4.956433787E2,1.506447792E-2,-1.192915440E-1,3.640203476E-1
4.961433787E2,-3.110222220E-1,-6.363391876E-2,4.800462723E-1
4.966433787E2,3.561843634E-1,-1.897263527E-1,-4.875917435E-1
4.971433787E2,4.810374975E-2,-2.749124765E-1,6.578445435E-2
4.976433787E2,1.222987175E-1,-8.362818956E-1,-4.368410110E-1
4.981433787E2,7.563853264E-2,-7.863054276E-1,3.169698715E-1
4.986433787E2,1.546896696E-1,-2.730685472E-1,-1.164722443E-2
4.991433787E2,4.883885384E-3,-1.723290682E-1,-2.826404572E-2
4.996433787E2,-3.908753395E-2,1.274091005E-1,-1.878232956E-1
5.001433787E2,2.051023245E-1,1.192201376E-1,7.952785492E-2
5.006433787E2,-2.976238728E-2,1.047394276E-1,2.119512558E-1
5.011433787E2,9.808862209E-2,1.550679207E-1,-1.428184509E-1
5.016433787E2,1.752716303E-1,1.489373446E-1,2.296924591E-2
5.021433787E2,-1.181583405E-1,-1.924479008E-2,3.526020050E-2
5.026433787E2,1.180469990E-2,2.579343319E-2,4.734516144E-2
5.031433787E2,-5.882155895E-2,-9.171867371E-2,7.669162750E-2
5.036433787E2,-3.729736805E-2,5.502378941E-2,-8.562946320E-2
5.041433787E2,2.084374428E-2,-1.045601368E-1,-9.719657898E-2
5.046433787E2,4.167139530E-2,8.955430984E-2,1.198377609E-1
5.051433787E2,9.526014328E-4,1.113390923E-2,3.518009186E-2
5.056433787E2,8.693289757E-2,-1.141847372E-1,-5.992984772E-2
5.061433787E2,-8.455514908E-4,-7.186102867E-2,5.183696747E-2
5.066433787E2,4.410862923E-3,-7.249510288E-2,-1.638984680E-2
5.071433787E2,1.715242863E-2,-1.434087753E-4,1.402730942E-1
5.076433787E2,-2.211415768E-2,9.375452995E-3,-8.828544617E-2
5.081433787E2,1.362109184E-2,-2.455222607E-2,-6.477165222E-2
5.086433787E2,2.604818344E-2,1.000034809E-2,4.498291016E-2
5.091433787E2,-4.286444187E-2,-1.599049568E-2,2.124309540E-2
5.096433787E2,3.194284439E-2,3.622090816E-2,2.848625183E-2
5.101433787E2,-4.379010201E-2,1.430761814E-2,-2.789306641E-2
5.106433787E2,-7.101380825E-2,-3.463280201E-2,1.572608948E-3
5.111433787E2,3.340363503E-2,6.666064262E-3,5.757045746E-2
5.116433787E2,4.677653313E-3,4.193639755E-2,6.265163422E-2
5.121433787E2,-5.417120457E-2,-3.197109699E-2,-5.027198792E-2
5.126433787E2,1.259348392E-1,3.718018532E-2,2.626800537E-2
5.131433787E2,3.474974632E-2,-7.175254822E-2,9.694480896E-2
5.136433787E2,1.306763887E-1,4.255133867E-2,9.300422668E-2
5.141433787E2,1.300292015E-1,-2.822467089E-1,-1.037282944E-1
5.146433787E2,1.336517334E-1,-3.832786083E-1,6.216907501E-2
5.151433787E2,2.719225883E-1,-2.191944569E-1,-1.001539230E-1
5.156433787E2,2.115428448E-1,6.548607349E-2,1.613616943E-3
5.161433787E2,6.853818893E-3,-1.506555080E-2,4.086875916E-2
5.166433787E2,-1.092100143E-2,2.736344934E-1,8.582401276E-2
5.171433787E2,-8.275555372E-1,6.366932392E-2,-2.199802399E-1
5.176433787E2,-1.777245998E0,1.930390596E-1,5.403862000E-1
5.181433787E2,-1.081605673E0,1.008884907E-1,1.703500748E-1
5.186433787E2,-4.694170654E-1,9.605360031E-2,2.813053131E-2
5.191433787E2,-2.176318169E-1,1.246963739E-1,4.736995697E-2
5.196433787E2,9.099362791E-2,3.012932539E-1,-1.174325943E-1
5.201433787E2,4.454656243E-1,-6.692695618E-2,-2.453680038E-1
5.206433787E2,1.377202988E0,1.478183270E-1,-4.920625687E-1
5.211433787E2,1.419264078E0,2.397505045E-1,-3.509969711E-1
5.216433787E2,6.397850513E-1,1.562622786E-1,-8.458805084E-2
5.221433787E2,2.691895962E-1,5.894148350E-2,-1.116094589E-1
5.226433787E2,8.621907234E-2,-1.576113701E-2,-7.998752594E-2
5.231433787E2,4.690909386E-2,-1.134518385E-1,6.778430939E-2
5.236433787E2,-2.098919153E-1,-3.551101685E-2,1.065444946E-2
5.241433787E2,-2.365573645E-1,-6.589996815E-2,7.997703552E-2
5.246433787E2,-1.231795549E-1,-4.297411442E-2,5.599784851E-2
5.251433787E2,-3.379094601E-2,1.147651672E-2,6.164455414E-2
5.256433787E2,-8.149945736E-2,-3.824830055E-3,-2.538394928E-2
5.261433787E2,9.790718555E-2,-1.175796986E-2,5.904960632E-2
5.266433787E2,1.011683941E-1,1.044472456E-1,-2.166080475E-2
5.271433787E2,-1.508152485E-2,-7.686078548E-2,-2.348423004E-2
5.276433787E2,-7.036161423E-2,-3.371882439E-2,1.558742523E-1
5.281433787E2,-1.933610439E-2,-9.570240974E-3,-8.427047729E-2
5.286433787E2,8.420956135E-2,8.033990860E-3,-9.136199951E-4
5.291433787E2,-2.482986450E-2,-4.086971283E-2,3.193569183E-2
5.296433787E2,2.209925652E-2,-7.906198502E-3,-1.301479340E-2
5.301433787E2,4.102301598E-2,-3.130435944E-4,-3.526115417E-2
5.306433787E2,4.025816917E-3,-7.252097130E-3,-3.156661987E-4
5.311433787E2,1.583015919E-2,-3.883957863E-3,1.455593109E-2
5.316433787E2,-9.265792370E-2,4.916310310E-3,2.008504868E-1
5.321433787E2,1.594901085E-2,2.108752728E-2,-1.181974411E-1
5.326433787E2,-7.854223251E-2,-2.264976501E-2,2.544879913E-2
5.331433787E2,4.490280151E-2,7.742369175E-2,3.037748337E-1
5.336433787E2,1.023328304E-1,-4.095852375E-2,-1.377973557E-1
5.341433787E2,1.199960709E-2,-7.502031326E-2,-2.874469757E-2
5.346433787E2,7.169032097E-2,5.276334286E-2,1.109600067E-1
5.351433787E2,3.045444489E-1,-1.260995865E-3,-2.200412750E-2
5.356433787E2,3.309204578E-1,4.124760628E-3,1.153936386E-1
5.361433787E2,1.548511982E-1,3.523707390E-3,-5.837917328E-2
5.366433787E2,-1.788926125E-2,-2.124094963E-2,1.233034134E-1
5.371433787E2,-1.673412323E-2,7.862269878E-2,-2.232551575E-3
5.376433787E2,-2.540123463E-1,-7.102227211E-2,2.869701385E-2
5.381433787E2,-3.229379654E-2,2.968168259E-2,8.367538452E-2
5.386433787E2,2.697658539E-2,-9.737396240E-2,3.877258301E-2
5.391433787E2,-2.299141884E-2,5.075144768E-2,-8.042144775E-2
5.396433787E2,-1.011936665E-1,1.235461235E-2,7.499408722E-2
5.401433787E2,-2.068814039E-1,-6.182909012E-3,7.337570190E-2
5.406433787E2,-8.354103565E-2,-7.547724247E-2,1.834487915E-1
5.411433787E2,-5.718135834E-2,6.890022755E-2,-2.051048279E-1
5.416433787E2,-1.181176901E-1,-1.631975174E-4,3.028593063E-1
5.421433787E2,-1.973593235E-2,2.648627758E-2,-9.027481079E-2
5.426433787E2,1.162766218E-1,9.794712067E-3,-2.830314636E-2
5.431433787E2,6.315565109E-2,2.703619003E-2,-8.912944794E-2
5.436433787E2,-4.888892174E-2,3.550028801E-2,4.306983948E-2
5.441433787E2,-7.410168648E-2,-4.146277905E-2,7.234573364E-2
5.446433787E2,9.062159061E-2,1.891624928E-2,-1.023263931E-1
5.451433787E2,-3.923308849E-2,-2.996218204E-2,6.606101990E-2
5.456433787E2,3.561067581E-2,2.465498447E-2,-8.049774170E-2
5.461433787E2,-2.082359791E-2,6.513953209E-2,1.618099213E-2
5.466433787E2,-9.081363678E-2,-9.237611294E-2,-3.499317169E-2
5.471433787E2,7.727265358E-2,4.752373695E-2,5.660343170E-2
5.476433787E2,9.724748135E-2,-5.579495430E-2,9.560585022E-3
5.481433787E2,6.709897518E-2,-1.758396626E-2,-9.756278992E-2
5.486433787E2,-1.419426203E-1,5.286967754E-2,1.976184845E-1
5.491433787E2,1.858091354E-2,8.031249046E-3,-4.104518890E-2
5.496433787E2,-1.354503632E-2,5.526781082E-3,-9.524345398E-3
5.501433787E2,-5.167222023E-2,-6.040501595E-2,-3.248119354E-2
5.506433787E2,-8.027660847E-2,-8.864152431E-2,-3.211212158E-2
5.511433787E2,-2.075541019E-2,-5.203711987E-2,-9.131431580E-3
5.516433787E2,8.151853085E-2,-4.069983959E-2,1.862897873E-1
5.521433787E2,3.138244152E-2,9.736776352E-3,-7.740306854E-2
5.526433787E2,-6.297230721E-3,-5.948734283E-2,-4.097938538E-3
5.531433787E2,-8.634948730E-2,4.358303547E-2,9.330272675E-2
5.536433787E2,5.621147156E-2,-3.760832548E-2,-1.954460144E-1
5.541433787E2,-8.205533028E-3,-8.581650257E-2,1.080942154E-1
5.546433787E2,-5.752944946E-2,1.419091225E-2,4.625034332E-2
5.551433787E2,-1.248511076E-1,8.150911331E-2,-9.852695465E-2
5.556433787E2,1.755264997E-1,-2.296091914E-1,1.457118988E-1
5.561433787E2,8.928251266E-2,3.370463848E-2,-3.343658447E-1
5.566433787E2,4.554487467E-1,-2.530384064E-2,-2.475395203E-1
5.571433787E2,-2.418661118E-2,-9.252429008E-3,-7.377243042E-2
5.576433787E2,-4.999208450E-2,4.389715195E-2,-7.860183716E-2
5.581433787E2,-9.022867680E-2,-9.474575520E-2,5.449008942E-2
5.586433787E2,-1.974722147E-1,4.431641102E-2,-8.540534973E-2
5.591433787E2,1.005575657E-1,-3.534424305E-2,2.929239273E-1
5.596433787E2,6.621325016E-2,6.524908543E-2,-1.255083084E-1
5.601433787E2,-3.136277199E-3,-7.034540176E-4,-2.611665726E-1
5.606433787E2,-4.217386246E-2,-8.247208595E-2,2.363271713E-1
5.611433787E2,-1.697778702E-3,8.241498470E-2,-1.415090561E-1
5.616433787E2,1.745535135E-1,-1.240944862E-2,1.387920380E-1
5.621433787E2,-1.831505299E-1,1.746654510E-3,2.882862091E-2
5.626433787E2,2.201771736E-2,5.112063885E-2,-1.585559845E-1
5.631433787E2,1.949390173E-1,-2.378141880E-2,2.463788986E-1
5.636433787E2,-1.113724709E-2,2.759730816E-2,1.259708405E-2
5.641433787E2,-3.865134716E-2,-4.677760601E-2,-1.283388138E-1
5.646433787E2,-4.805004597E-2,-3.884220123E-2,2.654838562E-2
5.651433787E2,5.339503288E-3,2.284550667E-2,-8.696460724E-2
5.656433787E2,-1.174342632E-2,-4.391789436E-2,7.574939728E-2
5.661433787E2,-5.302524567E-2,3.850448132E-2,5.218315125E-2
5.666433787E2,9.318709373E-2,-3.758656979E-2,-8.836078644E-2
5.671433787E2,-2.252471447E-2,-3.557443619E-3,1.326141357E-1
5.676433787E2,-1.989138126E-2,-1.205873489E-2,1.454353333E-2
5.681433787E2,-2.310931683E-2,9.234881401E-2,1.648139954E-1
5.686433787E2,5.800724030E-3,-5.549061298E-2,8.599281311E-3
5.691433787E2,2.094113827E-2,2.629458904E-2,-2.085971832E-1
5.696433787E2,6.806600094E-2,-3.122091293E-3,-5.669593811E-3
5.701433787E2,-7.744705677E-2,2.389454842E-2,3.853425980E-1
5.706433787E2,1.164560318E-1,-4.929697514E-2,-3.670883179E-2
5.711433787E2,-6.158351898E-2,2.105760574E-2,1.371994019E-1
5.716433787E2,1.676901579E-1,-7.966756821E-3,-1.703987122E-1
5.721433787E2,2.158658504E-1,5.664455891E-2,-9.973716736E-2
5.726433787E2,-2.676104307E-1,5.759477615E-3,-1.492881775E-1
5.731433787E2,3.348004818E-2,3.349328041E-2,7.623386383E-2
5.736433787E2,-4.943132401E-3,2.645969391E-3,1.035060883E-1
5.741433787E2,-9.590923786E-2,-8.672118187E-3,4.996967316E-2
5.746433787E2,-7.036900520E-2,-1.441836357E-2,-8.285522461E-2
5.751433787E2,2.666509151E-2,1.144174337E-1,-4.780292511E-2
5.756433787E2,2.471411228E-1,1.291644573E-2,-3.003787994E-2
5.761433787E2,-3.856801987E-2,5.697965622E-3,-1.261425018E-2
5.766433787E2,1.639282703E-2,-5.883276463E-2,-5.147361755E-2
5.771433787E2,-8.837211132E-2,5.020844936E-2,1.231346130E-1
5.776433787E2,-8.001232147E-2,-1.263678074E-1,7.825183868E-2
5.781433787E2,-1.073114872E-1,5.543196201E-2,-2.824583054E-1
5.786433787E2,1.430497169E-1,-8.084058762E-2,1.914014816E-1
5.791433787E2,5.797612667E-2,-3.053319454E-2,3.303718567E-2
5.796433787E2,5.746209621E-2,2.095663548E-2,-3.920774460E-1
5.801433787E2,-1.065248251E-1,-2.469944954E-2,2.083997726E-1
5.806433787E2,-5.445134640E-2,7.649338245E-2,-1.614866257E-1
5.811433787E2,-5.461466312E-2,5.804216862E-2,1.604537964E-1
5.816433787E2,8.329856396E-2,-2.139842510E-2,1.092481613E-1
5.821433787E2,6.664955616E-2,1.522481441E-2,1.418256760E-1
5.826433787E2,-8.312284946E-2,-4.740250111E-2,-1.617851257E-1
5.831433787E2,2.605438232E-3,-4.697918892E-3,-8.930301666E-2
5.836433787E2,1.259022951E-1,4.354715347E-4,9.505748749E-2
5.841433787E2,-2.048254013E-3,-6.677871943E-2,-2.114152908E-1
5.846433787E2,-1.877129078E-2,-3.214961290E-2,1.214027405E-1
5.851433787E2,-3.455889225E-2,-6.309741735E-2,-1.134967804E-2
5.856433787E2,-3.470420837E-2,3.706765175E-2,-2.044219971E-1
5.861433787E2,-1.134634018E-2,-5.677723885E-2,1.771097183E-1
5.866433787E2,5.557060242E-2,3.142875433E-2,-1.528787613E-1
5.871433787E2,-1.181614399E-2,8.548498154E-4,-1.812458038E-2
5.876433787E2,4.162561893E-2,-3.166234493E-2,1.384496689E-1
5.881433787E2,2.876746655E-2,6.620764732E-2,-1.275701523E-1
5.886433787E2,1.273872852E-1,2.072507143E-2,9.155941010E-2
5.891433787E2,1.777908802E-1,-8.094191551E-2,-1.205701828E-1
5.896433787E2,7.172822952E-2,8.037739992E-2,-1.168298721E-1
5.901433787E2,1.194443703E-1,-5.774915218E-3,8.526706696E-2
5.906433787E2,-9.883880615E-2,-2.800536156E-2,-4.899978638E-3
5.911433787E2,-1.243178844E-1,-1.025804877E-1,-3.525924683E-2
5.916433787E2,-1.654881239E-1,-1.184410453E-1,1.043214798E-1
5.921433787E2,-9.109008312E-2,-2.543312311E-2,-4.929351807E-2
5.926433787E2,-4.273903370E-2,-6.330859661E-2,5.519866943E-3
5.931433787E2,-8.590137959E-2,1.747757196E-2,1.962804794E-1
5.936433787E2,-5.501616001E-2,-7.830131054E-2,-1.820974350E-1
5.941433787E2,-6.473219395E-2,-1.123511791E-2,1.522827148E-1
5.946433787E2,4.535877705E-2,-9.647607803E-3,-2.085943222E-1
5.951433787E2,8.563292027E-2,5.694407225E-2,-1.084375381E-1
5.956433787E2,3.320252895E-2,-4.304587841E-3,1.270456314E-1
5.961433787E2,-4.449260235E-2,3.275150061E-2,-1.498155594E-1
5.966433787E2,-6.738495827E-2,-5.283713341E-3,-6.452560425E-3
5.971433787E2,-1.350533962E-2,-2.100479603E-2,3.696918488E-2
5.976433787E2,-5.485618114E-2,1.168209314E-2,-2.197961807E-1
5.981433787E2,9.883284569E-2,-9.168636799E-2,3.397960663E-1
5.986433787E2,-1.061363220E-1,1.325095892E-1,2.559690475E-1
5.991433787E2,2.164821625E-1,-4.124385118E-2,4.022026062E-2
5.996433787E2,8.674728870E-2,3.767490387E-2,6.338024139E-2
6.001433787E2,-2.905976772E-2,6.719350815E-3,-2.621173859E-2
6.006433787E2,-2.613842487E-2,1.323282719E-3,4.012393951E-2
6.011433787E2,-7.283902168E-2,6.851869822E-2,-1.200294495E-2
6.016433787E2,4.599809647E-3,-6.271576881E-2,7.435035706E-2
6.021433787E2,-1.241683960E-3,-3.067314625E-2,3.678894043E-2
6.026433787E2,8.914327621E-2,3.380638361E-2,1.661996841E-1
6.031433787E2,1.898697615E-1,-5.386233330E-3,-1.088685989E-1
6.036433787E2,5.198538303E-2,1.354008913E-2,6.595611572E-3
6.041433787E2,6.870269775E-3,1.818954945E-3,-4.047298431E-2
6.046433787E2,-6.132650375E-2,9.062111378E-3,-3.813076019E-2
6.051433787E2,-7.688617706E-2,3.568130732E-2,-4.661464691E-2
6.056433787E2,7.337427139E-2,-8.505791426E-2,-8.356857300E-2
6.061433787E2,1.185992956E-1,8.689016104E-2,1.545743942E-1
6.066433787E2,5.042552948E-2,-2.024966478E-2,-3.254413605E-2
6.071433787E2,-1.023423672E-1,3.909355402E-2,-4.137611389E-2
6.076433787E2,-1.283323765E-2,-7.885193825E-2,1.026945114E-1
6.081433787E2,4.846167564E-2,-1.971244812E-2,-9.066772461E-2
6.086433787E2,3.698706627E-2,-3.497368097E-2,-1.573095322E-1
6.091433787E2,-1.044327021E-1,-2.762615681E-3,-5.594158173E-2
6.096433787E2,-3.701710701E-2,-7.148009539E-2,-5.016708374E-2
6.101433787E2,-4.576194286E-2,-3.417927027E-2,-9.261894226E-2
6.106433787E2,-4.792213440E-3,-5.053621531E-2,-1.226005554E-1
6.111433787E2,2.519071102E-2,6.718099117E-3,-6.582164764E-2
6.116433787E2,1.971840858E-3,5.863612890E-2,7.546138763E-2
6.121433787E2,2.861440182E-2,9.821653366E-4,-1.446428299E-1
6.126433787E2,-6.694555283E-2,-9.048241377E-2,5.243492126E-2
6.131433787E2,8.606839180E-2,6.441688538E-2,6.243610382E-2
6.136433787E2,3.445124626E-2,1.394515038E-1,2.327623367E-1
6.141433787E2,-1.056885719E-1,-1.996970177E-2,-2.507562637E-1
6.146433787E2,1.799213886E-2,9.443497658E-2,9.052753448E-2
6.151433787E2,1.177108288E-2,1.186728477E-3,4.504299164E-2
6.156433787E2,-4.814684391E-2,6.973516941E-2,-2.605657578E-1
6.161433787E2,2.180938721E-1,7.853555679E-2,-1.125707626E-1
6.166433787E2,1.195147038E-1,8.653283119E-3,-9.027290344E-2
6.171433787E2,-9.534013271E-2,-3.461849689E-2,-5.895233154E-2
6.176433787E2,-1.626982689E-1,-2.482485771E-2,-1.100091934E-1
6.181433787E2,1.143339872E-1,3.896880150E-2,-1.567649841E-2
6.186433787E2,-5.093455315E-3,5.224108696E-3,1.177835464E-1
6.191433787E2,-5.545914173E-2,-1.722916365E-1,1.176805496E-1
6.196433787E2,-6.794703007E-2,2.018892765E-2,-1.121778488E-1
6.201433787E2,-4.632437229E-2,-5.189895630E-2,2.009449005E-1
6.206433787E2,-3.380048275E-2,1.750528812E-2,-1.736736298E-1
6.211433787E2,-5.743145943E-3,-2.980983257E-2,-3.548431396E-2
6.216433787E2,-6.130945683E-2,-2.718456388E-1,6.353378296E-3
6.221433787E2,4.316055775E-2,-1.831889749E-1,-3.218364716E-2
6.226433787E2,-8.483052254E-3,-6.025934219E-2,2.628450394E-1
6.231433787E2,6.597244740E-2,-4.146575928E-3,-1.095771790E-2
6.236433787E2,5.580115318E-2,-4.013305902E-2,-2.370309830E-1
6.241433787E2,3.036701679E-2,5.929809809E-2,8.198642731E-2
6.246433787E2,-1.341426373E-2,-5.228519440E-3,8.568763733E-3
6.251433787E2,-3.678977489E-2,3.241139650E-2,3.291988373E-2
6.256433787E2,6.313407421E-2,5.649745464E-3,-1.793956757E-2
6.261433787E2,-5.711483955E-2,-4.278242588E-2,3.864955902E-2
6.266433787E2,-8.365547657E-2,-6.449615955E-2,3.081893921E-2
6.271433787E2,3.655290604E-2,2.864450216E-2,-2.010049820E-1
6.276433787E2,3.692460060E-2,-2.938628197E-2,3.663063049E-2
6.281433787E2,1.098451614E-1,4.287201166E-2,1.009845734E-2
6.286433787E2,6.797933578E-2,7.686620951E-2,-1.101016998E-2
6.291433787E2,-1.176847219E-1,-6.386226416E-2,-1.609182358E-1
6.296433787E2,4.993200302E-2,4.484492540E-2,1.626539230E-1
6.301433787E2,2.246451378E-2,-3.287792206E-3,-3.399562836E-2
6.306433787E2,-9.726297855E-2,-4.169732332E-2,-9.949779510E-2
6.311433787E2,-2.658891678E-2,-3.805412650E-1,-1.169300079E-2
6.316433787E2,-1.392090321E-2,-1.257724166E-1,7.125854492E-2
6.321433787E2,1.245439053E-2,-1.131335646E-1,-6.763935089E-2
6.326433787E2,4.629492760E-3,-4.359286651E-2,5.915641785E-3
6.331433787E2,2.848327160E-2,-6.164906919E-2,-3.397655487E-2
6.336433787E2,-6.219518185E-2,2.315970361E-1,3.617382050E-2
6.341433787E2,-4.797899723E-2,-1.902726591E-1,-1.389780045E-1
6.346433787E2,-4.028058052E-2,-1.234815642E-2,5.215358734E-2
6.351433787E2,3.221976757E-2,1.388081014E-1,-3.248119354E-2
6.356433787E2,-6.193006039E-2,-1.691319942E-1,-4.221057892E-2
6.361433787E2,2.027773857E-2,-7.184171118E-4,1.496324539E-1
6.366433787E2,1.097837687E-1,1.697968692E-1,2.988815308E-3
6.371433787E2,1.181035042E-1,1.615701616E-1,1.033391953E-1
6.376433787E2,1.828098297E-2,5.425819755E-2,-1.024522781E-1
6.381433787E2,-2.632141113E-4,-1.120063663E-2,3.307628632E-2
6.386433787E2,-1.396191120E-2,5.709102750E-2,-4.048061371E-2
6.391433787E2,-1.374876499E-2,2.369858027E-1,6.000614166E-2
6.396433787E2,-4.065263271E-2,-8.960613608E-2,-4.659557343E-2
6.401433787E2,2.631199360E-2,-9.960578382E-2,-5.286598206E-2
6.406433787E2,7.687151432E-2,-7.344835997E-2,-2.959823608E-2
6.411433787E2,8.916854858E-5,-1.006441712E-1,-5.014705658E-2
6.416433787E2,-1.670479774E-2,-9.509569407E-2,-2.351760864E-2
6.421433787E2,-6.063556671E-2,2.901055813E-1,1.684188843E-3
6.426433787E2,4.994380474E-2,-2.025214434E-1,-1.001300812E-1
6.431433787E2,3.954136372E-2,-1.854637414E-1,8.648586273E-2
6.436433787E2,-3.575372696E-2,-1.158546507E-1,7.523822784E-2
6.441433787E2,-8.359324932E-2,1.140587628E-1,-8.623504639E-2
6.446433787E2,3.980827332E-1,3.799546361E-1,-1.306724548E-1
6.451433787E2,1.297636032E-1,-1.336379051E-1,-3.338813782E-3
6.456433787E2,4.162788391E-3,3.389877081E-1,-5.347061157E-2
6.461433787E2,-9.511232376E-3,4.825970531E-1,-5.566215515E-2
6.466433787E2,3.359889984E-2,2.648785114E-1,-1.568222046E-2
6.471433787E2,7.667541504E-3,1.698980331E-1,-7.211399078E-2
6.476433787E2,1.327226162E-1,6.773221493E-2,3.514766693E-2
6.481433787E2,3.552491665E-1,-8.673202991E-2,-6.258010864E-3
6.486433787E2,2.586205006E-1,1.117753983E-1,-1.337327957E-1
6.491433787E2,6.353549957E-1,-2.100943327E-1,-4.626674652E-1
6.496433787E2,1.461596251E0,-2.168860435E-1,-6.756877899E-1
6.501433787E2,9.982652664E-1,-3.491446972E-1,-5.737247467E-1
6.506433787E2,9.654397964E-1,8.503544331E-2,-8.672308922E-1
6.511433787E2,-1.806931496E-1,-2.668951750E-1,-7.222461700E-2
6.516433787E2,9.692955017E-2,-5.587691069E-1,1.070413589E-1
6.521433787E2,-9.975676537E-1,-4.168123007E-1,7.752666473E-1
6.526433787E2,-1.299271822E0,-6.857055426E-1,2.538385391E-1
6.531433787E2,-3.840339184E-1,-3.298337460E-1,-2.546405792E-2
6.536433787E2,-1.576526165E-1,-1.654833555E-1,1.402082443E-1
6.541433787E2,1.414854527E-1,-3.911674023E-2,7.621669769E-2
6.546433787E2,-3.211667538E-1,4.784191847E-1,-5.209732056E-2
6.551433787E2,-3.664183617E-2,-6.603450775E-1,-3.288116455E-1
6.556433787E2,-7.161116600E-2,-2.840872407E-1,7.297134399E-2
6.561433787E2,-9.083509445E-2,-1.652935147E-1,6.420993805E-2
6.566433787E2,-9.541106224E-2,-1.407948136E-1,2.345180511E-2
6.571433787E2,7.572722435E-2,-6.547734141E-2,6.941699982E-2
6.576433787E2,1.031577587E-1,2.043730021E-2,-1.529455185E-1
6.581433787E2,8.091926575E-2,-4.322949052E-2,6.972885132E-2
6.586433787E2,-1.856255531E-2,-2.709594369E-2,-5.936336517E-2
6.591433787E2,-7.987737656E-3,1.091739535E-2,-6.775951385E-2
6.596433787E2,-6.982636452E-2,-1.056079417E-1,3.836154938E-2
6.601433787E2,5.772519112E-2,-5.943125486E-2,1.492938995E-1
6.606433787E2,4.250288010E-3,1.071369648E-2,1.515369415E-1
6.611433787E2,-1.208651066E-1,-6.197005510E-2,9.969043732E-2
6.616433787E2,-6.690764427E-2,-2.734466493E-1,1.330289841E-1
6.621433787E2,3.475189209E-3,-3.339684308E-1,-1.889266968E-1
6.626433787E2,-5.182051659E-2,-1.302611083E-1,6.568908691E-3
6.631433787E2,1.240861416E-1,1.022133231E-2,-8.423042297E-2
6.636433787E2,-1.270465851E-1,1.302887797E-1,-6.370449066E-2
6.641433787E2,-2.568169832E-1,-1.726032794E-2,-1.505622864E-1
6.646433787E2,-1.701346636E-1,-1.247970238E-1,1.754255295E-1
6.651433787E2,-1.618185639E-1,2.563089505E-2,2.031612396E-2
6.656433787E2,5.613553524E-2,-4.987937212E-2,-5.316638947E-2
6.661433787E2,-1.449726820E-1,1.162621379E-1,3.183889389E-1
6.666433787E2,3.156818151E-1,-1.277527213E-1,-1.359872818E-1
6.671433787E2,1.819040775E-1,-9.919849038E-2,2.677965164E-1
6.676433787E2,9.428238869E-2,-1.318067014E-1,-3.080930710E-1
6.681433787E2,8.423495293E-2,-4.678577185E-2,2.176342010E-1
6.686433787E2,-7.600086331E-1,3.357740939E-1,3.054513931E-1
6.691433787E2,-3.097776175E-1,7.228846550E-1,-2.620201111E-1
6.696433787E2,-2.179346681E-1,1.326155066E-1,1.338357925E-1
6.701433787E2,3.119826317E-3,-3.571808338E-2,-1.021957397E-2
6.706433787E2,1.076103449E-1,6.378716230E-2,1.475238800E-2
6.711433787E2,1.956024170E-1,8.907610178E-2,-1.294040680E-1
6.716433787E2,1.699804068E-1,6.878346205E-2,4.357814789E-1
6.721433787E2,3.342139721E-2,7.801771164E-3,-1.172180176E-1
6.726433787E2,-3.823995590E-3,1.707088947E-1,2.956390381E-2
6.731433787E2,9.672820568E-2,-8.162623644E-2,2.065353394E-1
6.736433787E2,2.051647902E-1,-2.348941565E-2,-3.396673203E-1
6.741433787E2,1.913976669E-2,9.711372852E-2,-1.426715851E-1
6.746433787E2,1.147577763E-1,-1.700520515E-3,1.813411713E-2
6.751433787E2,5.530905724E-2,-1.872678995E-1,-1.394357681E-1
6.756433787E2,1.194045544E-1,-4.720705748E-2,8.970928192E-2
6.761433787E2,-3.008151054E-2,-2.248643488E-1,6.275177002E-2
6.766433787E2,7.113623619E-2,-1.511567831E-1,9.611129761E-3
6.771433787E2,-1.088166237E-2,-2.390435338E-2,-1.141071320E-2
6.776433787E2,-9.241342545E-3,-8.155375719E-3,1.884384155E-1
6.781433787E2,-7.454276085E-2,-1.306603998E-1,9.340763092E-2
6.786433787E2,5.241990089E-2,1.378921121E-1,-6.937122345E-2
6.791433787E2,-9.023404121E-2,-4.637594521E-2,-1.548185349E-1
6.796433787E2,7.554531097E-2,1.455110013E-1,-1.307163239E-1
6.801433787E2,7.680487633E-2,-1.285487413E-2,1.902360916E-1
6.806433787E2,-8.127260208E-2,3.663736582E-2,-1.814899445E-1
6.811433787E2,-1.204774380E-1,-4.405242205E-2,2.124652863E-1
6.816433787E2,-2.104473114E-2,4.132169485E-2,-1.090717316E-1
6.821433787E2,1.160571575E-1,1.817491651E-1,2.666139603E-1
6.826433787E2,-1.321380138E-1,6.240618229E-2,-3.385229111E-1
6.831433787E2,9.536719322E-2,1.283178926E-1,5.974864960E-2
6.836433787E2,-7.805585861E-3,-4.971969128E-2,-1.655483246E-1
6.841433787E2,4.577326775E-2,-4.987156391E-2,-8.922004700E-2
6.846433787E2,2.527856827E-2,2.091821432E-1,1.598644257E-2
6.851433787E2,1.094183922E-1,-5.830395222E-2,-1.938171387E-1
6.856433787E2,-2.346539497E-2,1.761549711E-2,-7.155418396E-3
6.861433787E2,3.313994408E-2,-3.166157007E-2,-1.888151169E-1
6.866433787E2,-1.659345627E-2,9.747624397E-3,2.184906006E-1
6.871433787E2,-6.292581558E-3,1.189649105E-2,-7.071495056E-2
6.876433787E2,3.850221634E-2,-2.040016651E-2,8.112621307E-2
6.881433787E2,-5.667829514E-2,2.162110806E-2,-7.819938660E-2
6.886433787E2,-5.099534988E-3,-5.507111549E-3,-1.710033417E-2
6.891433787E2,1.852059364E-2,-7.632613182E-3,1.355648041E-2
6.896433787E2,-2.730178833E-2,-8.589863777E-3,-4.005813599E-2
6.901433787E2,-5.732440948E-2,-1.221134663E-1,3.361320496E-2
6.906433787E2,1.198506355E-2,-8.807128668E-2,-4.499340057E-2
6.911433787E2,7.136154175E-2,-6.646686792E-2,9.287929535E-2
6.916433787E2,6.771302223E-2,-1.109426320E-1,1.190290451E-1
6.921433787E2,-8.099079132E-4,-3.715068102E-2,-1.804437637E-1
6.926433787E2,7.056760788E-2,1.781904697E-2,5.970954895E-2
6.931433787E2,2.397298813E-3,-2.245622873E-2,-2.612113953E-3
6.936433787E2,8.910107613E-2,-1.548975706E-2,2.236270905E-2
6.941433787E2,-6.455683708E-2,8.134049177E-2,-9.480285645E-2
6.946433787E2,-1.607775688E-2,7.856285572E-2,-5.108356476E-2
6.951433787E2,1.220824718E-1,3.397566080E-2,7.940387726E-2
6.956433787E2,-7.693815231E-2,1.170988083E-1,-3.152704239E-1
6.961433787E2,-9.010076523E-3,-8.865505457E-2,1.212091446E-1
6.966433787E2,9.780430794E-2,7.055544853E-2,-5.825138092E-2
6.971433787E2,2.010533810E-1,-7.329851389E-2,-3.602523804E-1
6.976433787E2,3.340334892E-1,-4.253476858E-2,2.259235382E-1
6.981433787E2,1.898856163E-1,-3.461998701E-2,-4.663085938E-2
6.986433787E2,1.104271412E-1,-9.298676252E-2,-8.843421936E-2
6.991433787E2,-2.579665184E-2,-7.395011187E-2,2.826452255E-1
6.996433787E2,-6.421208382E-2,-1.934427023E-1,-2.220735550E-1
7.001433787E2,-1.773712635E-1,-5.422523618E-2,-1.601018906E-1
7.006433787E2,-3.813674450E-1,-1.919713616E-2,5.109138489E-1
7.011433787E2,-2.225868702E-1,1.122494042E-1,4.914760590E-2
7.016433787E2,-7.736897469E-2,2.621904016E-1,-4.601478577E-3
7.021433787E2,-1.117931604E-1,6.125330925E-2,1.609611511E-2
7.026433787E2,5.180597305E-3,8.427321911E-2,8.357906342E-2
7.031433787E2,-3.625631332E-3,-1.033196449E-1,-1.729316711E-1
7.036433787E2,5.255723000E-2,-1.567924619E-1,-5.416870117E-2
7.041433787E2,-2.132630348E-2,-6.877231598E-2,-1.436233521E-3
7.046433787E2,-7.891654968E-5,-1.602201164E-1,4.949569702E-3
7.051433787E2,3.204274178E-2,-4.178047180E-2,-9.279251099E-4
7.056433787E2,2.646279335E-2,5.607515574E-3,1.096630096E-2
7.061433787E2,-3.895640373E-2,2.438631654E-2,-1.189126968E-1
7.066433787E2,6.315708160E-4,-5.578690767E-2,-5.065441132E-2
7.071433787E2,-1.228201389E-2,7.445931435E-3,-2.289390564E-2
7.076433787E2,6.076765060E-2,1.971420646E-2,5.020809174E-2
7.081433787E2,-7.686853409E-3,9.988486767E-2,-1.036548615E-2
7.086433787E2,-2.787613869E-2,1.426827908E-1,8.316707611E-2
7.091433787E2,1.028430462E-2,5.299204588E-2,5.757427216E-2
7.096433787E2,3.881692886E-2,-4.061216116E-2,6.197547913E-2
7.101433787E2,1.378319263E-1,1.564919949E-3,8.343410492E-2
7.106433787E2,6.219129562E-1,-4.704102874E-2,-3.040971756E-1
7.111433787E2,1.067902565E0,-9.618815780E-2,-3.261833191E-1
7.116433787E2,4.664444923E-1,2.633333206E-3,-1.290397644E-1
7.121433787E2,1.166424751E-1,-6.210431457E-2,-1.743497849E-1
7.126433787E2,8.645200729E-2,-3.606003523E-2,5.829811096E-3
7.131433787E2,1.075139046E-1,1.297318935E-2,1.817808151E-1
7.136433787E2,2.395367622E-1,-1.317080855E-1,1.917495728E-1
7.141433787E2,-7.941770554E-2,-1.440696120E-1,-1.425924301E-1
7.146433787E2,7.941675186E-2,-9.090641141E-2,3.431797028E-2
7.151433787E2,-5.691385269E-2,-1.275535822E-1,8.367443085E-2
7.156433787E2,-2.305850983E-1,-3.921639919E-2,1.910142899E-1
7.161433787E2,-4.299800396E-1,-7.323670387E-2,-3.138828278E-2
7.166433787E2,-1.654648781E-1,-2.045408189E-1,2.812290192E-2
7.171433787E2,-1.404049397E-1,-6.962166727E-2,1.085348129E-1
7.176433787E2,-1.271250248E-1,-8.486916125E-2,-2.659511566E-2
7.181433787E2,-1.046791077E-1,-5.666569620E-2,7.214069366E-2
7.186433787E2,-5.492663383E-2,4.508085549E-2,-8.310794830E-2
7.191433787E2,2.266883850E-3,3.118513525E-2,6.776618958E-2
7.196433787E2,7.921552658E-2,8.093304932E-2,-2.556037903E-2
7.201433787E2,-5.179762840E-2,-5.256605148E-2,1.889228821E-3
7.206433787E2,-1.426301003E-1,-1.221158952E-1,-8.340358734E-2
7.211433787E2,-7.698655128E-3,1.000120342E-1,2.108697891E-1
7.216433787E2,-3.244972229E-2,8.967679739E-2,-2.289981842E-1
7.221433787E2,2.168536186E-2,6.780669093E-2,-1.586942673E-1
7.226433787E2,-4.429101944E-3,-1.280412078E-2,1.068468094E-1
7.231433787E2,1.696038246E-2,-4.567682743E-3,-3.396892548E-2
7.236433787E2,3.736281395E-2,-1.110406220E-1,2.167701721E-2
7.241433787E2,-2.221488953E-2,-3.947968781E-2,-3.461170197E-2
7.246433787E2,8.147239685E-3,-2.986368537E-2,1.487970352E-1
7.251433787E2,-2.543520927E-2,-3.013387322E-2,-4.202842712E-3
7.256433787E2,1.461269855E-1,2.667430043E-2,4.704570770E-2
7.261433787E2,2.972364426E-3,-1.813654602E-2,-2.581501007E-2
7.266433787E2,-1.031777859E-1,5.601093173E-2,-4.431247711E-2
7.271433787E2,5.089259148E-2,1.141303480E-1,-7.907867432E-3
7.276433787E2,-1.317673922E-1,1.754802465E-2,1.124572754E-1
7.281433787E2,-1.687550545E-1,5.077272654E-2,-6.755352020E-2
7.286433787E2,-2.384350896E-1,5.497848988E-2,1.155996323E-1
7.291433787E2,-1.388637424E-1,-3.364473581E-2,3.160753250E-1
7.296433787E2,-3.960937262E-2,-4.868650436E-2,-1.332559586E-1
7.301433787E2,-2.745365202E-1,-6.260377169E-2,1.609439850E-1
7.306433787E2,5.956134200E-2,2.318793535E-2,-4.272174835E-2
7.311433787E2,-1.517635584E-2,-5.302655697E-2,5.795192719E-2
7.316433787E2,-4.502895474E-2,4.566603899E-2,-7.764244080E-2
7.321433787E2,-1.171770692E-2,-5.452644825E-2,-8.681869507E-2
7.326433787E2,-4.338771105E-2,-7.038235664E-3,2.889108658E-1
7.331433787E2,7.143366337E-2,-6.409001350E-2,-1.567745209E-2
7.336433787E2,8.527761102E-1,5.570304394E-2,-2.862472534E-1
7.341433787E2,4.231157899E-1,-7.811987400E-2,-8.186244965E-2
7.346433787E2,-2.341260314E-1,3.617632389E-2,3.075466156E-1
7.351433787E2,-8.389979601E-2,-3.036558628E-2,5.779457092E-2
7.356433787E2,-2.855635881E-1,6.835818291E-2,3.882064819E-1
7.361433787E2,-6.726360321E-2,-2.393857241E-1,-1.294403076E-1
7.366433787E2,8.548169732E-1,1.268181801E-1,2.297887802E-1
7.371433787E2,1.282811880E0,-4.952359200E-2,-5.194559097E-1
7.376433787E2,1.046859384E0,1.443569064E-1,-1.055564880E-1
7.381433787E2,2.938597202E-1,1.637887955E-2,-2.409868240E-1
7.386433787E2,-1.459431648E-2,-1.582190990E-1,-9.112358093E-3
7.391433787E2,-2.010512352E-2,-3.720270991E-1,1.544809341E-1
7.396433787E2,-6.723308563E-2,-1.877398044E-1,-7.912158966E-2
7.401433787E2,-6.053113937E-2,-6.351056695E-2,1.245088577E-1
7.406433787E2,-8.924698830E-2,1.808351278E-2,1.091384888E-2
7.411433787E2,-1.800990105E-2,-3.464958072E-2,-1.099147797E-1
7.416433787E2,-5.228042603E-2,1.916140318E-3,-6.327056885E-2
7.421433787E2,-7.637715340E-2,-5.226059258E-2,-3.602123260E-2
7.426433787E2,-5.526614189E-2,3.410845995E-3,-2.152757645E-1
7.431433787E2,-2.850270271E-2,-7.782539725E-2,5.859470367E-2
7.436433787E2,2.619385719E-2,-3.433176875E-2,2.458286285E-2
7.441433787E2,1.587014198E-1,7.592731714E-2,1.502094269E-1
7.446433787E2,2.284741402E-2,3.673273325E-2,-5.946636200E-2
7.451433787E2,-2.586865425E-2,-4.565957189E-2,2.066345215E-1
7.456433787E2,-6.586217880E-2,-2.869414687E-1,-1.495265961E-2
7.461433787E2,-7.862091064E-3,-2.452514470E-1,-1.149148941E-1
7.466433787E2,1.713092327E-1,-6.382364035E-2,3.143949509E-1
7.471433787E2,2.029781342E-1,4.998669028E-1,5.813694000E-2
7.476433787E2,-1.127243042E-2,3.765074909E-1,1.705265045E-2
7.481433787E2,9.715938568E-2,1.590021700E-1,2.825737000E-3
7.486433787E2,-4.450201988E-2,4.881319404E-2,1.904773712E-2
7.491433787E2,7.561421394E-2,1.953772008E-1,-1.719522476E-1
7.496433787E2,8.110380173E-2,9.703698754E-2,-7.054519653E-2
7.501433787E2,-9.375500679E-2,2.331081629E-1,1.096725464E-2
7.506433787E2,-6.618189812E-2,6.434500217E-3,-1.105403900E-2
7.511433787E2,1.022624969E-2,4.365932941E-2,-7.412147522E-2
7.516433787E2,6.998705864E-2,-4.271626472E-2,5.637645721E-2
7.521433787E2,-2.787113190E-4,-2.316335440E-1,-1.576805115E-2
7.526433787E2,-5.460953712E-2,-3.802431822E-1,4.658222198E-2
7.531433787E2,1.253476143E-1,-1.533174664E-1,1.006412506E-2
7.536433787E2,-1.649298668E-1,-2.699048817E-2,-9.332942963E-2
7.541433787E2,8.763313293E-2,1.047785394E-2,1.035070419E-1
7.546433787E2,-3.299355507E-2,-8.978828788E-3,-1.415300369E-1
7.551433787E2,7.087469101E-2,7.151302695E-2,-1.225824356E-1
7.556433787E2,6.776046753E-2,2.240182459E-2,8.673095703E-2
7.561433787E2,-5.911016464E-2,7.344025373E-2,2.806663513E-2
7.566433787E2,-9.761238098E-2,-1.669749618E-2,-8.234977722E-3
7.571433787E2,-7.562787533E-1,3.047128022E-1,1.296730042E-1
7.576433787E2,-2.216972113E-1,9.509259462E-2,-1.027393341E-1
7.581433787E2,-3.659319878E-2,9.323984385E-2,-6.862545013E-2
7.586433787E2,-2.848225832E-1,7.691264153E-2,4.125118256E-2
7.591433787E2,-8.910453320E-2,-1.613529325E-1,1.126194000E-2
7.596433787E2,-6.846153736E-2,-3.731054068E-2,-7.420825958E-2
7.601433787E2,5.914342403E-2,-4.809862375E-2,2.352571487E-1
7.606433787E2,-1.296037436E-2,5.585759878E-2,1.081018448E-1
7.611433787E2,-1.804635525E-1,-2.890110016E-2,-2.046499252E-1
7.616433787E2,-1.259973943E-1,1.791441441E-2,-8.179950714E-2
7.621433787E2,-1.613944322E-1,-3.003799915E-2,3.971481323E-2
7.626433787E2,-1.122575328E-1,-4.018390179E-2,5.385398865E-3
7.631433787E2,9.459728003E-2,-8.110725880E-2,3.328037262E-2
7.636433787E2,-1.226861328E-1,-2.228538394E-1,1.836414337E-1
7.641433787E2,-2.507065237E-1,-5.537307262E-2,-2.864837646E-2
7.646433787E2,9.284573048E-2,-1.536241770E-1,-9.556293488E-2
7.651433787E2,1.427455842E-1,-1.385563612E-1,3.651132584E-1
7.656433787E2,-4.212294519E-2,-2.267625928E-1,9.894943237E-2
7.661433787E2,4.999165982E-2,-1.388753057E-1,-7.681274414E-2
7.666433787E2,-5.233118311E-2,3.669321537E-2,8.355522156E-2
7.671433787E2,1.970685273E-2,6.135308743E-2,-2.102327347E-1
7.676433787E2,6.558997929E-2,-1.004933119E-1,1.866674423E-1
7.681433787E2,-8.554289490E-2,-3.668761253E-2,-2.616224289E-1
7.686433787E2,-1.025046557E-1,2.764141560E-2,6.227874756E-2
7.691433787E2,-9.322202951E-2,-1.067715883E-1,-3.475666046E-2
7.696433787E2,-1.014554873E-1,1.403187513E-1,-1.721515656E-1
7.701433787E2,5.740061402E-2,-1.093506813E-2,-3.793535233E-1
7.706433787E2,3.567379713E-1,-2.010220885E-1,1.538496017E-1
7.711433787E2,5.085912943E-1,-2.394318581E-1,-9.791278839E-2
7.716433787E2,4.090431929E-1,-1.616955996E-1,-8.259105682E-2
7.721433787E2,1.356787682E-1,-5.629426241E-2,-2.515888214E-2
7.726433787E2,1.280810833E-1,7.792890072E-3,1.239233017E-1
7.731433787E2,-2.605915070E-4,8.469372988E-3,-6.683254242E-2
7.736433787E2,3.443980217E-2,-2.726912498E-3,2.580928802E-2
7.741433787E2,-4.083132744E-2,-3.523476422E-1,1.172819138E-1
7.746433787E2,1.087403297E-2,-1.838451624E-1,-4.613399506E-2
7.751433787E2,5.496120453E-2,-6.864112616E-2,5.060482025E-2
7.756433787E2,-6.410360336E-3,1.379646361E-1,-2.156066895E-2
7.761433787E2,3.977990150E-2,-9.092244506E-2,6.810951233E-2
7.766433787E2,-2.152657509E-2,-4.294151068E-2,-6.478786469E-2
7.771433787E2,3.199687004E-1,-1.697615981E-1,3.390312195E-3
7.776433787E2,7.222657204E-1,-4.170883894E-1,-5.480585098E-1
7.781433787E2,8.988864422E-1,4.978862703E-1,-3.813238144E-1
7.786433787E2,3.346245289E-1,3.781168461E-1,-8.226013184E-2
7.791433787E2,7.384586334E-2,1.042165160E-1,1.764297485E-4
7.796433787E2,-4.685664177E-2,-3.595677018E-2,5.539798737E-2
7.801433787E2,3.098225594E-2,-7.081910968E-2,-1.243209839E-1
7.806433787E2,-8.026862144E-2,-3.297367692E-2,9.933948517E-2
7.811433787E2,-6.628537178E-2,5.365425348E-2,6.047248840E-3
7.816433787E2,8.166575432E-2,-8.022683859E-2,-2.974796295E-2
7.821433787E2,1.060509682E-1,-6.269633770E-3,-1.283359528E-1
7.826433787E2,-1.365613937E-2,-2.539020777E-2,-2.341279984E-1
7.831433787E2,1.628255844E-1,-8.871001005E-2,2.272739410E-1
7.836433787E2,6.087493896E-2,-6.553536654E-2,4.595375061E-2
7.841433787E2,-2.349052429E-1,3.311789036E-2,-1.582012177E-1
7.846433787E2,-5.429182053E-1,-7.778537273E-2,-8.315658569E-2
7.851433787E2,-3.962438107E-1,-2.760452032E-2,1.112041473E-1
7.856433787E2,-4.323726892E-1,-1.095038652E-2,2.446651459E-2
7.861433787E2,-1.897567511E-1,5.907130241E-2,7.272624969E-2
7.866433787E2,1.125741005E-1,-3.999084234E-2,1.459169388E-1
7.871433787E2,-8.770608902E-2,8.926481009E-2,2.880954742E-2
7.876433787E2,-8.363246918E-2,-1.128670871E-1,-2.969551086E-2
7.881433787E2,-1.830816269E-3,-1.679169685E-1,1.647281647E-2
7.886433787E2,1.024937630E-1,-1.087986976E-1,-1.133356094E-1
7.891433787E2,1.161246300E-1,-4.727505147E-2,6.117820740E-2
7.896433787E2,-3.414988518E-2,-6.462769508E-1,-1.486263275E-1
7.901433787E2,2.057042122E-1,-8.346545696E-1,-1.016969681E-1
7.906433787E2,1.031286716E-1,-2.865949273E-1,2.703762054E-2
7.911433787E2,5.651926994E-2,-3.367947340E-1,-7.224559784E-2
7.916433787E2,-1.373097897E-1,-2.138817310E-2,-6.304645538E-2
7.921433787E2,-1.351046562E-1,1.329153776E-1,4.260730743E-2
7.926433787E2,-3.679251671E-2,2.895541787E-1,5.139350891E-3
7.931433787E2,-1.087334156E-1,-3.305989504E-2,8.086490631E-2
7.936433787E2,9.265661240E-3,9.668546915E-2,-3.953647614E-2
7.941433787E2,-1.331496239E-2,3.535538912E-2,1.554870605E-2
7.946433787E2,-6.260871887E-4,2.707626224E-1,-2.009677887E-2
7.951433787E2,4.378199577E-2,4.104861319E-1,-1.405239105E-2
7.956433787E2,-5.607366562E-3,1.501062363E-1,2.399730682E-2
7.961433787E2,6.806850433E-4,6.581881642E-2,-1.285648346E-2
7.966433787E2,5.702495575E-3,3.082096577E-2,-3.418922424E-3
7.971433787E2,-1.062703133E-2,2.920448780E-3,4.839897156E-3
7.976433787E2,6.963729858E-3,1.917955279E-2,-8.583736420E-2
7.981433787E2,-6.503129005E-2,1.090466976E-4,7.242202759E-3
7.986433787E2,9.157657623E-4,1.586887240E-2,-9.085655212E-3
7.991433787E2,4.199743271E-3,3.873020411E-3,-4.149532318E-2
7.996433787E2,5.718207359E-2,-5.297631025E-3,1.201915741E-2
8.001433787E2,-5.651807785E-2,1.783150434E-2,9.025192261E-2
8.006433787E2,-1.203799248E-2,-4.036563635E-2,-4.891872406E-2
8.011433787E2,2.838349342E-2,-4.455953836E-3,-3.882503510E-2
8.016433787E2,-3.289222717E-3,-1.875758171E-4,2.042865753E-2
8.021433787E2,-2.955651283E-2,-2.906048298E-2,5.039119720E-2
8.026433787E2,2.302837372E-2,8.940964937E-3,-1.582241058E-2
8.031433787E2,1.164674759E-3,-8.480876684E-3,1.042652130E-2
8.036433787E2,2.030754089E-2,-4.865288734E-3,-4.269599915E-3
8.041433787E2,-4.336595535E-3,1.700803638E-2,-1.160240173E-2
8.046433787E2,-6.748676300E-3,3.539532423E-3,-5.963325500E-3
8.051433787E2,-1.354455948E-3,1.156750321E-2,9.727478027E-4
8.056433787E2,-6.947040558E-3,-3.689259291E-3,2.463340759E-3
8.061433787E2,4.261732101E-3,-7.527261972E-3,-1.975059509E-3
8.066433787E2,-8.775472641E-3,-1.836389303E-3,1.353740692E-2
8.071433787E2,3.881454468E-4,4.463165998E-3,7.011413574E-3
8.076433787E2,1.272606850E-2,-1.046150923E-3,1.148700714E-2
8.081433787E2,-2.006769180E-3,-1.141169667E-2,1.700496674E-2
8.086433787E2,-5.789041519E-3,2.937597036E-2,-1.284217834E-2
8.091433787E2,1.775145531E-2,3.033909202E-2,-1.574039459E-2
8.096433787E2,-1.286602020E-2,-9.817868471E-3,2.869606018E-3
8.101433787E2,-1.695489883E-2,-1.424819231E-3,-1.395511627E-2
8.106433787E2,1.252722740E-2,-1.034408808E-2,-4.317283630E-3
8.111433787E2,-9.826183319E-3,-7.794499397E-4,1.752758026E-2
8.116433787E2,4.861116409E-3,-4.052510858E-2,4.575443268E-2
8.121433787E2,2.205896378E-2,7.467100024E-2,-4.170322418E-2
8.126433787E2,-3.263711929E-3,-2.709501982E-2,4.446983337E-3
8.131433787E2,-8.571147919E-4,5.400210619E-1,1.446247101E-2
8.136433787E2,-8.008718491E-3,-4.152059555E-3,1.130962372E-2
8.141433787E2,-4.952716827E-2,3.261922598E-1,-5.352020264E-2
8.146433787E2,2.279782295E-2,1.450316906E-1,-7.372379303E-2
8.151433787E2,1.634454727E-2,-3.505944014E-1,1.797018051E-1
8.156433787E2,4.026846886E-1,2.726042271E-1,-1.053810120E-1
8.161433787E2,3.408300161E0,2.186940908E-1,-3.858795166E-1
8.166433787E2,-2.371843815E0,-1.138491392E0,-5.202007294E-1
8.171433787E2,-4.994520545E-1,5.769840479E-1,-8.518705368E-1
8.176433787E2,-6.961399913E-1,-1.833707213E0,8.638706207E-1
8.181433787E2,-1.021453738E-1,-9.868645668E-2,-7.226343155E-1
8.186433787E2,-1.031603336E0,-5.350338817E-1,-1.569166183E-1
8.191433787E2,-6.689556241E-1,-4.856374860E-1,-1.789379120E-1
8.196433787E2,-4.827452302E-1,-1.893094778E-1,6.112098694E-2
8.201433787E2,-6.467396021E-2,3.496444225E-2,-2.446641922E-1
8.206433787E2,3.885352015E-1,3.663321733E-1,4.261350632E-1
8.211433787E2,3.200829923E-1,3.733947873E-1,4.688549042E-2
8.216433787E2,1.058535129E-1,2.496330142E-1,-7.633113861E-2
8.221433787E2,-4.635661840E-3,1.233100295E-1,3.028583527E-2
8.226433787E2,4.532530904E-2,-9.532159567E-2,-7.901096344E-2
8.231433787E2,-5.464354157E-2,-1.839635968E-1,2.265071869E-1
8.236433787E2,9.666042030E-2,-1.229969263E-1,-4.737854004E-3
8.241433787E2,-3.678701818E-2,-1.944684982E-2,1.922512054E-2
8.246433787E2,-2.133274823E-2,2.921938896E-2,-5.364418030E-3
8.251433787E2,2.590307593E-2,1.596814394E-2,1.107378006E-1
8.256433787E2,1.002086699E-1,-9.783956409E-2,-8.748531342E-2
8.261433787E2,6.335973740E-2,-4.117976129E-2,1.416587830E-1
8.266433787E2,2.730906010E-2,-3.655175865E-2,-7.315158844E-2
8.271433787E2,3.165856004E-2,6.152584404E-2,-8.602046967E-2
8.276433787E2,4.026320577E-2,3.281919658E-2,-6.798648834E-2
8.281433787E2,4.607337713E-2,3.023892641E-2,-1.514434814E-3
8.286433787E2,-5.893108249E-2,2.806708217E-2,-6.091022491E-2
8.291433787E2,6.208348274E-2,-8.820922673E-2,3.508853912E-2
8.296433787E2,-1.513637900E-1,1.386538148E-3,-6.232643127E-2
8.301433787E2,9.262859821E-3,6.964142621E-2,-7.412614822E-1
8.306433787E2,-6.500393152E-3,-1.199285686E-2,4.584369659E-1
8.311433787E2,-5.990526080E-2,-3.745626658E-2,1.788454056E-1
8.316433787E2,-2.008214593E-2,-8.028194308E-3,-1.385946274E-1
8.321433787E2,1.834166050E-2,-1.426639557E-1,2.893400192E-1
8.326433787E2,1.879053414E-1,2.965709567E-2,3.569316864E-1
8.331433787E2,-3.551575541E-2,8.247076720E-2,-1.308927536E-1
8.336433787E2,4.352667928E-2,5.500440300E-2,1.290321350E-3
8.341433787E2,-3.995430470E-2,-2.816654742E-3,4.647254944E-3
8.346433787E2,2.420097589E-2,8.960764110E-2,2.471065521E-2
8.351433787E2,2.741953731E-2,-5.119410157E-2,-2.729988098E-2
8.356433787E2,3.478884697E-3,2.083614469E-2,-3.906250000E-2
8.361433787E2,5.234330893E-2,1.435551047E-2,1.859264374E-1
8.366433787E2,1.333385706E-2,3.557026386E-2,1.382532120E-1
8.371433787E2,4.035902023E-2,1.409763098E-2,-1.538276672E-1
8.376433787E2,-1.020769179E-1,-4.922771454E-2,-2.437877655E-2
8.381433787E2,4.677015543E-2,-2.254186869E-1,3.341960907E-2
8.386433787E2,-1.531219184E-1,-2.318603992E-1,3.129005432E-2
8.391433787E2,3.089898825E-2,2.432201505E-1,4.808044434E-2
8.396433787E2,-8.957606554E-2,3.777682781E-2,1.919269562E-2
8.401433787E2,1.812799573E-1,7.800620794E-2,1.500997543E-1
8.406433787E2,-1.022762060E-2,7.920205593E-3,1.223907471E-1
8.411433787E2,-1.074305475E-1,1.180515885E-1,-2.121829987E-2
8.416433787E2,1.567733288E-2,1.458779871E-1,-6.150150299E-2
8.421433787E2,7.319986820E-3,2.237242311E-1,4.444599152E-2
8.426433787E2,5.804377794E-2,2.157320976E-1,-5.320072174E-2
8.431433787E2,2.306449413E-2,2.925400436E-2,6.495189667E-2
8.436433787E2,1.087242365E-2,-2.431658953E-1,9.066581726E-3
8.441433787E2,-2.896547318E-3,-8.072829247E-2,-2.390480042E-2
8.446433787E2,-4.208531976E-2,-4.832544923E-2,-2.688598633E-2
8.451433787E2,-9.080764651E-2,-7.496678829E-2,-5.874252319E-2
8.456433787E2,-2.708846033E-1,-4.335775971E-2,9.469032288E-2
8.461433787E2,-8.748447895E-2,-4.648923874E-2,8.662033081E-2
8.466433787E2,3.326302767E-2,3.385302424E-2,-6.115245819E-2
8.471433787E2,8.900080621E-2,1.448161900E-2,-7.174587250E-2
8.476433787E2,3.740043342E-1,7.476080954E-2,4.648876190E-2
8.481433787E2,1.680832505E-1,-2.565288544E-2,8.198261261E-2
8.486433787E2,7.221263647E-2,2.930415869E-1,-8.971118927E-2
8.491433787E2,9.142130613E-2,9.484056383E-2,-1.951513290E-1
8.496433787E2,-7.458424568E-2,6.181392074E-2,1.814136505E-1
8.501433787E2,1.495187283E-1,3.027908504E-2,-1.000738144E-1
8.506433787E2,4.211473465E-2,-1.333975941E-1,8.210849762E-2
8.511433787E2,9.252357483E-2,-7.543340325E-3,4.545974731E-2
8.516433787E2,-8.059614897E-2,-1.308779418E-2,5.673694611E-2
8.521433787E2,-1.268273592E-1,1.043708622E-1,-9.322166443E-3
8.526433787E2,8.891969919E-2,4.153427482E-2,-6.675720215E-2
8.531433787E2,-1.264566183E-2,-6.976497173E-2,1.665601730E-1
8.536433787E2,-1.423633099E-1,-6.061080098E-2,6.529521942E-2
8.541433787E2,-5.429023504E-2,-1.123291254E-2,-4.048347473E-3
8.546433787E2,1.092413068E-1,-2.891629934E-2,5.240917206E-2
8.551433787E2,-3.394523263E-2,-9.428501129E-3,6.388568878E-2
8.556433787E2,4.361361265E-2,3.172904253E-3,2.400875092E-2
8.561433787E2,-9.756633639E-2,-2.425303459E-1,1.098680496E-1
8.566433787E2,-1.693866998E-1,-4.411309958E-2,2.027864456E-1
8.571433787E2,8.671373129E-3,-3.731489182E-2,6.453609467E-2
8.576433787E2,-5.252936482E-2,3.593736887E-2,2.075729370E-1
8.581433787E2,5.530059338E-3,-8.498485386E-2,-1.584014893E-1
8.586433787E2,3.208329678E-1,-8.067855239E-2,2.588443756E-1
8.591433787E2,-3.090496659E-1,-3.745588660E-2,1.403274536E-1
8.596433787E2,-6.684240699E-2,-1.519767195E-1,9.345531464E-2
8.601433787E2,2.055586129E-2,5.987808108E-2,-3.279781342E-2
8.606433787E2,-1.051654071E-1,-3.516608477E-1,-6.095600128E-1
8.611433787E2,-1.401810944E-1,7.064849138E-3,3.093261719E-1
8.616433787E2,-1.186198816E-1,-4.613398761E-2,-5.617046356E-2
8.621433787E2,5.064344406E-2,-5.140319839E-2,-1.338815689E-1
8.626433787E2,1.716829464E-2,-2.258677967E-3,2.844142914E-2
8.631433787E2,-7.361467183E-2,-2.163435519E-2,5.850791931E-3
8.636433787E2,6.114272028E-2,-4.395912588E-2,5.103111267E-2
8.641433787E2,3.999739885E-3,-3.151821196E-1,-7.803821564E-2
8.646433787E2,-5.380302668E-3,-1.293683648E-1,-1.127653122E-1
8.651433787E2,3.105838597E-2,1.836343110E-1,-7.550144196E-2
8.656433787E2,-1.112031788E-1,1.356006563E-1,-8.812618256E-2
8.661433787E2,4.900021851E-2,-4.453635216E-2,7.778167725E-2
8.666433787E2,4.003771394E-2,2.028575093E-1,-5.519866943E-3
8.671433787E2,-1.169015840E-2,1.553925872E-1,-2.047252655E-2
8.676433787E2,9.807564318E-3,3.423625976E-2,2.765941620E-2
8.681433787E2,-2.481364459E-2,3.295336664E-2,1.784133911E-2
8.686433787E2,1.017378271E-2,1.647712290E-2,-8.844661713E-2
8.691433787E2,-3.990272991E-3,-2.625946403E-1,1.042547226E-1
8.696433787E2,5.719673634E-2,-4.534411430E-2,1.041698456E-2
8.701433787E2,-1.490331590E-1,-5.836935043E-1,-1.756305695E-1
8.706433787E2,1.444670558E-2,-2.488660812E-1,8.150005341E-2
8.711433787E2,3.567282856E-2,5.837703347E-1,1.668834686E-2
8.716433787E2,7.823953032E-2,4.590177834E-1,5.784893036E-2
8.721433787E2,9.769237041E-2,7.994724810E-2,3.551959991E-2
8.726433787E2,8.817613125E-2,1.661078632E-1,1.337909698E-2
8.731433787E2,1.586419344E-1,8.338646591E-2,-7.493209839E-2
8.736433787E2,7.794606686E-2,8.321374655E-2,-5.774211884E-2
8.741433787E2,2.144337893E-1,3.093302250E-2,-4.566860199E-2
8.746433787E2,2.029320002E-1,1.333630979E-1,4.415225983E-2
8.751433787E2,2.052893639E-1,2.838158607E-2,4.155921936E-2
8.756433787E2,-2.946972847E-2,1.758482456E-1,4.487800598E-2
8.761433787E2,-1.115863323E-1,-1.241938770E-1,-3.572511673E-1
8.766433787E2,6.216459274E-1,-4.885004163E-1,-2.637805939E-1
8.771433787E2,-1.629486084E-1,-1.970035732E-1,1.570520401E-1
8.776433787E2,-2.081567049E-1,-1.908027828E-1,-1.329708099E-1
8.781433787E2,-5.806159973E-2,-3.223967552E-1,-1.617813110E-2
8.786433787E2,-1.178178787E-1,-9.347180128E-1,-8.256816864E-2
8.791433787E2,-3.286358714E-1,-2.637638152E-1,2.665424347E-2
8.796433787E2,-6.334018707E-2,-1.914958656E-1,-4.465675354E-2
8.801433787E2,7.038706541E-2,-1.726651192E-2,3.328418732E-2
8.806433787E2,-1.833313704E-1,6.496524811E-2,7.249355316E-2
8.811433787E2,8.233749866E-2,-1.627235413E-1,-2.956104279E-2
8.816433787E2,-3.647828102E-2,1.602751017E-2,3.904981613E-1
8.821433787E2,-3.899294138E-2,-5.856788158E-2,-3.404903412E-2
8.826433787E2,-3.666132689E-2,-1.426247954E-1,2.792367935E-1
8.831433787E2,-2.417713404E-2,5.069351196E-2,-2.610397339E-2
8.836433787E2,-1.424421072E-1,3.027892113E-2,2.251529694E-2
8.841433787E2,-7.932361960E-2,7.930245996E-2,-2.239255905E-1
8.846433787E2,-9.427278489E-2,2.798965573E-2,-3.266334534E-3
8.851433787E2,-4.252507165E-2,3.141143918E-2,-2.304172516E-2
8.856433787E2,-4.377342016E-2,-7.845342159E-3,1.426315308E-2
8.861433787E2,3.939241916E-2,-2.916278243E-1,1.194000244E-2
8.866433787E2,6.154775620E-4,-1.607012749E-1,-1.350107193E-1
8.871433787E2,-9.368597716E-2,-1.108417273E0,8.349132538E-2
8.876433787E2,1.787843741E-2,-2.043029070E-1,-6.611824036E-3
8.881433787E2,7.849822938E-2,-5.155122280E-2,-3.666973114E-2
8.886433787E2,2.323374711E-2,2.933105230E-1,-5.487442017E-3
8.891433787E2,-3.292794526E-2,3.846439719E-1,7.174491882E-3
8.896433787E2,1.734621674E-1,1.187960386E0,-5.660533905E-2
8.901433787E2,3.921056539E-2,6.023210287E-1,3.060054779E-2
8.906433787E2,-1.914811134E-2,1.689395010E-1,9.832382202E-4
8.911433787E2,3.526467085E-2,9.867441654E-2,-1.133346558E-2
8.916433787E2,9.924635291E-3,-5.027651787E-5,2.085685730E-3
8.921433787E2,1.049771160E-2,-1.641802490E-3,-6.039619446E-3
8.926433787E2,-2.325043827E-2,7.001891732E-3,3.654193878E-2
8.931433787E2,3.848247230E-2,-7.375195622E-3,-9.638786316E-3
8.936433787E2,-8.501507342E-3,-2.045667171E-2,-1.407909393E-2
8.941433787E2,-2.325221896E-3,4.808776081E-3,2.545356750E-3
8.946433787E2,6.603926420E-3,-1.047998667E-3,-8.783340454E-4
8.951433787E2,-1.653864980E-2,-4.772171378E-4,3.150939941E-3
8.956433787E2,1.611202210E-2,3.252975643E-3,-2.848625183E-3
8.961433787E2,1.132541150E-2,4.425540566E-3,-9.708404541E-4
8.966433787E2,-1.485611498E-2,-1.178689301E-2,5.770683289E-3
8.971433787E2,-1.260825992E-2,4.900902510E-3,-1.305103302E-2
8.976433787E2,1.850865036E-2,-1.680180430E-4,2.523422241E-3
8.981433787E2,1.416385919E-2,1.357376575E-3,2.934455872E-3
8.986433787E2,1.316867769E-3,7.438614964E-3,-9.555816650E-3
8.991433787E2,-1.152955741E-2,1.902020127E-1,2.483272552E-2
8.996433787E2,2.266392112E-3,2.092452794E-1,2.791881561E-2
9.001433787E2,-4.322145879E-2,7.338267565E-2,6.968975067E-2
9.006433787E2,4.901996255E-2,2.102479935E-1,-6.822204590E-2
9.011433787E2,-2.659125626E-1,-8.966350555E-2,1.993494034E-1
9.016433787E2,2.152669430E-1,5.125194788E-2,-2.685642242E-2
9.021433787E2,-6.323745847E-2,3.855776787E-2,1.941680908E-2
9.026433787E2,-2.435468286E-1,1.128106117E-1,-2.451467514E-1
9.031433787E2,-3.351375461E-2,-8.231925964E-2,1.068658829E-1
9.036433787E2,-4.964461923E-2,1.060816050E-1,1.629066467E-2
9.041433787E2,-3.784894943E-4,-1.020830274E-1,2.368450165E-2
9.046433787E2,3.754848242E-2,-9.908384085E-2,-7.822608948E-2
9.051433787E2,1.510000229E-2,-2.109373212E-1,2.127428055E-1
9.056433787E2,7.353365421E-3,-1.941343844E-1,1.525878906E-1
9.061433787E2,2.668410540E-2,-4.056352377E-2,6.007480621E-2
9.066433787E2,4.712212086E-2,-7.229745388E-2,3.032779694E-2
9.071433787E2,3.267031908E-2,1.542359591E-2,-2.112436295E-1
9.076433787E2,4.556953907E-3,-1.475516558E-1,2.593421936E-2
9.081433787E2,-3.208088875E-2,-4.795610905E-3,-2.190103531E-1
9.086433787E2,3.068673611E-2,-2.509383857E-1,1.580928802E0
9.091433787E2,-1.409751773E-1,1.670104265E-2,-1.696114540E0
9.096433787E2,-1.271341443E-1,-2.726152241E-1,-1.033658981E-1
9.101433787E2,-1.262553632E-1,-2.439833283E-1,1.767024994E-1
9.106433787E2,-3.714144230E-3,-4.491481185E-2,-1.265621185E-2
9.111433787E2,-3.185895085E-2,-5.146339536E-1,7.569217682E-2
9.116433787E2,2.001047134E-3,-2.291676700E-1,1.899652481E-1
9.121433787E2,-3.087216616E-2,-6.844758987E-2,-4.193210602E-2
9.126433787E2,1.214248538E-1,7.795193791E-2,-1.434297562E-1
9.131433787E2,-5.433285236E-2,3.774046898E-3,-4.673004150E-4
9.136433787E2,4.700499773E-2,1.127332449E-2,2.383327484E-2
9.141433787E2,8.314305544E-2,5.275022984E-2,-2.397260666E-1
9.146433787E2,-6.663990021E-2,1.689206064E-1,5.979919434E-2
9.151433787E2,-1.305309534E-1,1.054997742E-1,-1.504888535E-1
9.156433787E2,-3.925132751E-2,-2.867555618E-2,-1.846475601E-1
9.161433787E2,1.211687326E-1,1.168004870E-1,3.963470459E-3
9.166433787E2,-5.052006245E-2,4.387541115E-1,-9.784145355E-1
9.171433787E2,2.885913849E-2,2.077526450E-1,8.337678909E-1
9.176433787E2,-5.649170280E-1,4.880964756E-3,-8.212060928E-1
9.181433787E2,2.929915786E-1,-2.158385515E-1,1.963303566E0
9.186433787E2,-2.405676842E-1,3.065294623E-1,-1.143897057E0
9.191433787E2,-7.340621948E-2,2.033185959E-2,2.868566513E-1
9.196433787E2,2.291977406E-3,2.215820551E-2,-1.760606766E-1
9.201433787E2,3.599941730E-3,1.249161363E-1,1.463413239E-2
9.206433787E2,-2.258469760E-1,9.979772568E-2,2.810001373E-1
9.211433787E2,1.913394928E-1,-1.325102448E-1,-2.419319153E-1
9.216433787E2,1.230044961E-1,1.508938074E-1,2.307739258E-1
9.221433787E2,-3.431826830E-2,-2.821922302E-3,1.031036377E-1
9.226433787E2,-2.800184488E-2,1.388102770E-2,4.271030426E-2
9.231433787E2,-4.243218899E-2,2.963215113E-2,-1.092252731E-1
9.236433787E2,1.053641438E-1,-4.208487272E-2,2.211074829E-1
9.241433787E2,5.516737700E-2,-1.011478901E-2,-4.945087433E-2
9.246433787E2,-1.338386536E-2,-6.082952023E-3,2.980327606E-2
9.251433787E2,-9.472495317E-2,-3.056112528E-1,-2.553844452E-2
9.256433787E2,-5.521219969E-2,-3.102219105E-2,-1.121330261E-1
9.261433787E2,1.894563437E-2,-2.393734455E-2,4.617404938E-2
9.266433787E2,3.730618954E-2,-1.936233044E-2,1.692914963E-1
9.271433787E2,-9.362578392E-3,-3.097475767E-1,-6.813049316E-2
9.276433787E2,-2.040177584E-2,2.063634396E-1,-8.188056946E-2
9.281433787E2,3.582417965E-3,4.491102695E-2,-4.428386688E-2
9.286433787E2,-4.037642479E-2,-2.534042597E-1,-7.582950592E-2
9.291433787E2,-2.923840284E-2,3.283069730E-1,-7.845973969E-2
9.296433787E2,7.359892130E-2,-2.856874466E-2,-4.508018494E-2
9.301433787E2,1.012056470E-1,-1.693900824E-1,-8.867931366E-2
9.306433787E2,9.949111938E-2,8.903157711E-2,9.702396393E-2
9.311433787E2,5.913150311E-2,-1.208519936E-2,-5.063724518E-2
9.316433787E2,1.063021421E-1,-1.591358185E-1,-1.552076340E-1
9.321433787E2,7.482802868E-2,6.198596954E-2,6.680011749E-2
9.326433787E2,1.183450222E-1,-2.929985523E-2,-3.528594971E-4
9.331433787E2,2.436337471E0,-1.534815550E0,-2.191781998E-1
9.336433787E2,-5.563070774E-1,7.293323278E-1,-4.763126373E-1
9.341433787E2,-3.544362187E-1,4.309952259E-1,-1.109552383E-1
9.346433787E2,-1.194058180E0,1.212687492E-1,-1.013956070E-1
9.351433787E2,-1.421048641E-1,4.038331509E-1,-2.817153931E-1
9.356433787E2,-4.641158283E-1,2.249269485E-1,6.075859070E-2
9.361433787E2,-2.794314623E-1,1.668081284E-1,-9.961986542E-2
9.366433787E2,-2.658345699E-1,1.188349724E-2,2.375411987E-2
9.371433787E2,-1.461267471E-1,2.156569958E-1,-1.814451218E-1
9.376433787E2,-1.387586594E-1,-6.342840195E-2,4.660987854E-1
9.381433787E2,-3.022922277E-1,-1.442141533E-1,1.343755722E-1
9.386433787E2,-1.305853128E-1,-6.410408020E-2,4.317693710E-1
9.391433787E2,-8.203494549E-2,-3.337216377E-1,-1.557941437E-1
9.396433787E2,-1.859664917E-5,-5.027137995E-1,3.213396072E-1
9.401433787E2,1.655056477E-1,-4.973465204E-1,-2.734708786E-1
9.406433787E2,2.606153488E-3,-2.006394863E-1,-1.925554276E-1
9.411433787E2,1.378500462E-2,-2.613353729E-1,8.541870117E-2
9.416433787E2,7.576429844E-2,-1.825381517E-1,-1.904087067E-1
9.421433787E2,-1.115194559E-1,1.408159733E-3,1.933822632E-1
9.426433787E2,1.215552092E-1,2.496814728E-2,-6.299018860E-3
9.431433787E2,-1.984369755E-2,5.911922455E-2,7.004356384E-2
9.436433787E2,-9.065318108E-2,-1.349863410E-1,-2.030086517E-2
9.441433787E2,-1.151959896E-1,-4.343205690E-2,-1.123800278E-1
9.446433787E2,-1.957089901E-1,-1.485454440E-1,2.032375336E-2
9.451433787E2,2.513830662E-1,-1.929783821E-2,-4.541110992E-2
9.456433787E2,-1.838853359E-1,2.777302265E-2,1.771020889E-1
9.461433787E2,-1.095612049E-1,1.739859581E-3,-1.116857529E-1
9.466433787E2,-3.125107288E-1,-8.727347851E-2,-1.140995026E-1
9.471433787E2,-1.112697124E-1,2.396488190E-2,-2.474222183E-1
9.476433787E2,-2.701561451E-1,-7.589473724E-1,2.244205475E-1
9.481433787E2,1.076104522E0,7.277989388E-2,2.504482269E-1
9.486433787E2,2.622568607E-1,-3.562533855E-1,2.790470123E-1
9.491433787E2,2.892090082E-1,-7.614302635E-2,6.615543365E-2
9.496433787E2,1.971575022E-1,-4.446172714E-2,2.089786530E-1
9.501433787E2,-7.271301746E-2,-1.168208122E-1,7.806015015E-2
9.506433787E2,-2.810876369E-1,-2.142612934E-1,1.036729813E-1
9.511433787E2,1.278893948E-1,3.301167488E-2,1.901655197E-1
9.516433787E2,3.367381096E-1,6.241717339E-1,-3.669538498E-1
9.521433787E2,4.024711847E-1,3.640940189E-1,-5.578994751E-2
9.526433787E2,2.455241680E-1,3.548920155E-1,-1.529684067E-1
9.531433787E2,1.332013607E-1,2.523627281E-1,-7.896423340E-3
9.536433787E2,1.317353845E-1,-2.395629883E-2,-1.130876541E-1
9.541433787E2,5.275636911E-2,-8.767271042E-2,-1.656160355E-1
9.546433787E2,8.926099539E-2,-8.809804916E-2,1.972274780E-1
9.551433787E2,1.909631491E-2,-1.405522823E-1,4.576969147E-1
9.556433787E2,-2.578616142E-1,-1.103863716E-1,3.454246521E-1
9.561433787E2,-8.241534233E-4,-3.803324699E-2,-9.826946259E-2
9.566433787E2,4.116594791E-2,-1.195571423E-1,-7.369709015E-2
9.571433787E2,5.580842495E-3,-6.006002426E-2,5.178928375E-2
9.576433787E2,2.012777328E-2,-1.404887438E-1,1.239299774E-2
9.581433787E2,-1.833832264E-2,-6.288671494E-2,-1.240110397E-1
9.586433787E2,-6.977689266E-2,8.932900429E-2,5.287742615E-2
9.591433787E2,3.495109081E-2,1.064264774E-1,-4.689121246E-2
9.596433787E2,-5.419361591E-2,-6.132626534E-2,4.386043549E-2
9.601433787E2,8.560037613E-2,2.865624428E-2,1.846246719E-1
9.606433787E2,-1.658085585E-1,-1.481934786E-1,4.169435501E-1
9.611433787E2,9.484732151E-2,-8.251464367E-2,-3.189687729E-1
9.616433787E2,-5.215048790E-3,-2.246069908E-2,-5.849838257E-3
9.621433787E2,3.715705872E-2,2.997517586E-3,6.477260590E-2
9.626433787E2,3.498625755E-2,2.355313301E-2,-2.466650009E-1
9.631433787E2,-6.552767754E-2,-2.576971054E-2,-1.193494797E-1
9.636433787E2,-9.478867054E-2,-4.288101196E-2,3.727912903E-2
9.641433787E2,4.367697239E-2,-7.692468166E-2,-1.939487457E-2
9.646433787E2,5.125916004E-2,-4.588258266E-2,2.405166626E-3
9.651433787E2,-6.733411551E-2,-6.584405899E-3,1.630115509E-2
9.656433787E2,-5.949521065E-2,4.231917858E-2,9.408664703E-2
9.661433787E2,6.051951647E-2,-7.773101330E-2,-8.832359314E-2
9.666433787E2,-1.254403591E-2,2.723463774E-1,-1.278009415E-1
9.671433787E2,-5.434751511E-4,-5.708812475E-1,-3.037767410E-1
9.676433787E2,9.244012833E-2,-1.622722149E-1,-1.581850052E-1
9.681433787E2,3.059867024E-1,-3.365008831E-1,-1.921520233E-1
9.686433787E2,-1.223148108E-1,-1.276593208E-1,-2.752590179E-2
9.691433787E2,-3.589415550E-2,1.354265213E-2,-2.455711365E-3
9.696433787E2,3.911221027E-2,9.239006042E-2,1.437854767E-2
9.701433787E2,-6.146550179E-2,2.314581871E-1,-1.189471245E0
9.706433787E2,-1.851212978E-1,-1.535516977E-1,4.084367752E-1
9.711433787E2,8.711978197E-1,-1.670536995E-1,-1.543146133E0
9.716433787E2,3.147200942E-1,1.031732559E-2,1.480725288E0
9.721433787E2,1.385403872E-1,4.577958584E-2,1.780490875E-1
9.726433787E2,-4.295897484E-2,5.924844742E-2,-3.186273575E-1
9.731433787E2,-2.393054962E-2,3.723311424E-2,-8.490562439E-3
9.736433787E2,-4.063427448E-2,3.358733654E-2,-7.448387146E-2
9.741433787E2,-4.541099072E-2,2.927386761E-2,-4.898738861E-2
9.746433787E2,1.139771938E-2,4.117083549E-2,-1.734066010E-2
9.751433787E2,6.298339367E-2,-7.045269012E-4,1.494741440E-1
9.756433787E2,-1.149618626E-2,2.676784992E-2,-5.983829498E-2
9.761433787E2,1.252646446E-1,1.675367355E-2,-1.457853317E-1
9.766433787E2,-4.089486599E-2,1.205255985E-1,7.586288452E-2
9.771433787E2,7.022011280E-2,1.329183578E-3,-5.114555359E-3
9.776433787E2,2.724230289E-2,-1.297092438E-2,4.760265350E-2
9.781433787E2,4.774487019E-2,1.042699814E-1,2.022552490E-1
9.786433787E2,-2.355694771E-3,1.417458057E-2,-1.134290695E-1
9.791433787E2,-1.835249662E-1,9.089601040E-2,1.623802185E-1
9.796433787E2,-4.147231579E-2,2.496290207E-2,3.057260513E-1
9.801433787E2,1.696622372E-2,-3.881573677E-2,2.433490753E-2
9.806433787E2,1.676440239E-3,-1.133635044E-1,-9.655284882E-2
9.811433787E2,2.244436741E-2,-9.831881523E-2,-9.875392914E-2
9.816433787E2,-5.062294006E-2,-9.582388401E-2,1.376724243E-2
9.821433787E2,6.788003445E-2,-8.137571812E-2,5.867385864E-2
9.826433787E2,4.715168476E-2,-5.270707607E-2,1.356172562E-1
9.831433787E2,-5.723035336E-2,1.572903395E-1,2.280387878E-1
9.836433787E2,-7.693818808E-1,-3.883084059E-1,4.972257614E-1
9.841433787E2,-6.844019890E-1,-1.144666672E-1,-5.703706741E-1
9.846433787E2,-8.649365902E-1,-1.068673134E-1,-4.536914825E-2
9.851433787E2,-5.912911892E-1,1.644102335E-1,-3.002901077E-1
9.856433787E2,-4.396843910E-1,6.075465679E-2,-2.777290344E-2
9.861433787E2,-1.252686977E-1,-2.226145267E-1,-2.664089203E-2
9.866433787E2,-9.463286400E-2,-1.941332817E-1,-1.187992096E-2
9.871433787E2,-1.039855480E-1,-1.369237900E-1,2.360143661E-1
9.876433787E2,2.098000050E-1,-7.279098034E-2,-8.317852020E-2
9.881433787E2,5.846261978E-2,-4.378428459E-1,1.825437546E-1
9.886433787E2,4.107522964E-1,-1.527713537E-1,-1.311635971E-1
9.891433787E2,8.596965075E-1,-1.172802448E-1,-1.253805161E-1
9.896433787E2,6.456996202E-1,-2.778363228E-2,2.186756134E-1
