"Time (s)","Acceleration x (m/s^2)","Acceleration y (m/s^2)","Acceleration z (m/s^2)"
7.667667000E-3,2.083550215E0,6.015556335E0,6.460621357E0
2.867412500E-2,2.145763636E0,6.088537216E0,6.090332031E0
5.286741250E-1,8.715856552E0,1.464407444E0,6.294918060E0
1.028674125E0,7.722237110E0,-1.174277663E0,2.872583628E0
1.528674125E0,9.261420250E0,-6.041877344E-2,1.797608018E0
2.028674125E0,1.002293587E1,1.674975902E-1,6.161518097E-1
2.528674125E0,9.394221306E0,7.477571070E-2,3.188436031E-1
3.028674125E0,9.439086914E0,-1.316052489E-2,1.038485050E0
3.528674125E0,9.975079536E0,6.508477330E-1,3.780659735E-1
4.028674125E0,9.828518867E0,2.045863420E-1,5.617151260E-1
4.528674125E0,9.933204651E0,4.486542568E-2,1.228116274E0
5.028674125E0,9.900303841E0,2.985046208E-1,8.578268886E-1
5.528674125E0,9.820143700E0,4.893322289E-1,9.074779749E-1
6.028674125E0,9.890732765E0,5.886343718E-1,5.102694035E-1
6.528674125E0,9.677771568E0,5.347958803E-1,4.271188378E-1
7.028674125E0,9.633503914E0,6.161518097E-1,6.652047038E-1
7.528674125E0,1.010429192E1,4.277170599E-1,7.148557901E-1
8.028674125E0,9.687342644E0,5.730810165E-1,7.932206988E-1
8.528674125E0,9.676574707E0,7.722834945E-1,3.936193287E-1
9.028674125E0,9.787840843E0,5.760720372E-1,8.488538265E-1
9.528674125E0,9.391230583E0,2.285145670E-1,1.495514214E-1
1.002867412E1,9.722636223E0,7.764709592E-1,-2.039881349E-1
1.052867412E1,9.138788223E0,-2.075773627E-1,-1.174277663E0
1.102867412E1,1.025264645E1,3.170489892E-2,-1.242473125E0
1.152867412E1,9.604789734E0,1.100698411E-1,-1.713261008E0
1.202867412E1,9.187242508E0,1.068993568E0,-2.291127682E0
1.252867412E1,9.199206352E0,4.755735099E-1,-2.214557409E0
1.302867412E1,9.647860527E0,1.773679733E0,-2.461018085E0
1.352867412E1,9.086744308E0,1.695314884E0,-2.090130568E0
1.402867412E1,9.826724052E0,1.427318692E0,-2.794816732E0
1.452867412E1,1.002233791E1,1.662413478E0,-2.053041935E0
1.502867412E1,9.516854286E0,1.447059512E0,-1.630110383E0
1.552867412E1,9.687940598E0,1.552343726E0,-9.140582681E-1
1.602867413E1,9.373882294E0,1.386042476E0,-5.706881881E-1
1.652867413E1,1.092263699E1,2.255833626E0,2.997010350E-1
1.702867413E1,1.002233791E1,1.397408366E0,6.346961856E-1
1.752867413E1,9.560523033E0,6.059823632E-1,8.135597110E-1
1.802867413E1,9.468997002E0,6.089733839E-1,9.726824164E-1
1.852867413E1,1.040997505E1,5.551348329E-1,1.793420553E0
1.902867413E1,9.799206734E0,4.564309120E-1,2.147558212E0
1.952867413E1,9.616155624E0,-8.255238086E-2,9.511470199E-1
2.002867413E1,9.941579819E0,-3.128615618E-1,1.392622828E0
2.052867413E1,8.826524734E0,-4.133601189E-1,2.021337032E0
2.102867413E1,9.591629982E0,-5.934200287E-1,1.587637782E0
2.152867413E1,9.762716293E0,-3.367897868E-1,4.785645306E-1
2.202867413E1,1.042193890E1,-4.911268353E-1,2.096112728E0
2.252867413E1,9.445667267E0,-4.959124923E-1,-2.859423161E-1
2.302867413E1,1.002413273E1,-1.371685624E0,-5.790630579E-1
2.352867413E1,9.969695091E0,-2.301895380E0,7.387840152E-1
2.402867413E1,9.616155624E0,-2.247458696E0,-3.876372576E-1
2.452867413E1,9.415159225E0,-2.214557409E0,2.075773627E-1
2.502867413E1,9.053244591E0,-2.277967215E0,4.175475538E-1
2.552867413E1,1.017069244E1,-3.022733212E0,4.612165689E-1
2.602867413E1,9.805787086E0,-1.250249863E0,-1.190429211E0
2.652867413E1,1.072163963E1,-3.409772217E-1,-6.382854581E-1
2.702867413E1,9.445667267E0,1.872383714E0,2.100898266E0
2.752867413E1,5.951548100E0,-9.822536707E-1,6.169893265E0
2.802867413E1,6.280561447E0,9.296116233E-1,6.985247612E0
2.852867413E1,7.311269760E0,1.101894855E0,8.344968796E0
2.902867413E1,5.262415409E0,1.266401410E0,8.391031265E0
2.952867413E1,4.634299278E0,9.954141974E-1,7.696514130E0
3.002867413E1,3.614956856E0,-6.251249313E-1,9.598808289E0
3.052867413E1,6.479763508E0,5.730810165E-1,7.013961315E0
3.102867413E1,2.254039049E0,-9.667003751E-1,1.098006535E1
3.152867413E1,4.016951084E0,9.523434043E-1,1.145025444E1
3.202867412E1,3.511467278E-1,-9.224331379E-1,8.896514893E0
3.252867412E1,9.343972206E-1,-7.387840152E-1,9.711270332E0
3.302867412E1,1.941177368E0,-4.965106845E-1,9.904491425E0
3.352867412E1,2.506481647E0,-7.351947427E-1,1.064507008E1
3.402867412E1,3.719642878E0,-8.739784956E-1,9.716055870E0
3.452867412E1,4.616353035E0,-1.852044702E0,9.545567513E0
3.502867412E1,3.105883837E0,-9.936196208E-1,9.169296265E0
3.552867412E1,3.326023579E0,-1.161715388E0,9.404989243E0
3.602867412E1,4.093521118E0,-1.611566067E0,8.739784241E0
3.652867412E1,5.505286694E0,-1.554138303E0,9.790233612E0
3.702867412E1,2.525624275E0,-1.494915962E0,7.961519241E0
3.752867412E1,3.456432343E0,-1.818545222E0,8.096115112E0
3.802867412E1,4.019941807E0,-1.639681697E0,8.563314438E0
3.852867412E1,4.642076015E0,-1.290927768E0,8.803792953E0
3.902867412E1,3.577867985E0,-1.903490424E0,8.752944946E0
3.952867412E1,5.723631859E0,-1.202393413E0,9.100502968E0
4.002867412E1,4.515854359E0,-1.423131227E0,8.760722160E0
4.052867412E1,4.889134884E0,-1.360319614E0,8.483752251E0
4.102867412E1,3.135794163E0,-1.673181176E0,8.711668968E0
4.152867412E1,3.972085476E0,-1.917847395E0,8.868997574E0
4.202867412E1,4.128217220E0,-1.716850281E0,8.313861847E0
4.252867412E1,2.054836512E0,-2.037488461E0,7.347760201E0
4.302867412E1,3.601796389E0,-1.633101463E0,9.989436150E0
4.352867412E1,3.415754318E0,-2.158325911E0,9.064012527E0
4.402867412E1,4.190430641E0,-1.912463546E0,9.981060982E0
4.452867412E1,3.212364435E0,-1.896910191E0,8.708079338E0
4.502867412E1,3.426522017E0,-2.480758905E0,8.662017822E0
4.552867412E1,4.130012035E0,-2.475374937E0,9.517452240E0
4.602867412E1,3.099901676E0,-2.694318295E0,9.687342644E0
4.652867412E1,5.886343479E0,-1.445264935E0,9.833304405E0
4.702867412E1,3.962514400E0,-2.166700840E0,9.181859016E0
4.752867412E1,2.287538528E0,-2.196611166E0,8.612366676E0
4.802867412E1,1.491924882E0,-1.882553220E0,9.401998520E0
4.852867412E1,1.208973646E0,-1.791625977E0,9.701699257E0
4.902867412E1,1.973480463E0,-1.740778446E0,9.942776680E0
4.952867412E1,1.278963685E0,-1.925025821E0,9.156734467E0
5.002867412E1,6.173482537E-1,-1.992024899E0,9.014361382E0
5.052867412E1,-2.219343036E-1,-1.872383714E0,8.518448830E0
5.102867412E1,7.716853023E-1,-1.923829436E0,9.622735977E0
5.152867412E1,3.170489967E-1,-1.794616938E0,9.306285858E0
5.202867412E1,1.146760225E0,-2.142772675E0,1.071326542E1
5.252867412E1,2.226521492E0,-2.123630047E0,1.044048309E1
5.302867412E1,2.434697151E0,-1.815554142E0,9.848857880E0
5.352867412E1,2.113460541E0,-2.348555326E0,8.818747520E0
5.402867412E1,3.683750391E0,-2.774477959E0,9.833304405E0
5.452867412E1,2.693121910E0,-3.519243956E0,9.290133476E0
5.502867412E1,2.582453728E0,-3.457030535E0,8.172685623E0
5.552867412E1,3.138186932E0,-3.281756163E0,8.669795036E0
5.602867412E1,4.034298897E0,-3.306880951E0,8.727222443E0
5.652867412E1,4.069592953E0,-2.061416626E0,8.794819832E0
5.702867412E1,3.090330362E0,-2.171486616E0,8.318648338E0
5.752867412E1,3.232105255E0,-2.040479422E0,8.182256699E0
5.802867412E1,4.070789337E0,-1.947757602E0,9.250652313E0
5.852867412E1,4.184448719E0,-1.343569875E0,8.078168869E0
5.902867412E1,4.308875561E0,-2.024327993E0,9.057432175E0
5.952867412E1,5.136792183E0,-1.379462242E0,9.113663673E0
6.002867412E1,2.836691141E0,-1.791625977E0,8.145168304E0
6.052867412E1,4.707280159E0,-1.515254974E0,9.499505997E0
6.102867412E1,4.749154568E0,-1.287338614E0,8.099106789E0
6.152867412E1,3.898506403E0,-1.518245935E0,8.430512428E0
6.202867412E1,6.394818306E0,-1.013360381E0,9.883553505E0
6.252867412E1,3.299104214E0,-1.855633974E0,8.944371223E0
6.302867412E1,4.935196877E0,-8.919246197E-1,7.969893932E0
6.352867412E1,4.226921082E0,-1.571486235E0,7.837690353E0
6.402867413E1,5.139782906E0,-1.536192179E0,8.167900085E0
6.452867413E1,3.595216036E0,-2.120040894E0,8.870791435E0
6.502867413E1,4.635495663E0,-1.703689694E0,8.424530029E0
6.552867413E1,3.695714474E0,-1.619342685E0,8.564510345E0
6.602867413E1,4.727021217E0,-1.800599098E0,9.401998520E0
6.652867413E1,2.930011272E0,-1.089930773E0,8.338388443E0
6.702867413E1,3.068794966E0,-1.469193101E0,9.064012527E0
6.752867413E1,3.308077335E0,-1.711466432E0,9.262018204E0
6.802867413E1,2.736192703E0,-2.090130568E0,8.705088615E0
6.852867413E1,3.801596880E0,-1.356132269E0,8.759525299E0
6.902867413E1,1.831705689E0,-1.652842283E0,7.902894974E0
6.952867413E1,4.043870449E0,-1.872383714E0,8.685946465E0
7.002867413E1,2.694318295E0,-1.731207132E0,9.351150513E0
7.052867413E1,3.114258766E0,-1.817348838E0,1.023948669E1
7.102867413E1,2.745165825E0,-1.716850281E0,8.709874153E0
7.152867413E1,4.307080746E0,-1.231107235E0,9.595218658E0
7.202867413E1,3.359523058E0,-1.695314884E0,8.711668968E0
7.252867413E1,2.251047850E0,-2.148754835E0,8.501100540E0
7.302867413E1,3.820141315E0,-1.962114573E0,1.002712345E1
7.352867413E1,2.733799934E0,-2.169692039E0,8.596813202E0
7.402867413E1,4.115654945E0,-2.073979139E0,8.668000221E0
7.452867413E1,1.914258122E0,-2.027318954E0,8.447860718E0
7.502867413E1,2.901895761E0,-2.309672117E0,8.670392990E0
7.552867413E1,3.469592810E0,-2.359323025E0,9.937990189E0
7.602867413E1,2.758326292E0,-2.099103689E0,7.976474285E0
7.652867413E1,3.537788391E0,-2.425125837E0,9.623932838E0
7.702867413E1,3.457030535E0,-2.434098721E0,8.928817749E0
7.752867413E1,1.970489502E0,-2.480758905E0,8.853444099E0
7.802867413E1,2.877967358E0,-3.193221807E0,9.266205788E0
7.852867413E1,2.193620205E0,-3.449253798E0,8.196614265E0
7.902867413E1,2.467598438E0,-3.363112211E0,8.349156380E0
7.952867413E1,1.228116274E0,-4.176671982E0,6.000002861E0
8.002867413E1,3.659224033E0,-3.719642878E0,9.443274498E0
8.052867413E1,3.370290756E0,-3.205185890E0,9.056235313E0
8.102867413E1,1.867598057E0,-4.361517429E0,7.962117195E0
8.152867413E1,2.422732830E0,-3.884747505E0,8.038687706E0
8.202867413E1,2.662613392E0,-3.788436413E0,8.898308754E0
8.252867413E1,2.226521492E0,-4.329812527E0,8.577671051E0
8.302867413E1,2.821736097E0,-3.320041418E0,8.799605370E0
8.352867413E1,2.281556368E0,-3.520440340E0,8.633303642E0
8.402867413E1,3.963710785E0,-3.067598581E0,1.005284595E1
8.452867413E1,2.595016241E0,-3.365504980E0,8.514859200E0
8.502867413E1,2.483749866E0,-4.077369690E0,8.593224525E0
8.552867413E1,2.606382132E0,-4.007379532E0,8.784649849E0
8.602867413E1,2.906681299E0,-3.866801500E0,9.058030128E0
8.652867413E1,2.777468920E0,-3.811168194E0,8.794221878E0
8.702867413E1,3.024527788E0,-3.203391314E0,8.763712883E0
8.752867413E1,3.001796007E0,-3.391227961E0,8.821739197E0
8.802867413E1,2.790031195E0,-3.568296671E0,8.697312355E0
8.852867413E1,2.894119024E0,-3.439084291E0,8.821739197E0
8.902867413E1,2.960519791E0,-3.025724173E0,8.842078209E0
8.952867413E1,3.447459221E0,-2.568695068E0,9.034101486E0
9.002867413E1,3.338585854E0,-2.233700037E0,8.907880783E0
9.052867413E1,3.324228764E0,-2.236092806E0,9.159725189E0
9.102867413E1,3.434896946E0,-2.282752752E0,9.033503532E0
9.152867413E1,3.448655605E0,-2.290529490E0,9.064012527E0
9.202867413E1,3.564109325E0,-2.249253273E0,9.050851822E0
9.252867413E1,3.595216036E0,-2.270190477E0,9.204590797E0
9.302867413E1,3.504886866E0,-2.242672920E0,8.984451294E0
9.352867413E1,3.430111170E0,-2.149951220E0,8.995218277E0
9.402867413E1,3.359523058E0,-2.204387903E0,9.093922615E0
9.452867413E1,3.518645763E0,-2.207977057E0,9.124430656E0
9.502867413E1,3.616751432E0,-2.132603168E0,9.043074608E0
9.552867413E1,3.592225075E0,-2.078764677E0,9.067601204E0
9.602867413E1,3.635295868E0,-2.254039049E0,8.979664803E0
9.652867413E1,3.492324591E0,-2.271386862E0,9.029315948E0
9.702867413E1,3.583251953E0,-2.143969059E0,9.065806389E0
9.752867413E1,3.425325632E0,-2.166102648E0,9.108279228E0
9.802867413E1,3.521038532E0,-2.399402857E0,9.074779510E0
9.852867413E1,3.550948858E0,-2.033899307E0,9.041280746E0
9.902867413E1,3.274577856E0,-2.181057930E0,8.764310837E0
9.952867413E1,4.083950043E0,-1.968096614E0,8.491529465E0
1.000286741E2,3.690928936E0,-2.277967215E0,9.340383530E0
1.005286741E2,3.737588882E0,-2.009970903E0,8.987442017E0
1.010286741E2,3.913461447E0,-2.213959217E0,8.853444099E0
1.015286741E2,3.613162279E0,-2.181057930E0,9.239286423E0
1.020286741E2,3.783650875E0,-2.209173441E0,8.991030693E0
1.025286741E2,3.733999729E0,-1.980060697E0,8.976076126E0
1.030286741E2,3.588037491E0,-2.173879385E0,9.122636795E0
1.035286741E2,3.544368505E0,-2.172683001E0,9.074779510E0
1.040286741E2,3.725026608E0,-2.207378864E0,9.103493690E0
1.045286741E2,3.728017569E0,-2.017747641E0,9.070592880E0
1.050286741E2,3.697509289E0,-2.209771633E0,9.093922615E0
1.055286741E2,3.814159393E0,-2.056631088E0,9.008378983E0
1.060286741E2,3.649652719E0,-2.017747641E0,9.059226990E0
1.065286741E2,3.535395384E0,-2.042274237E0,9.079565048E0
1.070286741E2,3.627519131E0,-2.193022013E0,9.096315384E0
1.075286741E2,3.667598963E0,-2.003390789E0,9.151947975E0
1.080286741E2,3.738785267E0,-2.029113531E0,9.153144836E0
1.085286741E2,3.687937975E0,-2.011167526E0,9.084949493E0
1.090286741E2,3.601796389E0,-2.027318954E0,9.126225471E0
1.095286741E2,3.653241873E0,-2.003390789E0,8.955139160E0
1.100286741E2,3.661018610E0,-2.217548370E0,9.089137077E0
1.105286741E2,3.637090445E0,-2.142174482E0,9.141778946E0
1.110286741E2,3.522234917E0,-2.099103689E0,9.194420815E0
1.115286741E2,3.640081406E0,-2.170888424E0,9.022137642E0
1.120286741E2,3.704089403E0,-2.147558212E0,8.953942299E0
1.125286741E2,3.533002615E0,-1.990828395E0,8.969495773E0
1.130286741E2,3.454039574E0,-2.204986095E0,9.113064766E0
1.135286741E2,3.573680639E0,-2.216950178E0,9.168100357E0
1.140286741E2,3.662813187E0,-2.160120726E0,9.124430656E0
1.145286741E2,3.501895905E0,-2.067398787E0,9.007781029E0
1.150286741E2,3.506083488E0,-2.117049932E0,9.052646637E0
1.155286741E2,3.622733593E0,-2.126621008E0,8.947959900E0
1.160286741E2,3.327219963E0,-2.121237278E0,9.081958771E0
1.165286741E2,3.364308596E0,-2.228316069E0,9.083154678E0
1.170286741E2,3.399602890E0,-2.100898266E0,9.058030128E0
1.175286741E2,3.496512175E0,-2.061416626E0,9.043074608E0
1.180286741E2,3.582653761E0,-2.219342947E0,9.017950058E0
1.185286741E2,3.410370588E0,-2.193620205E0,8.992227554E0
1.190286741E2,3.372683525E0,-2.150549412E0,8.995218277E0
1.195286741E2,3.563511133E0,-2.056631088E0,9.061020851E0
1.200286741E2,3.409173965E0,-2.207977057E0,9.167501450E0
1.205286741E2,3.446861029E0,-2.110469580E0,8.985647202E0
1.210286741E2,3.482155085E0,-2.170888424E0,9.148957253E0
1.215286741E2,3.539582968E0,-2.226521492E0,8.964710236E0
1.220286741E2,3.619144201E0,-2.167897224E0,9.029315948E0
1.225286741E2,3.635894060E0,-2.061416626E0,9.050851822E0
1.230286741E2,3.413959742E0,-2.190629244E0,9.141778946E0
1.235286741E2,3.287738323E0,-2.228316069E0,9.016156197E0
1.240286741E2,3.697509289E0,-1.750349760E0,9.097511292E0
1.245286741E2,3.906881094E0,-1.383051515E0,9.180662155E0
1.250286741E2,4.080360889E0,-3.954139352E-1,9.033503532E0
1.255286741E2,3.943371773E0,-8.901300430E-1,8.900103569E0
1.260286741E2,3.641875982E0,-7.848458290E-1,8.963513374E0
1.265286741E2,3.715455294E0,-1.110269666E0,9.062815666E0
1.270286741E2,3.858426571E0,-8.548358679E-1,9.381659508E0
1.275286741E2,3.845864296E0,-9.206385016E-1,9.424132347E0
1.280286741E2,4.120440483E0,-8.297112584E-1,8.746963501E0
1.285286741E2,4.046861172E0,-5.850451589E-1,8.502895355E0
1.290286741E2,2.829512835E0,-6.221339107E-1,8.440681458E0
1.295286741E2,5.319842815E0,-1.555334684E-2,8.995817184E0
1.300286741E2,2.336591244E0,-1.003789067E0,8.694320679E0
1.305286741E2,3.640081406E0,-1.038485050E0,9.061020851E0
1.310286741E2,2.748156786E0,-1.145563841E0,8.963513374E0
1.315286741E2,3.073580742E0,-1.207777262E0,8.895318031E0
1.320286741E2,2.973082066E0,-1.475773335E0,8.924032211E0
1.325286741E2,4.573282242E0,-1.269990563E0,9.287740707E0
1.330286741E2,4.849653244E0,-9.320043921E-1,9.060422897E0
1.335286741E2,2.609373093E0,-1.590030670E0,8.230113029E0
1.340286741E2,3.461217880E0,-1.465603828E0,1.003729248E1
1.345286741E2,4.688735962E0,-1.299900889E0,9.036494255E0
1.350286741E2,3.563511133E0,-1.481755376E0,9.778867722E0
1.355286741E2,3.239881754E0,-1.716850281E0,9.290133476E0
1.360286741E2,3.212962627E0,-1.561316729E0,9.753145218E0
1.365286741E2,5.248656273E0,-1.690529227E0,1.039621639E1
1.370286741E2,1.615155302E-2,-1.422533035E0,5.822335720E0
1.375286741E2,2.681157827E0,-2.439482689E0,8.086544037E0
1.380286741E2,1.778465390E0,-1.759921074E0,7.411170006E0
1.385286741E2,2.970689297E0,-1.855633974E0,9.354740143E0
1.390286741E2,2.724826813E0,-2.051247120E0,9.315856934E0
1.395286741E2,3.402593851E0,-2.032104731E0,9.158528328E0
1.400286741E2,2.952743053E0,-1.660618901E0,8.880363464E0
1.405286741E2,4.568496704E0,-1.440479279E0,9.944570541E0
1.410286741E2,3.996013880E0,-1.445264935E0,8.992227554E0
1.415286741E2,3.873381615E0,-2.051247120E0,9.097511292E0
1.420286741E2,3.410968781E0,-2.150549412E0,1.028734303E1
1.425286741E2,9.571290612E-1,-1.965703845E0,6.275177479E0
1.430286741E2,3.574877024E0,-1.323829174E0,9.893125534E0
1.435286741E2,2.417947292E0,-2.319243431E0,8.682954788E0
1.440286741E2,2.167897224E0,-1.976471543E0,9.057432175E0
1.445286741E2,1.874776483E0,-2.022533417E0,7.947760582E0
1.450286741E2,4.519443989E0,-1.719243050E0,1.058285618E1
1.455286741E2,2.933600664E0,-1.819741607E0,9.076574326E0
1.460286741E2,3.439084291E0,-2.200200319E0,9.193224907E0
1.465286741E2,3.937389612E0,-1.798206210E0,9.274580956E0
1.470286741E2,3.020938635E0,-1.895115495E0,9.569496155E0
1.475286741E2,2.761317253E0,-1.849053741E0,8.879166603E0
1.480286741E2,2.919243574E0,-1.778465390E0,9.167501450E0
1.485286741E2,3.547957659E0,-1.872981906E0,1.006122112E1
1.490286741E2,2.515454769E0,-1.765903115E0,8.353941917E0
1.495286741E2,3.930211306E0,-2.137987137E0,1.053141022E1
1.500286741E2,4.603790760E0,-1.683350682E0,1.035434151E1
1.505286741E2,4.377070904E0,-1.274776220E0,1.069711399E1
1.510286741E2,2.530410051E0,-2.193620205E0,9.723235130E0
1.515286741E2,2.831905603E0,-2.015953064E0,8.847461700E0
1.520286741E2,4.092923164E0,-1.695913076E0,1.028255749E1
1.525286741E2,5.369493961E0,-1.266999602E0,1.135633659E1
1.530286741E2,2.960519791E0,-2.250449657E0,9.813564301E0
1.535286741E2,5.391627789E0,-1.253839016E0,9.357132912E0
1.540286741E2,1.706680775E0,-1.475773335E0,7.505088329E0
1.545286741E2,2.255235434E0,-1.767697692E0,8.872586250E0
1.550286741E2,4.561916351E0,-1.703689694E0,1.129591751E1
1.555286741E2,3.543172121E0,-1.880758643E0,1.073599720E1
1.560286741E2,3.692723513E0,-1.767697692E0,8.426324844E0
1.565286741E2,3.083750248E0,-2.228914261E0,1.080299568E1
1.570286741E2,5.631507874E0,-1.913061738E0,1.139282703E1
1.575286741E2,2.231307030E0,-2.207378864E0,8.234300613E0
1.580286741E2,4.552943230E0,-2.121835470E0,1.159681511E1
1.585286741E2,5.842076302E0,-1.700698733E0,9.369096756E0
1.590286741E2,2.639881611E0,-2.198405743E0,8.407182693E0
1.595286741E2,3.669393539E0,-1.869392633E0,9.526425362E0
1.600286741E2,2.447259426E0,-2.107478619E0,8.936594009E0
1.605286741E2,3.863212109E0,-1.902892232E0,7.689335346E0
1.610286741E2,2.576471806E0,-1.645065546E0,8.940781593E0
1.615286741E2,3.006581545E0,-2.522035122E0,1.077547836E1
1.620286741E2,3.890729666E0,-2.006381750E0,8.797810555E0
1.625286741E2,2.763111830E0,-2.056032896E0,9.189635277E0
1.630286741E2,3.906282902E0,-1.664208174E0,8.534600258E0
1.635286741E2,3.221935749E0,-2.147558212E0,9.073583603E0
1.640286741E2,3.336791277E0,-2.181057930E0,9.293723106E0
1.645286741E2,2.640479803E0,-2.111665964E0,9.594022751E0
1.650286741E2,2.347957134E0,-1.708475351E0,7.875377655E0
1.655286741E2,2.962314367E0,-2.085345030E0,7.100701332E0
1.660286741E2,3.720241070E0,-2.260619164E0,1.029691410E1
1.665286741E2,2.781656265E0,-2.061416626E0,9.732208252E0
1.670286741E2,3.119044304E0,-2.201396942E0,7.162316322E0
1.675286741E2,3.023331404E0,-2.478964329E0,9.593423843E0
1.680286741E2,2.362912416E0,-2.104487419E0,8.569893837E0
1.685286741E2,3.052045345E0,-2.245664120E0,8.982656479E0
1.690286741E2,3.470789194E0,-2.356332064E0,8.765507698E0
1.695286741E2,3.665804386E0,-2.340180635E0,8.891729355E0
1.700286741E2,2.879761934E0,-2.236690998E0,8.783453941E0
1.705286741E2,3.198007345E0,-2.672184706E0,1.037527943E1
1.710286741E2,2.573480844E0,-2.137987137E0,9.660423279E0
1.715286741E2,1.834696770E0,-2.322234392E0,7.468597889E0
1.720286741E2,3.152543783E0,-2.375474691E0,9.026923180E0
1.725286741E2,3.447459221E0,-2.273181438E0,8.298309326E0
1.730286741E2,4.200001717E0,-2.180459738E0,9.354740143E0
1.735286741E2,7.435696125E-1,-1.746760488E0,7.396812916E0
1.740286741E2,2.054836512E0,-2.282752752E0,8.631509781E0
1.745286741E2,3.429512978E0,-2.382055044E0,8.475378036E0
1.750286741E2,2.464607239E0,-2.127817631E0,7.559525013E0
1.755286741E2,4.477569580E0,-2.548954248E0,1.066241741E1
1.760286741E2,4.171288013E0,-2.676970243E0,1.192104244E1
1.765286741E2,2.916252613E0,-2.729612350E0,8.861818314E0
1.770286741E2,2.255833626E0,-2.166700840E0,1.050927734E1
1.775286741E2,1.779063582E0,-2.252244234E0,8.411968231E0
1.780286741E2,2.562114954E0,-1.820339799E0,8.445467949E0
1.785286741E2,2.418545485E0,-2.161915302E0,8.636295319E0
1.790286741E2,3.205185890E0,-2.115255117E0,1.029691410E1
1.795286741E2,4.166502476E0,-1.992623091E0,1.092742252E1
1.800286741E2,2.477169752E0,-2.401197433E0,8.754739761E0
1.805286741E2,3.413959742E0,-1.995614052E0,9.178867340E0
1.810286741E2,2.182254314E0,-2.411965132E0,7.664809227E0
1.815286741E2,1.420140266E0,-2.118246317E0,8.768498421E0
1.820286741E2,2.714657307E0,-2.714657307E0,9.499505997E0
1.825286741E2,2.627319336E0,-2.292324066E0,9.630513191E0
1.830286741E2,1.834696770E0,-2.049452543E0,7.204190731E0
1.835286741E2,1.283749342E0,-2.221735716E0,8.336593628E0
1.840286741E2,2.886940479E0,-1.972882271E0,9.617950439E0
1.845286741E2,3.534797192E0,-2.324028969E0,1.168534946E1
1.850286741E2,4.271786690E0,-1.814955950E0,1.249651623E1
1.855286741E2,2.026122570E0,-1.853241086E0,9.485149384E0
1.860286741E2,1.263410330E0,-1.840678811E0,9.560523033E0
1.865286741E2,1.731207132E0,-1.861616015E0,8.571090698E0
1.870286741E2,1.237687469E0,-1.893919110E0,8.469395638E0
1.875286741E2,1.485344648E0,-1.909472466E0,1.010070229E1
1.880286741E2,1.210768223E0,-2.344966173E0,8.617152214E0
1.885286741E2,1.582852125E0,-2.068595171E0,1.023350430E1
1.890286741E2,7.256234884E-1,-2.084746838E0,8.153543472E0
1.895286741E2,1.935195327E0,-1.955534339E0,8.733802795E0
1.900286741E2,2.284547329E0,-2.172683001E0,1.018564796E1
1.905286741E2,2.517249346E0,-2.048256159E0,1.034536839E1
1.910286741E2,2.635694027E0,-2.129612207E0,9.249456406E0
1.915286741E2,3.686143398E0,-2.085345030E0,1.060020447E1
1.920286741E2,2.776870728E0,-2.169692039E0,8.822935104E0
1.925286741E2,2.888735056E0,-2.368894339E0,8.486743927E0
1.930286741E2,3.610171080E0,-2.397608280E0,8.665607452E0
1.935286741E2,2.619542599E0,-2.444268227E0,8.833105087E0
1.940286741E2,1.453639746E0,-2.341975212E0,8.832506180E0
1.945286741E2,3.164507866E0,-2.475374937E0,9.711270332E0
1.950286741E2,3.537788391E0,-2.381456852E0,8.213961601E0
1.955286741E2,4.042674065E0,-2.499303341E0,9.869196892E0
1.960286741E2,2.464607239E0,-2.093121529E0,7.808378696E0
1.965286741E2,1.916052699E0,-2.267199516E0,8.971290588E0
1.970286741E2,2.729014158E0,-2.383251429E0,8.559724808E0
1.975286741E2,3.480958700E0,-2.327618122E0,8.727222443E0
1.980286741E2,3.333800077E0,-2.276172638E0,8.639286041E0
1.985286741E2,4.011567116E0,-2.565105915E0,8.902496338E0
1.990286741E2,3.142972469E0,-2.330609322E0,9.151947975E0
1.995286741E2,3.114258766E0,-2.654238462E0,9.395418167E0
2.000286741E2,3.161516905E0,-2.304886341E0,1.007378292E1
2.005286741E2,2.134397745E0,-2.166102648E0,7.916653633E0
2.010286741E2,4.089931965E0,-2.676970243E0,8.557929993E0
2.015286741E2,3.525824070E0,-2.373680115E0,8.719446182E0
2.020286741E2,3.270390272E0,-2.683550596E0,9.416953087E0
2.025286741E2,3.340380430E0,-2.803191662E0,9.026923180E0
2.030286741E2,3.879961967E0,-2.766103029E0,8.931808472E0
2.035286741E2,4.847858906E0,-2.705684185E0,8.754141808E0
2.040286741E2,4.090530396E0,-2.733799934E0,9.402596474E0
2.045286741E2,3.640081406E0,-2.822334290E0,7.741977692E0
2.050286741E2,4.903491974E0,-2.943171740E0,7.889734268E0
2.055286741E2,5.148158073E0,-3.573680639E0,9.372088432E0
2.060286741E2,3.326023579E0,-2.482553482E0,6.291328907E0
2.065286741E2,4.128217220E0,-2.855833769E0,8.483752251E0
2.070286741E2,4.753940582E0,-2.727817774E0,8.132605553E0
2.075286741E2,5.248058319E0,-4.162314892E0,9.875777245E0
2.080286741E2,3.324228764E0,-3.032902718E0,8.910871506E0
2.085286741E2,4.533202648E0,-3.052045345E0,7.941180229E0
2.090286741E2,4.019941807E0,-3.201596737E0,1.023948669E1
2.095286741E2,4.107878208E0,-2.901297569E0,7.636095047E0
2.100286741E2,4.217947960E0,-3.362514019E0,9.677771568E0
2.105286741E2,4.400999069E0,-3.269792080E0,7.806583881E0
2.110286741E2,5.081159115E0,-3.010170937E0,8.907281876E0
2.115286741E2,2.973680258E0,-3.188436270E0,8.170292854E0
2.120286741E2,5.047060966E0,-2.756531715E0,8.014759064E0
2.125286741E2,2.003390789E0,-2.937189817E0,5.916851997E0
2.130286741E2,2.847458839E0,-2.424527645E0,7.718049526E0
2.135286741E2,1.889133453E0,-2.869592667E0,6.641279221E0
2.140286741E2,8.325227737E0,-4.860421181E0,1.196531010E1
2.145286741E2,3.027518749E0,-2.675175667E0,4.328018188E0
2.150286741E2,2.798406124E0,-1.594816327E0,4.645066738E0
2.155286741E2,5.032704353E0,-3.324228764E0,7.718049526E0
2.160286741E2,4.420739651E0,-4.181457520E0,7.019345284E0
2.165286741E2,6.637690067E0,-3.963710785E0,7.759325504E0
2.170286741E2,5.203791142E0,-3.926023722E0,7.462017536E0
2.175286741E2,6.253642082E0,-3.920639992E0,7.964509964E0
2.180286741E2,5.144568920E0,-3.475574970E0,7.191628456E0
2.185286741E2,5.832505226E0,-3.760320902E0,8.009973526E0
2.190286741E2,4.997410297E0,-3.780659676E0,7.344171047E0
2.195286741E2,4.780859470E0,-3.651447296E0,6.583851337E0
2.200286741E2,4.875376225E0,-3.370290756E0,7.521239758E0
2.205286741E2,5.407779217E0,-3.273381472E0,5.795416355E0
2.210286741E2,5.459224701E0,-3.266801119E0,8.237890244E0
2.215286741E2,3.355933666E0,-3.251247883E0,8.005187988E0
2.220286741E2,2.853441000E0,-3.107080221E0,8.446663857E0
2.225286741E2,2.214557409E0,-3.016751051E0,8.652446747E0
2.230286741E2,2.568096876E0,-2.827120066E0,8.518448830E0
2.235286741E2,2.589034081E0,-3.075973511E0,8.773283958E0
2.240286741E2,3.200400352E0,-3.013760090E0,9.089137077E0
2.245286741E2,3.212364435E0,-3.879961967E0,9.256634712E0
2.250286741E2,3.305086374E0,-3.205185890E0,8.266005516E0
2.255286741E2,3.321237803E0,-3.624528170E0,9.016156197E0
2.260286741E2,3.362514019E0,-3.145963669E0,7.371089935E0
2.265286741E2,4.923232555E0,-3.452244759E0,9.227920532E0
2.270286741E2,3.343969584E0,-3.275176048E0,7.433303356E0
2.275286741E2,4.712664127E0,-3.121437073E0,9.445069313E0
2.280286741E2,4.463212490E0,-3.359523058E0,7.543373585E0
2.285286741E2,4.115654945E0,-3.329612732E0,7.905886173E0
2.290286741E2,3.795016766E0,-3.509672642E0,7.753942013E0
2.295286741E2,3.714857101E0,-3.153740168E0,8.203792572E0
2.300286741E2,4.327419758E0,-3.587439299E0,7.684549809E0
2.305286741E2,4.202992916E0,-3.967299938E0,8.231309891E0
2.310286741E2,2.848655462E0,-4.565505505E0,7.435696602E0
2.315286741E2,3.980460405E0,-3.710669756E0,7.355536938E0
2.320286741E2,3.211168051E0,-3.365504980E0,8.338388443E0
2.325286741E2,4.110869408E0,-3.652643681E0,9.121439934E0
2.330286741E2,3.499503136E0,-4.423730850E0,8.555537224E0
2.335286741E2,3.023331404E0,-4.277170658E0,8.036892891E0
2.340286741E2,2.721835852E0,-4.573880672E0,7.835297585E0
2.345286741E2,2.928814888E0,-4.244867325E0,8.424530029E0
2.350286741E2,3.384647608E0,-4.588237286E0,8.008178711E0
2.355286741E2,3.485744476E0,-3.714857101E0,8.733802795E0
2.360286741E2,3.145365477E0,-3.549154282E0,9.299705505E0
2.365286741E2,1.954337835E0,-2.796611547E0,8.401798248E0
2.370286741E2,1.387837172E0,-2.669193745E0,1.038185883E1
2.375286741E2,1.082752272E-1,-2.839084148E0,1.000080204E1
2.380286741E2,2.452643216E-1,-2.538186550E0,9.475577354E0
2.385286741E2,-1.025922656E0,-2.367697954E0,9.115457535E0
2.390286741E2,5.611169338E-1,-3.327818155E0,1.187916756E1
2.395286741E2,3.798605800E-1,-3.007179976E0,1.045663452E1
2.400286741E2,7.818548083E-1,-2.739183664E0,1.048235798E1
2.405286741E2,-1.339980662E-1,-2.356332064E0,8.660223007E0
2.410286741E2,5.341976285E-1,-2.864806890E0,1.085025406E1
2.415286741E2,6.921239495E-1,-2.736192703E0,9.406784058E0
2.420286741E2,1.868196249E0,-3.089732170E0,1.077248764E1
2.425286741E2,2.495115757E0,-3.472583771E0,9.089735031E0
2.430286741E2,2.892324448E0,-3.363112211E0,7.945367813E0
2.435286741E2,3.305684566E0,-3.314657450E0,8.914461136E0
2.440286741E2,3.393022537E0,-1.819741607E0,8.263014793E0
2.445286741E2,3.810570002E0,-1.601994753E0,8.636295319E0
2.450286741E2,3.858426571E0,-2.249253243E-1,8.266005516E0
2.455286741E2,2.402393818E0,-1.336989641E0,1.004327488E1
2.460286741E2,2.834896564E0,-8.386843204E-1,9.373882294E0
2.465286741E2,3.296113253E0,-6.957131624E-1,9.435498238E0
2.470286741E2,3.582653761E0,-2.979064286E-1,9.156135559E0
2.475286741E2,3.097508907E0,-9.272187948E-2,9.349356651E0
2.480286741E2,2.152343988E0,-6.526423693E-1,9.713065147E0
2.485286741E2,2.628515720E0,-1.202393413E0,9.445069313E0
2.490286741E2,4.642076015E0,-1.101894855E0,1.075035381E1
2.495286741E2,3.145365477E0,-1.365703583E0,9.565308571E0
2.500286741E2,1.542772412E0,-1.741974831E0,9.218349457E0
2.505286741E2,4.629513741E0,3.014956415E-1,8.923434258E0
2.510286741E2,3.007179976E0,-1.066002488E0,9.759725571E0
2.515286741E2,3.353540897E0,-1.354337573E0,1.048056316E1
2.520286741E2,3.141177893E0,-4.151547253E-1,8.274380684E0
2.525286741E2,2.382055044E0,-1.489532113E0,9.714859962E0
2.530286741E2,3.862015724E0,-8.835497499E-1,8.727820396E0
2.535286741E2,3.095116138E0,-1.092921734E0,1.028554821E1
2.540286741E2,2.429911375E0,-1.129412293E0,8.866603851E0
2.545286741E2,4.106083870E0,-3.176472187E-1,9.340383530E0
2.550286741E2,2.391626120E0,-1.403988719E0,9.882357597E0
2.555286741E2,2.927020311E0,-7.429714203E-1,8.933603287E0
2.560286741E2,3.525225878E0,-1.205982566E0,9.890133858E0
2.565286741E2,3.512663603E0,-7.764709592E-1,9.102297783E0
2.570286741E2,2.440679073E0,-1.032503009E0,9.623932838E0
2.575286741E2,3.616153240E0,-1.135992527E0,9.866206169E0
2.580286741E2,2.954537868E0,-1.196411371E0,9.199805260E0
2.585286741E2,2.702693224E0,-1.115055323E0,8.560322762E0
2.590286741E2,2.035693884E0,-8.889335990E-1,8.347960472E0
2.595286741E2,2.048256159E0,-1.194616675E0,9.797411919E0
2.600286741E2,3.021536827E0,-9.056833982E-1,9.459425926E0
2.605286741E2,3.784249067E0,-7.052844763E-1,9.548559189E0
2.610286741E2,2.538186550E0,-1.059422255E0,9.023932457E0
2.615286741E2,2.861815929E0,-7.429714203E-1,8.240880966E0
2.620286741E2,2.557329178E0,-5.617151260E-1,8.850452423E0
2.625286741E2,3.503092289E0,-6.681957245E-1,9.325428009E0
2.630286741E2,4.339384079E0,-8.626125455E-1,1.053918743E1
2.635286741E2,3.064607620E0,-4.558327198E-1,8.457431793E0
2.640286741E2,2.898306370E0,-6.873382926E-1,7.653443336E0
2.645286741E2,4.052245140E0,-1.429113269E0,9.531808853E0
2.650286741E2,3.805784464E0,-1.158126116E0,9.379864693E0
2.655286741E2,3.951746702E0,-7.274180651E-1,8.715856552E0
2.660286741E2,3.056232691E0,-1.329213023E0,9.275776863E0
2.665286741E2,4.198805332E0,-1.091127157E0,9.791430473E0
2.670286741E2,3.860819340E0,-1.183250785E0,9.542576790E0
2.675286741E2,2.188236237E0,-1.499701619E0,8.834300995E0
2.680286741E2,2.659024239E0,-1.511067510E0,9.156135559E0
2.685286741E2,2.203191519E0,-1.666600943E0,9.930213928E0
2.690286741E2,3.458226919E0,-1.453639746E0,9.796216011E0
2.695286741E2,2.968894720E0,-1.333998680E0,9.277571678E0
2.700286741E2,4.153940201E0,-1.424327731E0,8.991030693E0
2.705286741E2,2.635694027E0,-1.855035782E0,8.775078773E0
2.710286741E2,2.887538671E0,-1.595414519E0,8.988637924E0
2.715286741E2,3.676572084E0,-1.503889084E0,7.785048485E0
2.720286741E2,3.970290899E0,-1.963310957E0,8.876175880E0
2.725286741E2,4.516452789E0,-1.668395638E0,8.572287560E0
2.730286741E2,3.365504980E0,-1.687538147E0,8.240880966E0
2.735286741E2,3.614358664E0,-1.716252089E0,8.140382767E0
2.740286741E2,3.948157310E0,-1.588834286E0,8.768498421E0
2.745286741E2,3.665804386E0,-1.692323804E0,9.469595909E0
2.750286741E2,3.930809498E0,-1.858624935E0,9.234500885E0
2.755286741E2,3.803391695E0,-1.727617979E0,8.220541954E0
2.760286741E2,2.954537868E0,-2.137987137E0,8.605786324E0
2.765286741E2,5.596213818E0,-1.255035520E0,8.457431793E0
2.770286741E2,4.774877548E0,-1.704886079E0,9.247661591E0
2.775286741E2,3.193221807E0,-1.945963025E0,9.270991325E0
2.780286741E2,3.266801119E0,-1.862812400E0,9.502496719E0
2.785286741E2,2.860021353E0,-1.336989641E0,9.560523033E0
2.790286741E2,2.249253273E0,-1.467398524E0,9.296713829E0
2.795286741E2,2.739183664E0,-8.871390224E-1,1.060857964E1
2.800286741E2,-3.194418252E-1,-9.140582681E-1,5.401797295E0
2.805286741E2,2.066202402E0,-1.209571838E0,8.802596092E0
2.810286741E2,3.145963669E0,-1.039681435E0,9.250652313E0
2.815286741E2,3.087937593E0,-1.271785259E0,8.440083504E0
2.820286741E2,2.190629244E0,-9.888339639E-1,8.244470596E0
2.825286741E2,5.050052166E0,-8.841479421E-1,1.084307575E1
2.830286741E2,2.621337175E0,-1.697707653E0,9.335597992E0
2.835286741E2,2.798406124E0,-1.332203984E0,9.148359299E0
2.840286741E2,3.351148129E0,-8.452646136E-1,1.118285656E1
2.845286741E2,2.182254314E0,-1.249053478E0,8.700303078E0
2.850286741E2,1.884347796E0,-1.213759303E0,8.945567131E0
2.855286741E2,2.053041935E0,-1.355534077E0,1.139641571E1
2.860286741E2,1.569691658E0,-1.557129383E0,6.671189308E0
2.865286741E2,1.752742529E-1,-2.096112728E0,9.646066666E0
2.870286741E2,2.781656265E0,-8.279166222E-1,9.497711182E0
2.875286741E2,4.356133461E0,-1.362114310E0,9.702297211E0
2.880286741E2,3.635295868E0,-1.537388563E0,8.815158844E0
2.885286741E2,3.549154282E0,-1.279561877E0,9.285946846E0
2.890286741E2,3.482155085E0,-2.057827473E0,9.004789352E0
2.895286741E2,3.921238184E0,-1.606182218E0,9.644869804E0
2.900286741E2,2.816950560E0,-1.387837172E0,9.230313301E0
2.905286741E2,3.445664644E0,-1.514058471E0,9.099306107E0
2.910286741E2,2.877369165E0,-1.135394335E0,9.363713264E0
2.915286741E2,3.346362352E0,-1.603191137E0,9.462417603E0
2.920286741E2,2.686541557E0,-1.627119422E0,9.689137459E0
2.925286741E2,3.019742250E0,-1.531406522E0,8.934800148E0
2.930286741E2,3.397808075E0,-1.652244091E0,9.480362892E0
2.935286741E2,3.006581545E0,-1.733600020E0,9.483952522E0
2.940286741E2,2.537588358E0,-1.734198213E0,9.354740143E0
2.945286741E2,3.245863914E0,-1.411765337E0,9.560523033E0
2.950286741E2,2.843869686E0,-1.813759565E0,9.209376335E0
2.955286741E2,2.772084951E0,-1.523629785E0,9.120243073E0
2.960286741E2,2.563909531E0,-1.348355532E0,9.304491043E0
2.965286741E2,3.284747362E0,-1.301695466E0,9.206384659E0
2.970286741E2,2.506481647E0,-1.885544300E0,9.196215630E0
2.975286741E2,2.713460922E0,-1.347757339E0,9.373284340E0
2.980286741E2,3.097508907E0,-1.322632670E0,8.840881348E0
2.985286741E2,3.761517286E0,-1.818545222E0,9.899705887E0
2.990286741E2,2.839682341E0,-1.380060434E0,9.011369705E0
2.995286741E2,3.717249870E0,-1.476969719E0,9.604789734E0
3.000286741E2,2.346760750E0,-1.786840320E0,9.965508461E0
3.005286741E2,3.783650875E0,-1.497906923E0,1.009472084E1
3.010286741E2,2.754737139E0,-1.642672777E0,9.934999466E0
3.015286741E2,2.286342144E0,-1.719841242E0,8.825926781E0
3.020286741E2,3.611965895E0,-8.997012973E-1,9.686145782E0
3.025286741E2,2.810968399E0,-1.751546144E0,9.646066666E0
3.030286741E2,3.091526747E0,-1.683350682E0,9.858428955E0
3.035286741E2,3.212364435E0,-1.347757339E0,9.841081619E0
3.040286741E2,2.673979282E0,-1.722832322E0,8.435297966E0
3.045286741E2,2.260619164E0,-1.566102386E0,9.143573761E0
3.050286741E2,2.737389088E0,-1.357926846E0,9.256634712E0
3.055286741E2,2.416750908E0,-1.826321840E0,8.789435387E0
3.060286741E2,2.418545485E0,-1.447059512E0,9.138788223E0
3.065286741E2,3.078964472E0,-1.314257860E0,1.001994514E1
3.070286741E2,3.389433384E0,-1.777269006E0,9.925428391E0
3.075286741E2,3.029313564E0,-1.457827210E0,1.035254669E1
3.080286741E2,2.656033039E0,-1.298106313E0,8.334799767E0
3.085286741E2,2.173879385E0,-1.338186026E0,8.247461319E0
3.090286741E2,2.625524759E0,-1.338186026E0,8.872586250E0
3.095286741E2,3.528217077E0,-1.299900889E0,1.023290634E1
3.100286741E2,2.758326292E0,-1.786242127E0,9.789635658E0
3.105286741E2,3.629313707E0,-1.097707391E0,9.368498802E0
3.110286741E2,2.681756020E0,-1.779063582E0,9.445069313E0
3.115286741E2,2.336591244E0,-1.520040631E0,8.501100540E0
3.120286741E2,3.230310678E0,-1.600200176E0,8.872586250E0
3.125286741E2,2.593819857E0,-1.674975872E0,9.826126099E0
3.130286741E2,2.220539331E0,-1.886740685E0,7.140182972E0
3.135286741E2,2.761317253E0,-1.655833244E0,9.000602722E0
3.140286741E2,2.204986095E0,-1.503889084E0,9.699306488E0
3.145286741E2,3.321237803E0,-1.609771490E0,9.033503532E0
3.150286741E2,3.151945591E0,-1.635494232E0,8.301300049E0
3.155286741E2,2.904886723E0,-1.357926846E0,9.239286423E0
3.160286741E2,3.040081263E0,-1.539781332E0,8.213363647E0
3.165286741E2,3.098107100E0,-1.131206870E0,9.775279045E0
3.170286741E2,3.476173162E0,-1.611566067E0,9.058030128E0
3.175286741E2,2.794816732E0,-1.399203062E0,9.777072906E0
3.180286741E2,3.092723370E0,-1.457827210E0,9.481559753E0
3.185286741E2,3.466601849E0,-1.508674622E0,9.107083321E0
3.190286741E2,2.485544443E0,-1.399203062E0,8.717651367E0
3.195286741E2,2.606980324E0,-1.180858016E0,9.312865257E0
3.200286741E2,2.764308453E0,-1.397408366E0,8.494520187E0
3.205286741E2,2.539382935E0,-1.714457393E0,8.994022369E0
3.210286741E2,3.247658491E0,-1.617548108E0,9.336793900E0
3.215286741E2,3.324228764E0,-1.590628862E0,9.875777245E0
3.220286741E2,2.957528830E0,-1.783251047E0,9.680164337E0
3.225286741E2,2.335394859E0,-1.726421595E0,9.217152596E0
3.230286741E2,3.664009571E0,-1.260419369E0,9.735198975E0
3.235286741E2,2.224128723E0,-1.801197290E0,9.231510162E0
3.240286741E2,2.670390129E0,-1.667199135E0,9.237491608E0
3.245286741E2,3.823730469E0,-1.467398524E0,9.904491425E0
3.250286741E2,3.570091486E0,-1.618744493E0,8.770891190E0
3.255286741E2,2.563311338E0,-1.416550994E0,8.626724243E0
3.260286741E2,3.807579041E0,-1.511067510E0,9.784850121E0
3.265286741E2,1.925025821E0,-1.277767301E0,8.138587952E0
3.270286741E2,2.812762976E0,-1.472184181E0,9.607781410E0
3.275286741E2,3.676572084E0,-1.352542996E0,9.191430092E0
3.280286741E2,2.810370207E0,-1.584048629E0,1.021735287E1
3.285286741E2,3.451646566E0,-1.202991605E0,8.998209953E0
3.290286741E2,2.222334146E0,-1.532602906E0,8.322237015E0
3.295286741E2,2.451446772E0,-1.290927768E0,9.044869423E0
3.300286741E2,3.379862070E0,-1.543968797E0,9.994221687E0
3.305286741E2,3.327219963E0,-1.697109461E0,9.659226418E0
3.310286741E2,4.117449760E0,-1.451845169E0,1.063250732E1
3.315286741E2,1.835893154E0,-1.599601984E0,7.644470215E0
3.320286741E2,2.213959217E0,-1.208973646E0,7.828119278E0
3.325286741E2,2.672184706E0,-1.676770449E0,8.618947029E0
3.330286741E2,3.046661377E0,-1.580459356E0,9.017352104E0
3.335286741E2,3.383451223E0,-1.700100541E0,1.012463093E1
3.340286741E2,2.356332064E0,-1.154536963E0,8.925228119E0
3.345286741E2,3.292523861E0,-1.170688510E0,8.347960472E0
3.350286741E2,2.368894339E0,-1.243071318E0,8.984451294E0
3.355286741E2,2.080559254E0,-1.553540111E0,9.679565430E0
3.360286741E2,2.936591625E0,-1.581057549E0,9.461220741E0
3.365286741E2,3.138186932E0,-1.451246977E0,9.182456970E0
3.370286741E2,2.487339020E0,-1.769492388E0,8.839086533E0
3.375286741E2,2.939582586E0,-1.417747378E0,1.132403278E1
3.380286741E2,2.481955290E0,-1.893919110E0,1.052722359E1
3.385286741E2,2.732603550E0,-1.010967612E0,9.683155060E0
3.390286741E2,1.283749342E0,-1.810768485E0,7.999804497E0
3.395286741E2,2.736192703E0,-1.300499082E0,7.100701332E0
3.400286741E2,2.523231506E0,-1.386640668E0,9.153144836E0
3.405286741E2,2.076970100E0,-1.700698733E0,9.196215630E0
3.410286741E2,2.907877684E0,-1.550549030E0,9.285347939E0
3.415286741E2,1.641476393E0,-1.417747378E0,1.011864853E1
3.420286741E2,4.098307133E0,-9.589236975E-1,1.105663490E1
3.425286741E2,2.563311338E0,-1.349551916E0,9.699306488E0
3.430286741E2,3.136392355E0,-1.501496196E0,8.916853905E0
3.435286741E2,3.313461065E0,-1.058824062E0,1.048415279E1
3.440286741E2,2.289333105E0,-1.490130305E0,8.579465866E0
3.445286741E2,2.461018085E0,-1.543968797E0,8.772088051E0
3.450286741E2,3.834498405E0,-1.379462242E0,1.043150997E1
3.455286741E2,3.806382656E0,-8.470591903E-1,1.106441212E1
3.460286741E2,3.279363394E0,-1.290927768E0,1.116849995E1
3.465286741E2,4.252644062E0,-1.310070395E0,8.857032776E0
3.470286741E2,1.137188911E0,-8.434699774E-1,5.457430363E0
3.475286741E2,3.255435228E0,7.525427341E-1,1.123549843E1
3.480286741E2,-1.051047325E0,-2.700300455E0,9.193224907E0
3.485286741E2,7.639086246E-1,-2.033899166E-2,1.074736309E1
3.490286741E2,-5.437689424E-1,-1.356132269E0,7.485945702E0
3.495286741E2,2.733799934E0,-6.975077987E-1,9.657432556E0
3.500286741E2,1.544566989E0,-6.346961856E-1,9.653842926E0
3.505286741E2,2.109273195E0,-6.424728632E-1,9.915857315E0
3.510286741E2,1.552343726E0,-8.147560954E-1,1.018564796E1
3.515286741E2,1.381855130E0,-9.224331379E-1,1.006600666E1
3.520286741E2,2.032702923E0,-5.150550604E-1,9.328418732E0
3.525286741E2,1.135992527E0,-4.462614357E-1,9.548559189E0
3.530286741E2,2.213959217E0,-9.062815905E-1,8.660821915E0
3.535286741E2,2.214557409E0,-7.627122402E-1,9.644271851E0
3.540286741E2,1.494915962E0,-1.176072359E0,1.049850941E1
3.545286741E2,1.941177368E0,-9.284151793E-1,9.534201622E0
3.550286741E2,1.369890928E0,-8.614161611E-1,1.015394306E1
3.555286741E2,1.355534077E0,-8.105686903E-1,8.081758499E0
3.560286741E2,1.013360381E0,-9.511470199E-1,8.984451294E0
3.565286741E2,1.354337573E0,-8.913264275E-1,9.707083702E0
3.570286741E2,1.512263894E0,-1.154536963E0,9.527023315E0
3.575286741E2,1.019342422E0,-9.014959335E-1,9.640084267E0
3.580286741E2,1.421336651E0,-8.931210637E-1,9.526425362E0
3.585286741E2,8.506484628E-1,-5.216353536E-1,9.275776863E0
3.590286741E2,1.444068432E0,-9.248259664E-1,8.804390907E0
3.595286741E2,1.722832322E0,-1.192822099E0,9.639486313E0
3.600286741E2,1.968096614E0,-9.840483069E-1,1.026520920E1
3.605286741E2,1.138983607E0,-7.944171429E-1,9.012566566E0
3.610286741E2,1.614557028E0,-7.226324677E-1,9.799206734E0
3.615286741E2,1.818545222E0,-7.704889178E-1,1.020120144E1
3.620286741E2,2.070389748E0,-7.926225066E-1,1.028794098E1
3.625286741E2,1.298106313E0,-9.266205430E-1,1.042433167E1
3.630286741E2,1.074975610E0,-9.367900491E-1,8.934800148E0
3.635286741E2,1.109073281E0,-9.379864931E-1,8.359326363E0
3.640286741E2,1.108475089E0,-7.070791125E-1,9.619147301E0
3.645286741E2,2.587837696E0,-9.080761671E-1,9.627521515E0
3.650286741E2,2.006381750E0,-1.162911773E0,9.754940033E0
3.655286741E2,2.024327993E0,-1.138983607E0,1.038784122E1
3.660286741E2,1.152144074E0,-1.202393413E0,9.479166985E0
3.665286741E2,4.241278172E-1,-9.780662656E-1,8.256434441E0
3.670286741E2,1.188634634E0,-9.409775138E-1,9.492925644E0
3.675286741E2,1.221535921E0,-7.357929349E-1,8.926424980E0
3.680286741E2,1.595414519E0,-9.601200819E-1,9.297312737E0
3.685286741E2,1.325623751E0,-9.888339639E-1,9.261420250E0
3.690286741E2,1.355534077E0,-1.306481123E0,1.011984539E1
3.695286741E2,2.073380709E0,-1.119840980E0,1.026520920E1
3.700286741E2,1.539183140E0,-1.018146038E0,9.429515839E0
3.705286741E2,2.106880426E0,-6.711867452E-1,8.958727837E0
3.710286741E2,2.212762833E0,-7.262216806E-1,9.585647583E0
3.715286741E2,1.642672777E0,-9.332008362E-1,1.007258701E1
3.720286741E2,7.453642488E-1,-1.007976532E0,9.345169067E0
3.725286741E2,1.550549030E0,-1.250848055E0,1.141196918E1
3.730286741E2,1.041476011E0,-1.030708313E0,8.796015739E0
3.735286741E2,1.470987678E0,-7.429714203E-1,9.440881729E0
3.740286741E2,2.008774519E0,-8.123632669E-1,1.010130119E1
3.745286741E2,1.697707653E0,-8.727820516E-1,1.077368355E1
3.750286741E2,1.357926846E0,-9.475577474E-1,1.053200912E1
3.755286741E2,1.475773335E0,-1.198205948E0,9.603593826E0
3.760286741E2,1.668993831E0,-8.165507317E-1,9.277571678E0
3.765286741E2,2.008176327E0,-6.239284873E-1,9.382855415E0
3.770286741E2,1.556531072E0,-1.223330617E0,9.476774216E0
3.775286741E2,1.475175142E0,-1.174277663E0,1.022393322E1
3.780286741E2,1.365105271E0,-9.128618240E-1,1.047218800E1
3.785286741E2,1.377069473E0,-1.043270707E0,9.683155060E0
3.790286741E2,1.708475351E0,-7.016952634E-1,9.566504478E0
3.795286741E2,1.563709617E0,-7.160521746E-1,9.172286987E0
3.800286741E2,1.708475351E0,-1.101894855E0,1.002592659E1
3.805286741E2,9.601200819E-1,-1.032503009E0,9.372088432E0
3.810286741E2,1.268195987E0,-9.505487680E-1,9.519845009E0
3.815286741E2,1.355534077E0,-6.717849374E-1,9.604789734E0
3.820286741E2,1.999203324E0,-8.536394835E-1,9.960722923E0
3.825286741E2,2.117049932E0,-6.699903607E-1,1.096032429E1
3.830286741E2,1.601994753E0,-1.275972724E0,9.735796928E0
3.835286741E2,1.202393413E0,-9.888339639E-1,1.014855862E1
3.840286741E2,9.332008362E-1,-7.190431952E-1,9.067003250E0
3.845286741E2,1.240678549E0,-8.883354068E-1,9.534799576E0
3.850286741E2,2.245664120E0,-6.460621357E-1,9.476774216E0
3.855286741E2,1.604387641E0,-1.083350420E0,9.901499748E0
3.860286741E2,1.062413216E0,-1.068395257E0,9.850054741E0
3.865286741E2,1.164706469E0,-9.649057388E-1,9.124430656E0
3.870286741E2,3.702892959E-1,-1.298704505E0,1.025384331E1
3.875286741E2,1.108475089E0,-8.841479421E-1,9.414560318E0
3.880286741E2,1.245464206E0,-7.513462901E-1,9.592227936E0
3.885286741E2,1.413560033E0,-9.397810698E-1,8.971888542E0
3.890286741E2,2.100898266E0,-1.282552958E0,1.078684425E1
3.895286741E2,7.304090858E-1,-1.261615753E0,9.990633011E0
3.900286741E2,1.744965911E0,-8.075776696E-1,1.039083195E1
3.905286741E2,1.235892892E0,-1.036690354E0,8.339585304E0
3.910286741E2,1.410568953E0,-6.287141442E-1,9.653842926E0
3.915286741E2,1.034895778E0,-8.327022791E-1,8.965308189E0
3.920286741E2,1.387837172E0,-8.697910309E-1,1.060618591E1
3.925286741E2,2.422732860E-1,-5.503492355E-1,8.277371407E0
3.930286741E2,1.301695466E0,-1.217348576E0,8.706883430E0
3.935286741E2,1.275972724E0,-6.879364848E-1,8.981459618E0
3.940286741E2,1.998605132E0,-9.774680734E-1,1.063669491E1
3.945286741E2,1.702493310E0,-8.548358679E-1,1.014556789E1
3.950286741E2,1.657627940E0,-1.027717352E0,9.683155060E0
3.955286741E2,5.617151260E-1,-1.121635556E0,8.743373871E0
3.960286741E2,1.400997639E0,-9.846464992E-1,9.057432175E0
3.965286741E2,1.272981644E0,-1.507478237E0,9.908080101E0
3.970286741E2,2.375474691E0,-7.836494446E-1,1.141376400E1
3.975286741E2,1.740778446E0,-9.254241586E-1,9.322437286E0
3.980286741E2,1.554138303E0,-9.248259664E-1,1.131446171E1
3.985286741E2,1.405185103E0,-7.932206988E-1,9.137591362E0
3.990286741E2,1.472184181E0,-6.957131624E-1,9.553344727E0
3.995286741E2,2.392822742E0,-1.040279627E0,1.130369377E1
4.000286741E2,1.458425403E0,-1.125823021E0,9.248857498E0
4.005286741E2,1.394417405E0,-1.131206870E0,9.494720459E0
4.010286741E2,1.204786181E0,-9.008977413E-1,9.062815666E0
4.015286741E2,1.463211060E0,-7.483552694E-1,9.872786522E0
4.020286741E2,1.931606054E0,-1.025324464E0,1.043450165E1
4.025286741E2,2.427518606E0,-1.084546804E0,1.005643559E1
4.030286741E2,1.740180254E0,-7.244270444E-1,1.050808048E1
4.035286741E2,1.537388563E0,-1.060618639E0,9.619147301E0
4.040286741E2,8.709874153E-1,-9.792626500E-1,8.684749603E0
4.045286741E2,8.039883971E-1,-7.914260626E-1,9.147162437E0
4.050286741E2,1.823330879E0,-1.001994491E0,8.910871506E0
4.055286741E2,2.285743713E0,-6.903293133E-1,1.002891827E1
4.060286741E2,2.251047850E0,-8.338986635E-1,1.058943653E1
4.065286741E2,1.274776220E0,-1.135992527E0,1.046441174E1
4.070286741E2,1.191625714E0,-1.233500123E0,9.142376900E0
4.075286741E2,1.188634634E0,-1.070788145E0,8.955737114E0
4.080286741E2,1.841277003E0,-8.356932998E-1,8.419146538E0
4.085286741E2,2.737389088E0,-8.775677085E-1,9.432506561E0
4.090286741E2,2.664407969E0,-1.274776220E0,1.125284672E1
4.095286741E2,2.547757864E0,-1.467996716E0,1.029990482E1
4.100286741E2,3.590430260E0,-1.274178028E0,8.732605934E0
4.105286741E2,3.494717360E0,-1.086341500E0,8.937790871E0
4.110286741E2,3.992424488E0,-1.598405480E0,8.910871506E0
4.115286741E2,4.144368649E0,-1.694118381E0,9.168100357E0
4.120286741E2,3.863810301E0,-1.465603828E0,1.019820976E1
4.125286741E2,2.935395241E0,-1.380060434E0,9.477372169E0
4.130286741E2,2.679961443E0,-1.046859860E0,8.735597610E0
4.135286741E2,2.499303341E0,-1.282552958E0,8.491529465E0
4.140286741E2,3.312862873E0,-9.792626500E-1,9.432506561E0
4.145286741E2,3.040679455E0,-1.138983607E0,1.015633583E1
4.150286741E2,3.016751051E0,-1.046261668E0,1.071685410E1
4.155286741E2,1.485344648E0,-1.161715388E0,9.651450157E0
4.160286741E2,1.590628862E0,-9.361918569E-1,9.236295700E0
4.165286741E2,1.757528186E0,-9.080761671E-1,8.962317467E0
4.170286741E2,2.368894339E0,-1.068395257E0,9.573084831E0
4.175286741E2,2.036890268E0,-7.848458290E-1,1.053499985E1
4.180286741E2,1.719243050E0,-1.264606714E0,1.068814087E1
4.185286741E2,1.758126378E0,-1.100698471E0,1.010249710E1
4.190286741E2,1.673181176E0,-9.236295223E-1,9.316454887E0
4.195286741E2,1.747956991E0,-8.488538265E-1,8.644071579E0
4.200286741E2,1.852044702E0,-1.012762189E0,9.070592880E0
4.205286741E2,2.128415823E0,-1.034895778E0,9.262018204E0
4.210286741E2,1.536192179E0,-1.103689432E0,9.834501266E0
4.215286741E2,1.394417405E0,-1.046859860E0,1.005763149E1
4.220286741E2,2.148754835E0,-6.652047038E-1,9.960124016E0
4.225286741E2,2.100898266E0,-7.956135273E-1,1.007737255E1
4.230286741E2,1.511067510E0,-7.704889178E-1,9.806983948E0
4.235286741E2,1.957328916E0,-1.077966571E0,9.299705505E0
4.240286741E2,1.326820135E0,-1.106680512E0,9.661021233E0
4.245286741E2,1.804188251E0,-3.463610709E-1,9.014361382E0
4.250286741E2,1.343569875E0,-1.708475351E0,7.545167923E0
4.255286741E2,2.035693884E0,-9.894321561E-1,1.133839035E1
4.260286741E2,1.439282775E0,-1.556531072E0,9.641879082E0
4.265286741E2,2.434098721E0,-1.272981644E0,8.807381630E0
4.270286741E2,1.232901812E0,-1.161715388E0,9.270991325E0
4.275286741E2,2.069193363E0,-1.289133191E0,9.869794846E0
4.280286741E2,1.566700578E0,-1.582253933E0,1.061815071E1
4.285286741E2,1.292124271E0,-1.365105271E0,9.710074425E0
4.290286741E2,2.332403898E0,-1.372283816E0,9.292527199E0
4.295286741E2,1.948953986E0,-1.758126378E0,1.073898792E1
4.300286741E2,1.537388563E0,-1.585843205E0,9.781859398E0
4.305286741E2,1.489532113E0,-1.441675663E0,9.278169632E0
4.310286741E2,2.449054003E0,-1.204786181E0,9.371489525E0
4.315286741E2,1.899901152E0,-7.932206988E-1,9.220144272E0
4.320286741E2,1.998605132E0,-7.896314859E-1,1.076471043E1
4.325286741E2,1.118046403E0,-8.069794178E-1,9.488140106E0
4.330286741E2,1.804188251E0,-7.686942816E-1,9.488738060E0
4.335286741E2,2.354537487E0,-5.706881881E-1,9.699306488E0
4.340286741E2,1.499103427E0,-1.293320656E0,9.859625816E0
4.345286741E2,1.554138303E0,-1.247856975E0,9.608379364E0
4.350286741E2,1.637887120E0,-8.602197170E-1,9.017352104E0
4.355286741E2,1.862812400E0,-1.473978758E0,1.027597713E1
4.360286741E2,1.244267821E0,-1.148554921E0,1.001515961E1
4.365286741E2,1.815554142E0,-1.424327731E0,9.483354568E0
4.370286741E2,1.000199914E0,-1.479960799E0,9.955936432E0
4.375286741E2,2.057827473E0,-1.240678549E0,9.697511673E0
4.380286741E2,1.278963685E0,-1.126421213E0,1.041057301E1
4.385286741E2,2.040479422E0,-9.858429432E-1,9.202795982E0
4.390286741E2,1.112064362E0,-1.521835208E0,1.056311512E1
4.395286741E2,1.630110383E0,-1.323829174E0,8.732007980E0
4.400286741E2,7.944171429E-1,-1.223928809E0,9.856635094E0
4.405286741E2,9.056833982E-1,-1.481755376E0,9.247062683E0
4.410286741E2,1.816750646E0,-7.495517135E-1,1.110927773E1
4.415286741E2,7.178468108E-1,-1.453639746E0,9.022735596E0
4.420286741E2,9.840483069E-1,-9.032905698E-1,9.710074425E0
4.425286741E2,1.593619823E0,-7.704889178E-1,9.262018204E0
4.430286741E2,1.615155339E-1,-9.254241586E-1,9.881160736E0
4.435286741E2,1.350748420E0,-9.583254457E-1,9.723235130E0
4.440286741E2,1.332203984E0,-9.140582681E-1,1.053799057E1
4.445286741E2,3.122633696E-1,-6.155536175E-1,8.234899521E0
4.450286741E2,-4.989035130E-1,-1.309472203E0,9.321240425E0
4.455286741E2,1.241276741E0,-1.281356573E0,1.037348461E1
4.460286741E2,7.836494446E-1,-8.997012973E-1,9.128020287E0
4.465286741E2,-1.974078715E-1,-1.105484009E0,8.744570732E0
4.470286741E2,6.299105883E-1,-1.464407444E0,1.062772179E1
4.475286741E2,1.506281853E0,-1.416550994E0,9.603593826E0
4.480286741E2,1.732403636E0,-1.265205026E0,9.047860146E0
4.485286741E2,1.783849239E0,-1.481755376E0,1.000798035E1
4.490286741E2,1.600200176E0,-1.530210137E0,9.054440498E0
4.495286741E2,1.908276081E0,-1.494915962E0,1.165304661E1
4.500286741E2,1.362114310E0,-1.704886079E0,8.797212601E0
4.505286741E2,1.128215909E0,-1.210768223E0,1.039561844E1
4.510286741E2,8.949156404E-1,-1.456032634E0,9.314660072E0
4.515286741E2,1.134197950E0,-1.310070395E0,9.692726135E0
4.520286741E2,1.599601984E0,-1.234696507E0,9.603593826E0
4.525286741E2,9.152546525E-1,-1.481755376E0,9.761520386E0
4.530286741E2,1.146760225E0,-1.446461320E0,9.625128746E0
4.535286741E2,9.792626500E-1,-1.542772412E0,1.006899738E1
4.540286741E2,1.526620865E0,-1.444068432E0,9.604789734E0
4.545286741E2,1.920838356E0,-1.250249863E0,8.981459618E0
4.550286741E2,1.188634634E0,-1.001396298E0,9.055637360E0
4.555286741E2,1.968694806E0,-1.091127157E0,1.097228813E1
4.560286741E2,9.074779749E-1,-1.515254974E0,9.553942680E0
4.565286741E2,1.706680775E0,-1.027717352E0,9.837491989E0
4.570286741E2,1.245464206E0,-1.403390527E0,9.596415520E0
4.575286741E2,1.353141189E0,-1.772483349E0,9.354740143E0
4.580286741E2,1.509272933E0,-1.743171334E0,9.957133293E0
4.585286741E2,1.476969719E0,-2.014756680E0,9.153144836E0
4.590286741E2,1.025324464E0,-2.319841623E0,9.741779327E0
4.595286741E2,1.001396298E0,-2.851048231E0,9.689735413E0
4.600286741E2,1.281356573E0,-2.519043922E0,1.014556789E1
4.605286741E2,6.574280262E-1,-2.548954248E0,8.073383331E0
4.610286741E2,2.309672117E0,-3.186043262E0,9.161520004E0
4.615286741E2,3.078964472E0,-2.207977057E0,9.383454323E0
4.620286741E2,3.153740168E0,-1.791027784E0,9.403793335E0
4.625286741E2,1.896311998E0,-1.269990563E0,8.181658745E0
4.630286741E2,-9.870393574E-2,-1.146760225E0,1.121934700E1
4.635286741E2,-1.475175142E0,-3.218346536E-1,9.188439369E0
4.640286741E2,-5.712863803E-1,-1.405783296E-1,9.847063065E0
4.645286741E2,-5.826523304E-1,-2.213360965E-1,1.013479996E1
4.650286741E2,1.444068432E0,-8.087740541E-1,1.038485050E1
4.655286741E2,1.871187329E0,1.423729509E-1,9.134600639E0
4.660286741E2,2.177468538E0,-1.018146038E0,8.956933022E0
4.665286741E2,2.309672117E0,-8.027920127E-1,9.277571678E0
4.670286741E2,2.633899450E0,-5.617151260E-1,9.223732948E0
4.675286741E2,2.003390789E0,-7.597211599E-1,9.242876053E0
4.680286741E2,1.183250785E0,-2.452643216E-1,8.650651932E0
4.685286741E2,1.514058471E0,-5.808576941E-1,1.091605663E1
4.690286741E2,1.514058471E0,-7.435696125E-1,9.674779892E0
4.695286741E2,1.408176184E0,-6.191428304E-1,9.204590797E0
4.700286741E2,5.533402562E-1,-7.357929349E-1,8.840283394E0
4.705286741E2,8.003991842E-1,-8.386843204E-1,8.842676163E0
4.710286741E2,8.931210637E-1,-9.176474810E-1,8.075178146E0
4.715286741E2,1.537388563E0,-4.486542344E-1,8.950951576E0
4.720286741E2,1.850848317E0,-5.802595019E-1,9.031708717E0
4.725286741E2,1.457827210E0,-7.016952634E-1,8.577073097E0
4.730286741E2,1.429711580E0,-9.188438654E-1,9.393025398E0
4.735286741E2,2.105684042E0,-1.440479279E0,9.811769485E0
4.740286741E2,1.971685886E0,-1.501496196E0,9.386445045E0
4.745286741E2,2.541177750E0,-1.100698471E0,1.041954613E1
4.750286741E2,1.771885157E0,-1.252044439E0,8.935996056E0
4.755286741E2,2.130808592E0,-1.891526341E0,1.011027431E1
4.760286741E2,2.922234535E0,-1.855633974E0,1.018026352E1
4.765286741E2,2.946162939E0,-1.944168448E0,1.022213840E1
4.770286741E2,2.401197433E0,-1.419542074E0,9.641879082E0
4.775286741E2,2.155334949E0,-1.390828133E0,9.534799576E0
4.780286741E2,1.625324726E0,-1.386042476E0,8.604590416E0
4.785286741E2,1.025922656E0,-1.252642632E0,8.179863930E0
4.790286741E2,2.102692842E0,-1.732403636E0,8.955139160E0
4.795286741E2,1.676770449E0,-1.039681435E0,8.950352669E0
4.800286741E2,1.730608940E0,-1.568495274E0,8.632107735E0
4.805286741E2,1.243071318E0,-1.242473125E0,9.592227936E0
4.810286741E2,1.795813441E0,-1.491924882E0,9.349954605E0
4.815286741E2,1.081555843E0,-1.295115232E0,1.006720352E1
4.820286741E2,9.266205430E-1,-1.524826288E0,9.111868858E0
4.825286741E2,5.407779217E-1,-1.084546804E0,8.927022934E0
4.830286741E2,1.298106313E0,-7.722834945E-1,1.022213840E1
4.835286741E2,5.676971674E-1,-1.486541033E0,8.880961418E0
4.840286741E2,1.282552958E0,-8.745766878E-1,1.159382439E1
4.845286741E2,4.989035130E-1,-1.153340459E0,8.558527946E0
4.850286741E2,4.528416991E-1,-1.548754454E0,9.743574142E0
4.855286741E2,-2.763710022E-1,-1.240678549E0,8.216953278E0
4.860286741E2,9.876375198E-1,-1.475175142E0,1.213460159E1
4.865286741E2,-2.512463741E-2,-4.947160780E-1,9.360722542E0
4.870286741E2,1.130608678E0,-1.600200176E0,9.661021233E0
4.875286741E2,4.067798555E-1,-7.465606928E-1,1.064925671E1
4.880286741E2,6.987041831E-1,-7.214360237E-1,8.177471161E0
4.885286741E2,9.696913958E-1,-7.884350419E-1,8.551948547E0
4.890286741E2,1.509272933E0,-6.921239495E-1,1.117149067E1
4.895286741E2,1.432702541E0,-9.702895880E-1,9.375079155E0
4.900286741E2,1.469193101E0,-7.597211599E-1,9.976275444E0
4.905286741E2,1.458425403E0,-7.447660565E-1,9.803992271E0
4.910286741E2,1.438684583E0,-9.942178130E-1,9.651450157E0
4.915286741E2,1.039681435E0,-7.501499057E-1,9.512067795E0
4.920286741E2,1.331605792E0,-9.320043921E-1,9.541379929E0
4.925286741E2,1.159920812E0,-8.009973764E-1,1.055713367E1
4.930286741E2,1.408774376E0,-6.305087805E-1,9.333204269E0
4.935286741E2,9.457631707E-1,-9.541380405E-1,9.105288506E0
4.940286741E2,1.530210137E0,-5.970092416E-1,9.814162254E0
4.945286741E2,2.083550215E0,-8.985049129E-1,1.111406326E1
4.950286741E2,1.843669891E0,-1.115055323E0,9.390632629E0
4.955286741E2,1.499701619E0,-1.038485050E0,1.045962620E1
4.960286741E2,9.493523836E-1,-6.831508875E-1,9.050851822E0
4.965286741E2,1.929811478E0,-1.083350420E0,9.178867340E0
4.970286741E2,1.249053478E0,-7.549355626E-1,9.314062119E0
4.975286741E2,1.657627940E0,-6.664010882E-1,9.428917885E0
4.980286741E2,1.149751306E0,-1.194616675E0,9.048459053E0
4.985286741E2,8.075776696E-1,-9.248259664E-1,9.244669914E0
4.990286741E2,8.673982024E-1,-7.944171429E-1,9.668199539E0
4.995286741E2,8.823533654E-1,-1.716850281E0,1.001994514E1
5.000286741E2,1.275972724E0,-1.319641709E0,9.708279610E0
5.005286741E2,8.027920127E-1,-1.211964726E0,8.971290588E0
5.010286741E2,9.667003751E-1,-2.066202402E0,1.040758228E1
5.015286741E2,2.333002090E-1,-2.619542599E0,9.287142754E0
5.020286741E2,3.128615618E-1,-3.174677372E0,1.005823040E1
5.025286741E2,1.121635556E0,-2.542972326E0,1.098185921E1
5.030286741E2,9.774680734E-1,-2.757728100E0,9.885947227E0
5.035286741E2,1.027717352E0,-2.313261271E0,8.732605934E0
5.040286741E2,2.516052961E0,-2.097907305E0,9.858428955E0
5.045286741E2,3.174079180E0,-2.622533560E0,8.824729919E0
5.050286741E2,4.058227062E0,-2.790031195E0,8.676374435E0
5.055286741E2,3.336791277E0,-2.605185747E0,9.148359299E0
5.060286741E2,3.333800077E0,-1.561316729E0,9.268598557E0
5.065286741E2,1.503889084E0,-1.259821177E0,8.830712318E0
5.070286741E2,-6.699903309E-2,-8.422735929E-1,9.413364410E0
5.075286741E2,-6.137589812E-1,-5.868397355E-1,8.608179092E0
5.080286741E2,-1.813759565E0,-4.414757788E-1,9.507881165E0
5.085286741E2,-1.618744493E0,-5.228317380E-1,9.632308006E0
5.090286741E2,-7.657032460E-2,-6.640082598E-1,1.091246796E1
5.095286741E2,2.223530531E0,-1.461416483E0,9.263813019E0
5.100286741E2,3.042474031E0,-6.508477330E-1,8.956933022E0
5.105286741E2,4.034298897E0,-2.250449657E0,8.490931511E0
5.110286741E2,5.838487148E0,2.105683982E-1,8.307880402E0
5.115286741E2,4.983651161E0,3.158525825E-1,9.184849739E0
5.120286741E2,4.016951084E0,-2.279163599E-1,8.813961983E0
5.125286741E2,3.973880291E0,-3.140579760E-1,9.186644554E0
5.130286741E2,3.456432343E0,-2.805584669E-1,8.854640007E0
5.135286741E2,3.555734396E0,-3.475574851E-1,9.258428574E0
5.140286741E2,3.769891977E0,-2.039881349E-1,8.995817184E0
5.145286741E2,2.791227579E0,-3.828516304E-1,9.022735596E0
5.150286741E2,3.389433384E0,-8.913264424E-2,8.892925262E0
5.155286741E2,3.443870068E0,-1.896311939E-1,9.534799576E0
5.160286741E2,3.627519131E0,-3.625126183E-1,9.245866776E0
5.165286741E2,3.577867985E0,-3.541377485E-1,9.405587196E0
5.170286741E2,3.713660717E0,-1.423729509E-1,9.290133476E0
5.175286741E2,3.050250769E0,-4.342973232E-1,9.151350021E0
5.180286741E2,3.547359467E0,-5.503492355E-1,8.455039024E0
5.185286741E2,3.860819340E0,-5.467599630E-1,9.649057388E0
5.190286741E2,3.958925009E0,-4.193421602E-1,9.341579437E0
5.195286741E2,3.108874798E0,-8.051848412E-1,8.263014793E0
5.200286741E2,3.712464333E0,-5.204389095E-1,9.914660454E0
5.205286741E2,3.938585997E0,-4.671986103E-1,9.325428009E0
5.210286741E2,3.260220766E0,-5.180460811E-1,8.909076691E0
5.215286741E2,4.320241451E0,-4.438686073E-1,9.912267685E0
5.220286741E2,3.700500250E0,-3.696911037E-1,9.349954605E0
5.225286741E2,4.210171223E0,-5.347958803E-1,9.218349457E0
5.230286741E2,4.102494240E0,-4.420739710E-1,8.770891190E0
5.235286741E2,4.735994339E0,-6.891329288E-1,8.417949677E0
5.240286741E2,5.158925533E0,-1.591227055E-1,8.377870560E0
5.245286741E2,4.833501816E0,-3.942175210E-1,8.130811691E0
5.250286741E2,5.345565796E0,-3.493520916E-1,9.577870369E0
5.255286741E2,5.516054630E0,-3.637090325E-1,8.225327492E0
5.260286741E2,4.545166492E0,-4.911268353E-1,7.961519241E0
5.265286741E2,4.484149456E0,-5.539384484E-1,9.026923180E0
5.270286741E2,4.851448059E0,-2.554338276E-1,8.986245155E0
5.275286741E2,3.454039574E0,-5.551348329E-1,9.238089561E0
5.280286741E2,4.066003799E0,-3.714857101E-1,8.843872070E0
5.285286741E2,3.008376360E0,-5.754738450E-1,9.366703987E0
5.290286741E2,3.426522017E0,-4.229314029E-1,9.271589279E0
5.295286741E2,3.598805189E0,-4.325026870E-1,8.725427628E0
5.300286741E2,3.705883980E0,-3.990031779E-1,8.681160927E0
5.305286741E2,3.444468260E0,-5.180460811E-1,9.012566566E0
5.310286741E2,4.037290096E0,-3.637090325E-1,9.318847656E0
5.315286741E2,3.452244759E0,-6.334998012E-1,8.347361565E0
5.320286741E2,3.544966698E0,-3.780659735E-1,8.232506752E0
5.325286741E2,3.635295868E0,-4.773681164E-1,1.001037312E1
5.330286741E2,3.800998688E0,-3.188436031E-1,8.754739761E0
5.335286741E2,3.683750391E0,-5.515456200E-1,8.598608017E0
5.340286741E2,3.598805189E0,-3.367897868E-1,8.786444664E0
5.345286741E2,3.461816072E0,-3.385843933E-1,9.794421196E0
5.350286741E2,3.343371391E0,-3.050848842E-1,8.257032394E0
5.355286741E2,3.839283943E0,-3.954139352E-1,1.011206818E1
5.360286741E2,3.483949661E0,-3.936193287E-1,8.500502586E0
5.365286741E2,3.317648649E0,-4.576273263E-1,9.457631111E0
5.370286741E2,3.881158352E0,-6.095715761E-1,9.309874535E0
5.375286741E2,3.592823267E0,-5.180460811E-1,8.863015175E0
5.380286741E2,3.669393539E0,-5.946164131E-1,9.559925079E0
5.385286741E2,3.443870068E0,-3.720839322E-1,8.419744492E0
5.390286741E2,3.956532240E0,-6.909275651E-1,9.065806389E0
5.395286741E2,3.326023579E0,-1.052841991E-1,8.947959900E0
5.400286741E2,3.286541939E0,-5.569294691E-1,8.493324280E0
5.405286741E2,2.547159672E0,6.221338734E-2,1.101775169E1
5.410286741E2,3.817748547E0,1.992024779E-1,8.237890244E0
5.415286741E2,2.976671457E0,1.166501045E-1,9.495916367E0
5.420286741E2,3.306880951E0,-1.290927768E0,9.483354568E0
5.425286741E2,3.710071564E0,-1.308275819E0,9.467801094E0
5.430286741E2,3.056830883E0,-2.090130568E0,9.531210899E0
5.435286741E2,2.477767944E0,-1.801197290E0,9.896714211E0
5.440286741E2,2.709871531E0,-2.225325108E0,9.586843491E0
5.445286741E2,2.577668190E0,-2.154736757E0,1.058704376E1
5.450286741E2,2.437089920E0,-2.198405743E0,9.151947975E0
5.455286741E2,2.397608280E0,-2.206182480E0,9.493523598E0
5.460286741E2,2.238485575E0,-2.073380709E0,8.687741280E0
5.465286741E2,1.832902193E0,-2.102094650E0,8.933603287E0
5.470286741E2,2.011765718E0,-2.167897224E0,9.534799576E0
5.475286741E2,2.175673962E0,-2.317448616E0,9.722636223E0
5.480286741E2,1.780260086E0,-2.274976015E0,9.678369522E0
5.485286741E2,1.922034740E0,-2.032104731E0,9.371489525E0
5.490286741E2,2.019542217E0,-2.293520451E0,1.002233791E1
5.495286741E2,2.153540373E0,-2.166700840E0,8.974281311E0
5.500286741E2,2.754737139E0,-2.198405743E0,9.265008926E0
5.505286741E2,1.437488198E0,-2.137388945E0,8.822935104E0
5.510286741E2,2.243271112E0,-2.044667006E0,8.787641525E0
5.515286741E2,2.435893536E0,-2.035693884E0,9.204590797E0
5.520286741E2,2.311466694E0,-1.931606054E0,9.971489906E0
5.525286741E2,1.867598057E0,-2.305484533E0,9.863214493E0
5.530286741E2,2.448455811E0,-2.013560295E0,9.740582466E0
5.535286741E2,2.519043922E0,-1.864607096E0,9.698708534E0
5.540286741E2,1.698904037E0,-2.167897224E0,8.992227554E0
5.545286741E2,2.032104731E0,-1.942971945E0,8.937790871E0
5.550286741E2,1.970489502E0,-2.263610125E0,9.917053223E0
5.555286741E2,1.547558069E0,-2.453839540E0,9.218947411E0
5.560286741E2,2.073979139E0,-2.079961061E0,9.887143135E0
5.565286741E2,1.511067510E0,-2.341975212E0,9.920642853E0
5.570286741E2,1.657029629E0,-2.213959217E0,8.848658562E0
5.575286741E2,1.845464468E0,-1.909472466E0,9.019744873E0
5.580286741E2,1.684547186E0,-2.266601324E0,9.261420250E0
5.585286741E2,1.901097536E0,-2.359323025E0,1.000678444E1
5.590286741E2,1.563709617E0,-2.386242390E0,9.381659508E0
5.595286741E2,1.764108539E0,-1.968096614E0,9.371489525E0
5.600286741E2,2.515454769E0,-2.072184324E0,9.110074043E0
5.605286741E2,2.135594130E0,-1.987837434E0,9.196215630E0
5.610286741E2,1.848455548E0,-2.203191519E0,8.885149002E0
5.615286741E2,1.692921996E0,-2.346162558E0,9.665208817E0
5.620286741E2,2.002194405E0,-2.335394859E0,9.151947975E0
5.625286741E2,2.030309916E0,-2.187039852E0,9.544371605E0
5.630286741E2,1.414756417E0,-2.252842426E0,8.229515076E0
5.635286741E2,2.715255499E0,-2.131406784E0,9.378069878E0
5.640286741E2,2.333600283E0,-2.341377020E0,9.223732948E0
5.645286741E2,2.191825628E0,-2.312663078E0,1.016949654E1
5.650286741E2,2.220539331E0,-2.247458696E0,9.792626381E0
5.655286741E2,1.984846354E0,-2.312663078E0,9.579067230E0
5.660286741E2,1.778465390E0,-1.945963025E0,9.426525116E0
5.665286741E2,9.218349457E-1,-2.261815548E0,8.548956871E0
5.670286741E2,2.462812662E0,-1.880758643E0,8.658429146E0
5.675286741E2,9.343972206E-1,-2.523829699E0,9.274580956E0
5.680286741E2,2.398804665E0,-1.953739643E0,9.483354568E0
5.685286741E2,1.872383714E0,-2.374876499E0,9.904491425E0
5.690286741E2,1.813759565E0,-2.321038008E0,9.366703987E0
5.695286741E2,1.890329838E0,-2.072184324E0,9.211171150E0
5.700286741E2,1.402194023E0,-2.365903378E0,8.495717049E0
5.705286741E2,2.030908108E0,-2.324627161E0,9.020941734E0
5.710286741E2,1.698904037E0,-2.357528448E0,9.378069878E0
5.715286741E2,1.363908887E0,-2.405385017E0,9.298508644E0
5.720286741E2,1.631905079E0,-2.459821701E0,9.638289452E0
5.725286741E2,1.912463546E0,-2.258824587E0,9.665806770E0
5.730286741E2,2.593819857E0,-2.234896421E0,1.027836990E1
5.735286741E2,1.154536963E0,-2.545963287E0,9.266205788E0
5.740286741E2,1.695314884E0,-2.117049932E0,8.694320679E0
5.745286741E2,1.348355532E0,-2.184048891E0,8.977870941E0
5.750286741E2,1.606182218E0,-2.418545485E0,8.878568649E0
5.755286741E2,2.422732830E0,-2.075175524E0,9.181859016E0
5.760286741E2,1.886740685E0,-2.603390932E0,9.929018021E0
5.765286741E2,2.975475073E0,-2.327019930E0,1.032742214E1
5.770286741E2,2.935395241E0,-2.301895380E0,8.821140289E0
5.775286741E2,2.378465652E0,-2.271985054E0,9.163313866E0
5.780286741E2,2.472982168E0,-2.306680918E0,8.907281876E0
5.785286741E2,2.152343988E0,-2.269592285E0,8.706285477E0
5.790286741E2,2.006381750E0,-2.488535643E0,8.861818314E0
5.795286741E2,2.429313183E0,-2.438884497E0,9.041878700E0
5.800286741E2,3.013161898E0,-2.257030010E0,9.478569031E0
5.805286741E2,1.994417667E0,-2.169093609E0,8.502297401E0
5.810286741E2,2.121237278E0,-2.218744755E0,9.388239861E0
5.815286741E2,1.092921734E0,-2.421536446E0,8.940781593E0
5.820286741E2,1.190429211E0,-2.440679073E0,8.708678246E0
5.825286741E2,1.514058471E0,-2.576471806E0,9.814162254E0
5.830286741E2,2.003390789E0,-2.237887383E0,9.435498238E0
5.835286741E2,1.642672777E0,-2.295315027E0,8.802596092E0
5.840286741E2,1.220339537E0,-2.314457655E0,9.191430092E0
5.845286741E2,1.504487276E0,-2.053041935E0,9.427721024E0
5.850286741E2,1.269990563E0,-2.705684185E0,8.902496338E0
5.855286741E2,1.664208174E0,-2.300100803E0,9.613164902E0
5.860286741E2,1.791625977E0,-2.343769789E0,9.617950439E0
5.865286741E2,1.898106575E0,-2.148754835E0,9.788438797E0
5.870286741E2,2.777468920E0,-2.136192322E0,9.516854286E0
5.875286741E2,1.576271892E0,-2.376671076E0,9.425926208E0
5.880286741E2,2.565105915E0,-2.210968018E0,9.552147865E0
5.885286741E2,2.182254314E0,-2.297109842E0,1.036570740E1
5.890286741E2,2.284547329E0,-2.281556368E0,1.008156013E1
5.895286741E2,1.369890928E0,-2.480758905E0,9.244669914E0
5.900286741E2,1.345962763E0,-2.322234392E0,9.478569031E0
5.905286741E2,1.575673699E0,-2.099103689E0,8.361719131E0
5.910286741E2,1.901097536E0,-2.523231506E0,9.644869804E0
5.915286741E2,2.365305185E0,-2.895315409E0,9.771091461E0
5.920286741E2,1.469193101E0,-3.016152859E0,1.029093170E1
5.925286741E2,2.697907448E0,-2.399402857E0,1.061635590E1
5.930286741E2,2.185245275E0,-2.334198475E0,8.797810555E0
5.935286741E2,1.735394597E0,-2.592623234E0,8.974879265E0
5.940286741E2,1.712064624E0,-2.844467878E0,9.569496155E0
5.945286741E2,1.646261930E0,-2.845664263E0,9.167501450E0
5.950286741E2,2.008774519E0,-2.569891453E0,9.014361382E0
5.955286741E2,1.688136339E0,-2.913261652E0,9.908080101E0
5.960286741E2,2.288734913E0,-2.565105915E0,9.572486877E0
5.965286741E2,8.650053740E-1,-2.970689297E0,8.879166603E0
5.970286741E2,1.585843205E0,-2.630908489E0,8.796015739E0
5.975286741E2,1.590030670E0,-2.793022156E0,9.378668785E0
5.980286741E2,1.965703845E0,-2.400599241E0,9.139386177E0
5.985286741E2,1.816750646E0,-2.882753134E0,9.491728783E0
5.990286741E2,1.341775298E0,-3.080759048E0,9.277571678E0
5.995286741E2,2.044667006E0,-3.431307554E0,9.553942680E0
6.000286741E2,1.705484390E0,-3.577867985E0,8.652446747E0
6.005286741E2,1.460818172E0,-3.635894060E0,8.998209953E0
6.010286741E2,1.303490162E0,-3.305684566E0,7.361518860E0
6.015286741E2,1.724028707E0,-3.506681681E0,9.138788223E0
6.020286741E2,2.121835470E0,-3.310470104E0,8.737391472E0
6.025286741E2,1.989632010E0,-3.552145243E0,9.294919968E0
6.030286741E2,1.594816327E0,-3.804588079E0,8.765507698E0
6.035286741E2,1.606780410E0,-3.676572084E0,9.098708153E0
6.040286741E2,1.757528186E0,-3.835096598E0,1.013479996E1
6.045286741E2,1.625324726E0,-3.835096598E0,9.614361763E0
6.050286741E2,1.578066587E0,-3.379862070E0,9.483354568E0
6.055286741E2,6.185446382E-1,-3.973880291E0,7.189833641E0
6.060286741E2,7.357929349E-1,-3.807579041E0,8.837890625E0
6.065286741E2,1.459621787E0,-3.842873096E0,8.973084450E0
6.070286741E2,1.252642632E0,-3.464807272E0,8.744570732E0
6.075286741E2,1.600200176E0,-3.756731510E0,9.760921478E0
6.080286741E2,2.019542217E0,-3.704089403E0,8.320442200E0
6.085286741E2,1.983051777E0,-3.876372576E0,8.572885513E0
6.090286741E2,2.510669231E0,-3.268595695E0,9.092725754E0
6.095286741E2,2.244467735E0,-3.236890793E0,9.292527199E0
6.100286741E2,2.214557409E0,-3.305684566E0,8.595019341E0
6.105286741E2,1.030708313E0,-2.901895761E0,9.265008926E0
6.110286741E2,1.579262972E0,-2.807977438E0,1.012821960E1
6.115286741E2,1.375274777E0,-2.274377823E0,9.799206734E0
6.120286741E2,1.673779488E0,-2.056032896E0,9.546165466E0
6.125286741E2,2.242672920E0,-1.523629785E0,9.390632629E0
6.130286741E2,2.037488461E0,-1.788634896E0,9.329017639E0
6.135286741E2,3.355933666E0,-1.204187989E0,8.821140289E0
6.140286741E2,3.603590965E0,-1.891526341E0,9.206384659E0
6.145286741E2,4.482355118E0,-1.594816327E0,8.145168304E0
6.150286741E2,5.444269657E0,-1.663609982E0,8.213363647E0
6.155286741E2,5.905486107E0,-1.447059512E0,8.068597794E0
6.160286741E2,6.524031162E0,-1.580459356E0,9.069993973E0
6.165286741E2,5.825924873E0,-1.861616015E0,8.112865448E0
6.170286741E2,5.995217323E0,-1.359123230E0,7.963313580E0
6.175286741E2,5.530411243E0,-1.278963685E0,9.121439934E0
6.180286741E2,3.436093330E0,-5.635097623E-1,8.627322197E0
6.185286741E2,2.153540373E0,-1.630708575E0,1.068993473E1
6.190286741E2,6.185446382E-1,-1.529611826E0,9.665806770E0
6.195286741E2,9.427721500E-1,-1.648056626E0,9.679565430E0
6.200286741E2,1.242473125E0,-1.360917926E0,1.002712345E1
6.205286741E2,1.800599098E-1,-1.607976794E0,8.438887596E0
6.210286741E2,1.754537225E0,-1.476969719E0,1.068455124E1
6.215286741E2,1.044467092E0,-1.852044702E0,9.565308571E0
6.220286741E2,7.704889178E-1,-2.352742910E0,9.579665184E0
6.225286741E2,9.439685345E-1,-2.520838737E0,9.239286423E0
6.230286741E2,7.292127013E-1,-2.487339020E0,9.108279228E0
6.235286741E2,1.509272933E0,-2.472982168E0,9.719645500E0
6.240286741E2,1.879562140E0,-2.260619164E0,9.474381447E0
6.245286741E2,1.352542996E0,-2.083550215E0,9.636494637E0
6.250286741E2,2.310270309E0,-2.049452543E0,1.014915752E1
6.255286741E2,1.205982566E0,-1.898704767E0,9.076574326E0
6.260286741E2,8.733802289E-2,-2.178664923E0,1.086341476E1
6.265286741E2,-7.070791125E-1,-2.062613010E0,9.918848038E0
6.270286741E2,-8.291130662E-1,-2.121835470E0,1.055533886E1
6.275286741E2,-1.140179992E0,-2.015953064E0,9.503094673E0
6.280286741E2,-1.841277003E0,-2.011167526E0,9.759127617E0
6.285286741E2,-1.660618901E0,-1.978266120E0,1.013420200E1
6.290286741E2,-1.939980984E0,-2.018345833E0,9.817152977E0
6.295286741E2,-2.222334146E0,-1.561316729E0,8.428717613E0
6.300286741E2,-1.239482164E0,-1.579262972E0,9.692128181E0
6.305286741E2,-1.840678811E0,-1.709671736E0,9.807581902E0
6.310286741E2,-1.333998680E0,-1.445264935E0,9.041878700E0
6.315286741E2,-1.107278705E0,-1.726421595E0,1.051585770E1
6.320286741E2,-7.639086246E-1,-1.757528186E0,9.510871887E0
6.325286741E2,-7.531409264E-1,-1.930409670E0,1.057328510E1
6.330286741E2,3.708875179E-2,-1.606182218E0,1.007019424E1
6.335286741E2,3.523431420E-1,-1.718046665E0,9.803992271E0
6.340286741E2,-1.004985496E-1,-1.759921074E0,8.534600258E0
6.345286741E2,6.520441771E-1,-1.939382792E0,9.348159790E0
6.350286741E2,5.395814776E-1,-1.997408748E0,1.007019424E1
6.355286741E2,-3.302095234E-1,-2.142174482E0,8.660821915E0
6.360286741E2,2.099701881E0,-1.939980984E0,1.000379372E1
6.365286741E2,1.351346612E0,-2.150549412E0,9.232706070E0
6.370286741E2,2.513660192E0,-1.596610904E0,1.049850941E1
6.375286741E2,1.262213945E0,-1.882553220E0,9.483952522E0
6.380286741E2,4.797609448E-1,-2.157129526E0,8.751749039E0
6.385286741E2,1.646261930E0,-2.446661234E0,9.851848602E0
6.390286741E2,1.261615753E0,-2.466402054E0,9.860223770E0
6.395286741E2,-6.879365444E-2,-2.793022156E0,8.722436905E0
6.400286741E2,8.787640929E-1,-2.861815929E0,9.991230965E0
6.405286741E2,1.256231815E-1,-2.883949518E0,9.141778946E0
6.410286741E2,7.609176040E-1,-3.330809116E0,9.309874535E0
6.415286741E2,6.442674994E-1,-3.809373617E0,7.942974567E0
6.420286741E2,8.889335990E-1,-4.287938118E0,9.948160172E0
6.425286741E2,7.830511928E-1,-3.723232031E0,1.017547798E1
6.430286741E2,9.702895880E-1,-3.041875839E0,8.964710236E0
6.435286741E2,1.412961721E0,-3.549154282E0,1.021615601E1
6.440286741E2,1.078564763E0,-3.223730326E0,9.184849739E0
6.445286741E2,1.607976794E0,-1.305284739E0,1.069113159E1
6.450286741E2,1.466202021E0,-1.821536183E0,9.587442398E0
6.455286741E2,2.341377020E0,-1.008574724E0,8.885149002E0
6.460286741E2,8.434699774E-1,-2.365305185E0,9.646664619E0
6.465286741E2,1.933400750E0,-3.030509949E0,9.485149384E0
6.470286741E2,3.032304525E0,-2.730808735E0,9.495916367E0
6.475286741E2,3.801596880E0,-2.322832584E0,9.291928291E0
6.480286741E2,4.186243057E0,-2.139183521E0,9.299705505E0
6.485286741E2,4.341776848E0,-2.378465652E0,8.414361000E0
6.490286741E2,4.957928658E0,-1.496710539E0,8.912068367E0
6.495286741E2,4.939982414E0,-1.408774376E0,8.504091263E0
6.500286741E2,4.415356159E0,-7.465606928E-1,8.461020470E0
6.505286741E2,2.756531715E0,-2.237289101E-1,8.724231720E0
6.510286741E2,3.736392498E0,3.864408433E-1,9.424132347E0
6.515286741E2,2.748156786E0,-1.078564763E0,9.113663673E0
6.520286741E2,2.959323406E0,-5.282155871E-1,1.053499985E1
6.525286741E2,2.703889608E0,-5.898307562E-1,9.743574142E0
6.530286741E2,1.990828395E0,-4.259224236E-1,8.706883430E0
6.535286741E2,1.715055585E0,-1.079761267E0,1.023649502E1
6.540286741E2,1.314856052E0,-9.475577474E-1,9.875777245E0
6.545286741E2,1.496112347E0,-6.299105883E-1,9.952347755E0
6.550286741E2,9.990034699E-1,-8.889335990E-1,9.393025398E0
6.555286741E2,1.434497118E0,-9.792626500E-1,1.031426239E1
6.560286741E2,1.714457393E0,-8.949156404E-1,1.017787075E1
6.565286741E2,1.417747378E0,-8.243274093E-1,9.848857880E0
6.570286741E2,1.128215909E0,-1.266401410E0,9.668798447E0
6.575286741E2,1.802393675E0,-1.365105271E0,1.144726372E1
6.580286741E2,1.307677627E0,-1.354337573E0,9.169296265E0
6.585286741E2,1.289133191E0,-1.371685624E0,9.915857315E0
6.590286741E2,2.477169752E0,-8.075776696E-1,1.101775169E1
6.595286741E2,1.051047325E0,-8.458628058E-1,8.979066849E0
6.600286741E2,1.298106313E0,-1.275972724E0,9.971489906E0
6.605286741E2,1.797608018E0,-1.087537885E0,1.064028454E1
6.610286741E2,1.544566989E0,-8.913264275E-1,1.023828983E1
6.615286741E2,1.923829436E0,-1.345962763E0,1.055055332E1
6.620286741E2,1.789831281E0,-1.930409670E0,1.141735363E1
6.625286741E2,2.357528448E0,-8.548358679E-1,9.716654778E0
6.630286741E2,1.459621787E0,-1.733600020E0,9.583852768E0
6.635286741E2,1.368694544E0,-1.326820135E0,8.773882866E0
6.640286741E2,1.665404558E0,-1.569691658E0,9.538987160E0
6.645286741E2,1.279561877E0,-2.318047047E0,9.981060982E0
6.650286741E2,1.289133191E0,-1.684547186E0,8.968298912E0
6.655286741E2,7.064808607E-1,-1.822134495E0,1.031127071E1
6.660286741E2,9.690931439E-2,-1.606182218E0,1.025563812E1
6.665286741E2,7.064808607E-1,-1.805384636E0,1.104526901E1
6.670286741E2,-2.871387079E-2,-1.839482427E0,9.022735596E0
6.675286741E2,6.855437160E-1,-1.862812400E0,9.368498802E0
6.680286741E2,1.944168448E0,-2.026122570E0,9.627521515E0
6.685286741E2,2.377269268E0,-1.963310957E0,1.001456070E1
6.690286741E2,2.311466694E0,-1.777269006E0,9.464211464E0
6.695286741E2,2.887538671E0,-1.652244091E0,8.601000786E0
6.700286741E2,1.465603828E0,-1.812563181E0,8.735597610E0
6.705286741E2,2.262413740E0,-1.917847395E0,9.850054741E0
6.710286741E2,1.767099500E0,-2.549552441E0,9.290133476E0
6.715286741E2,2.027917147E0,-2.429313183E0,9.294919968E0
6.720286741E2,2.712264538E0,-2.854039192E0,1.019342422E1
6.725286741E2,1.941177368E0,-2.627319336E0,1.038006496E1
6.730286741E2,1.219143152E0,-2.217548370E0,8.159524918E0
6.735286741E2,1.657627940E0,-2.562114954E0,1.018744278E1
6.740286741E2,1.027717352E0,-2.678166628E0,8.825926781E0
6.745286741E2,1.339980721E0,-3.128615618E0,9.131011009E0
6.750286741E2,1.837687731E0,-2.989233732E0,9.410373688E0
6.755286741E2,1.221535921E0,-3.024527788E0,9.223732948E0
6.760286741E2,2.000399828E0,-2.501097918E0,9.930213928E0
6.765286741E2,1.323829174E0,-2.451446772E0,9.772287369E0
6.770286741E2,1.881955028E0,-3.553939819E0,1.009771156E1
6.775286741E2,1.280758262E0,-3.571886063E0,8.816354752E0
6.780286741E2,-2.524427772E-1,-3.744169235E0,1.002293587E1
6.785286741E2,-5.676971674E-1,-2.216950178E0,9.011369705E0
6.790286741E2,-5.820540786E-1,-1.805982947E0,1.033819008E1
6.795286741E2,-1.432702541E0,-1.843669891E0,9.116654396E0
6.800286741E2,-1.820339799E0,-1.547558069E0,1.036690426E1
6.805286741E2,-1.718046665E0,-1.182054400E0,8.216953278E0
6.810286741E2,-2.252842426E0,-8.009973764E-1,1.078026390E1
6.815286741E2,-1.673779488E0,-1.189831018E0,9.788438797E0
6.820286741E2,-2.314457655E0,-1.271187067E0,1.051884842E1
6.825286741E2,-1.783251047E0,-1.030110121E0,1.081376362E1
6.830286741E2,-2.121835470E0,-9.990034699E-1,1.022572803E1
6.835286741E2,-1.667199135E0,-9.553344250E-1,1.051525879E1
6.840286741E2,-4.342973232E-1,-8.536394835E-1,9.314062119E0
6.845286741E2,2.374876440E-1,-4.067798555E-1,1.087119102E1
6.850286741E2,5.946164131E-1,-9.463613629E-1,8.909076691E0
6.855286741E2,1.500898004E0,-7.740781307E-1,9.807581902E0
6.860286741E2,1.235892892E0,-7.722834945E-1,9.615557671E0
6.865286741E2,1.499103427E0,-9.966106415E-1,1.011027431E1
6.870286741E2,2.035095692E0,-1.070788145E0,1.079521942E1
6.875286741E2,1.128215909E0,-1.161715388E0,1.152981567E1
6.880286741E2,2.362912297E-1,-1.461416483E0,1.117747307E1
6.885286741E2,-3.170489892E-2,-1.064207911E0,8.645866394E0
6.890286741E2,2.536391914E-1,-1.166501045E0,8.794819832E0
6.895286741E2,1.068395257E0,-1.408176184E0,9.909276962E0
6.900286741E2,4.905286431E-2,-1.244267821E0,7.830512047E0
6.905286741E2,1.738983870E0,-1.424327731E0,9.948160172E0
6.910286741E2,1.855035782E0,-1.068993568E0,9.754940033E0
6.915286741E2,1.314257860E0,-1.496112347E0,9.019146919E0
6.920286741E2,1.886740685E0,-2.027318954E0,1.020419216E1
6.925286741E2,1.877169371E0,-1.747956991E0,9.559925079E0
6.930286741E2,1.391426325E0,-1.990828395E0,9.839286804E0
6.935286741E2,1.094716311E0,-1.673181176E0,9.717850685E0
6.940286741E2,1.642672777E0,-2.587239504E0,1.060379314E1
6.945286741E2,1.482353687E0,-1.869392633E0,9.762716293E0
6.950286741E2,1.056431174E0,-2.193022013E0,8.487939835E0
6.955286741E2,8.099704385E-1,-2.081755638E0,5.567500114E0
6.960286741E2,2.015953064E0,-1.688136339E0,8.739784241E0
6.965286741E2,1.084546804E0,-2.370688915E0,9.855438232E0
6.970286741E2,9.589236975E-1,-1.869990945E0,1.008933640E1
6.975286741E2,7.286145091E-1,-1.939382792E0,8.891729355E0
6.980286741E2,7.657032460E-2,-2.107478619E0,1.025683403E1
6.985286741E2,3.667000830E-1,-2.209173441E0,1.026819992E1
6.990286741E2,-2.249253243E-1,-1.652842283E0,7.720442295E0
6.995286741E2,3.332005441E-1,-1.539781332E0,8.255238533E0
7.000286741E2,3.541377485E-1,-2.035095692E0,7.993822098E0
7.005286741E2,5.234299302E-1,-1.941177368E0,8.824729919E0
7.010286741E2,-4.905286431E-2,-2.068595171E0,8.250452042E0
7.015286741E2,4.737788737E-1,-3.365504980E0,9.567701340E0
7.020286741E2,6.717849374E-1,-3.069393158E0,1.027956581E1
7.025286741E2,9.541380405E-1,-2.584248543E0,9.585647583E0
7.030286741E2,2.596212626E-1,-2.429313183E0,7.654041290E0
7.035286741E2,4.049852192E-1,-3.222533941E0,1.046321487E1
7.040286741E2,6.424728632E-1,-3.299104214E0,8.778069496E0
7.045286741E2,-1.794617064E-2,-3.404388428E0,7.808976650E0
7.050286741E2,-5.455635786E-1,-3.863212109E0,9.443872452E0
7.055286741E2,8.362914920E-1,-3.050250769E0,9.573084831E0
7.060286741E2,3.948157281E-2,-3.490530014E0,8.314460754E0
7.065286741E2,-3.619144261E-1,-3.640679598E0,9.339784622E0
7.070286741E2,2.093719840E-1,-3.013760090E0,8.657232285E0
7.075286741E2,4.450650215E-1,-3.413361549E0,1.024307537E1
7.080286741E2,2.937189937E-1,-3.166302681E0,9.842875481E0
7.085286741E2,-5.742774159E-2,-2.713460922E0,9.129216194E0
7.090286741E2,-1.196411322E-3,-2.848655462E0,8.769096375E0
7.095286741E2,7.956135273E-2,-2.935395241E0,8.702097893E0
7.100286741E2,-1.483550072E-1,-3.061018467E0,9.253643036E0
7.105286741E2,1.166501045E-1,-1.689332843E0,9.443872452E0
7.110286741E2,1.130608693E-1,-1.576271892E0,9.516854286E0
7.115286741E2,3.290131092E-1,-1.915454507E0,9.597013474E0
7.120286741E2,6.807580590E-1,-1.907677889E0,9.985847473E0
7.125286741E2,3.062812984E-1,-2.200200319E0,9.756733894E0
7.130286741E2,6.137589812E-1,-2.223530531E0,9.498309135E0
7.135286741E2,1.165902853E0,-2.263610125E0,9.574879646E0
7.140286741E2,2.183450609E-1,-2.012962103E0,9.368498802E0
7.145286741E2,1.112662554E-1,-2.313261271E0,9.394221306E0
7.150286741E2,-2.039881349E-1,-2.463410854E0,9.547362328E0
7.155286741E2,6.580262631E-2,-2.331805706E0,9.300303459E0
7.160286741E2,-1.806581169E-1,-2.420340061E0,9.546165466E0
7.165286741E2,2.261217386E-1,-2.372483730E0,9.607781410E0
7.170286741E2,8.614161611E-2,-2.351546526E0,9.540781975E0
7.175286741E2,6.699903309E-2,-2.347957134E0,9.607781410E0
7.180286741E2,8.315058798E-2,-2.405385017E0,9.711869240E0
7.185286741E2,-1.316052489E-2,-2.421536446E0,9.640084267E0
7.190286741E2,3.349951655E-2,-2.392822742E0,9.651450157E0
7.195286741E2,1.435693540E-2,-2.434697151E0,9.664012909E0
7.200286741E2,9.092725813E-2,-2.200200319E0,9.577272415E0
7.205286741E2,-5.264209956E-2,-2.020738840E0,9.775279045E0
7.210286741E2,1.136590727E-2,-1.351346612E0,9.826126099E0
7.215286741E2,2.709871531E-1,-1.116251707E0,1.008156013E1
7.220286741E2,-1.788634956E-1,-1.161117196E0,9.667003632E0
7.225286741E2,-2.093719877E-2,-1.232901812E0,9.652647018E0
7.230286741E2,-1.328016520E-1,-1.309472203E0,9.842875481E0
7.235286741E2,-1.926222295E-1,-1.079761267E0,9.185447693E0
7.240286741E2,-5.090730190E-1,-1.233500123E0,1.009591675E1
7.245286741E2,2.536391914E-1,-1.202991605E0,1.013300610E1
7.250286741E2,-1.501496136E-1,-3.007179976E0,9.290732384E0
7.255286741E2,6.807580590E-1,-7.310073376E-1,1.023170948E1
7.260286741E2,6.257231236E-1,-6.047859192E-1,9.905089378E0
7.265286741E2,4.917250574E-1,-7.334001660E-1,9.699306488E0
7.270286741E2,1.360319614E0,-7.166503668E-1,1.105005455E1
7.275286741E2,5.808576941E-1,-1.065404296E0,9.534201622E0
7.280286741E2,9.972088337E-1,-1.512263894E0,9.735198975E0
7.285286741E2,3.511467278E-1,-1.351346612E0,9.138788223E0
7.290286741E2,7.130611539E-1,-1.417747378E0,1.138385391E1
7.295286741E2,7.716853023E-1,-1.539183140E0,1.055832958E1
7.300286741E2,-3.445664644E-1,-1.644467354E0,9.663414001E0
7.305286741E2,-3.702892959E-1,-1.480558991E0,8.569893837E0
7.310286741E2,-3.445664644E-1,-2.100898266E0,8.725427628E0
7.315286741E2,5.395814776E-1,-2.389831543E0,1.051705360E1
7.320286741E2,2.410768867E-1,-2.809173822E0,1.115174961E1
7.325286741E2,-6.101697683E-2,-2.650051117E0,8.979664803E0
7.330286741E2,1.941177368E0,-2.740978241E0,1.101476097E1
7.335286741E2,1.124626637E0,-2.349751949E0,9.268000603E0
7.340286741E2,1.264606714E0,-1.903490424E0,9.673583984E0
7.345286741E2,-8.458628058E-1,-2.159522533E0,9.987641335E0
7.350286741E2,-8.691928387E-1,-2.184048891E0,9.346364975E0
7.355286741E2,-6.209374666E-1,-2.472383976E0,1.130189991E1
7.360286741E2,-1.927418590E0,-2.100898266E0,8.575876236E0
7.365286741E2,-2.190030813E0,-2.264806747E0,9.466006279E0
7.370286741E2,-1.309472203E0,-2.467598438E0,1.066421223E1
7.375286741E2,4.079762697E-1,-2.127817631E0,9.669994354E0
7.380286741E2,5.898307562E-1,-2.931805849E0,1.052004433E1
7.385286741E2,1.640279889E0,-1.690529227E0,9.845269203E0
7.390286741E2,9.972088337E-1,-2.078166485E0,9.881160736E0
7.395286741E2,1.619342685E0,-1.539183140E0,1.158425236E1
7.400286741E2,1.378265858E0,-1.662413478E0,1.075813103E1
7.405286741E2,3.888336718E-1,-1.970489502E0,9.017950058E0
7.410286741E2,-1.998006850E-1,-1.829312921E0,9.115457535E0
7.415286741E2,2.841476798E-1,-1.978266120E0,8.858229637E0
7.420286741E2,-1.375873089E-1,-2.370688915E0,8.756534576E0
7.425286741E2,1.663609982E0,-2.300698996E0,1.131446171E1
7.430286741E2,1.489532113E0,-2.170888424E0,8.984451294E0
7.435286741E2,3.170489967E-1,-2.081755638E0,9.113064766E0
7.440286741E2,4.911268353E-1,-2.807977438E0,1.091904831E1
7.445286741E2,3.314059377E-1,-2.769093990E0,9.739984512E0
7.450286741E2,4.642075896E-1,-2.605185747E0,9.477372169E0
7.455286741E2,8.374879360E-1,-2.073380709E0,8.785248756E0
7.460286741E2,1.189831018E0,-2.617748022E0,1.042313576E1
7.465286741E2,5.778666735E-1,-2.935395241E0,1.000798035E1
7.470286741E2,-1.758724600E-1,-2.628515720E0,6.878767014E0
7.475286741E2,1.794616925E-3,-3.354737282E0,1.036690426E1
7.480286741E2,4.612165689E-1,-2.727817774E0,8.712865829E0
7.485286741E2,1.021137118E0,-2.874378204E0,1.000020409E1
7.490286741E2,-9.409775138E-1,-2.675175667E0,9.507881165E0
7.495286741E2,3.655036688E-1,-2.855235577E0,8.601000786E0
7.500286741E2,3.649054468E-1,-3.054438114E0,1.066361427E1
7.505286741E2,-5.754738450E-1,-2.389233351E0,6.748956203E0
7.510286741E2,1.549352705E-1,-2.539382935E0,6.786045074E0
7.515286741E2,-8.913264275E-1,-3.832105398E0,8.985647202E0
7.520286741E2,1.519442350E-1,-3.915854216E0,9.186644554E0
7.525286741E2,-6.699903607E-1,-3.973282099E0,8.453244209E0
7.530286741E2,-2.500499785E-1,-3.603590965E0,1.045484066E1
7.535286741E2,8.937192559E-1,-3.437887907E0,9.620343208E0
7.540286741E2,1.131206870E0,-3.455235958E0,9.224929810E0
7.545286741E2,2.358126640E0,-2.304886341E0,9.005388260E0
7.550286741E2,2.767897606E0,-2.656033039E0,9.202795982E0
7.555286741E2,4.110869408E0,-1.905883193E0,9.565308571E0
7.560286741E2,3.924229145E0,-1.341775298E0,8.854640007E0
7.565286741E2,3.519243956E0,-1.938186288E0,1.020000458E1
7.570286741E2,2.487339020E0,-6.460621357E-1,9.359525681E0
7.575286741E2,1.807777524E0,-7.818548083E-1,1.023051357E1
7.580286741E2,1.409970760E0,-4.624129832E-1,1.047757244E1
7.585286741E2,1.185045362E0,-5.156532526E-1,9.451649666E0
7.590286741E2,2.370090723E0,-1.902294010E-1,1.080778122E1
7.595286741E2,1.422533035E0,-6.095715761E-1,1.020658493E1
7.600286741E2,1.314257860E0,-7.692924738E-1,9.535996437E0
7.605286741E2,2.149951220E0,-6.442674994E-1,1.191446209E1
7.610286741E2,8.057830334E-1,-7.357929349E-1,9.570094109E0
7.615286741E2,2.949153781E-1,-1.568495274E0,9.287740707E0
7.620286741E2,1.517049551E0,3.649054468E-2,9.445069313E0
7.625286741E2,2.185245275E0,4.725824594E-1,8.950951576E0
7.630286741E2,1.052841991E-1,-8.374879360E-1,8.124829292E0
7.635286741E2,1.910668850E0,-6.879364848E-1,1.040698433E1
7.640286741E2,1.153340459E0,-1.571486235E0,1.044826031E1
7.645286741E2,1.737189293E0,-2.835494876E-1,1.012343407E1
7.650286741E2,8.985049129E-1,-1.310070455E-1,8.708079338E0
7.655286741E2,2.762513638E0,-2.027917206E-1,1.098425198E1
7.660286741E2,2.695514679E0,-2.739782035E-1,9.139386177E0
7.665286741E2,2.212762833E0,4.965107143E-2,9.735796928E0
7.670286741E2,3.576073408E0,1.737189293E0,9.687342644E0
7.675286741E2,2.109273195E0,9.571290575E-3,9.235098839E0
7.680286741E2,3.859024763E0,4.325026870E-1,8.407182693E0
7.685286741E2,3.951148272E0,9.110672474E-1,8.668000221E0
7.690286741E2,2.723032236E0,1.142572761E0,9.244071960E0
7.695286741E2,2.544766903E0,1.255633712E0,1.026401234E1
7.700286741E2,1.156929731E0,1.641476393E0,9.907482147E0
7.705286741E2,1.415354609E0,1.568495274E0,1.006421185E1
7.710286741E2,9.206385016E-1,2.025524378E0,8.845068932E0
7.715286741E2,7.435696125E-1,6.747759581E-1,1.066540909E1
7.720286741E2,8.793623447E-1,1.302891970E0,9.839286804E0
7.725286741E2,8.261220455E-1,7.657032609E-1,9.298508644E0
7.730286741E2,9.619147182E-1,7.417750359E-1,9.409774780E0
7.735286741E2,1.048056364E0,1.266401410E0,1.004207802E1
7.740286741E2,1.756331801E0,1.126421213E0,9.640084267E0
7.745286741E2,6.065805554E-1,9.894321561E-1,9.342776299E0
7.750286741E2,8.147560954E-1,6.173482537E-1,9.540781975E0
7.755286741E2,1.288534999E0,1.214357495E0,8.009973526E0
7.760286741E2,1.417747378E0,1.950150430E-1,9.591629982E0
7.765286741E2,2.099701881E0,4.480560422E-1,1.224467182E1
7.770286741E2,8.919246197E-1,2.650051117E-1,8.980861664E0
7.775286741E2,1.572682738E0,-2.213360928E-2,1.234696484E1
7.780286741E2,6.538388133E-1,7.501499057E-1,1.071685410E1
7.785286741E2,1.119840980E0,3.367897868E-1,9.938589096E0
7.790286741E2,1.627119422E0,4.797609448E-1,1.081436157E1
7.795286741E2,5.635097623E-1,7.357929647E-2,8.754739761E0
7.800286741E2,6.257231236E-1,-3.014956415E-1,1.010548782E1
7.805286741E2,-3.427718580E-1,3.188436031E-1,8.353941917E0
7.810286741E2,-3.828516230E-2,1.615155339E-1,9.646664619E0
7.815286741E2,8.027920127E-1,-2.057827413E-1,9.780064583E0
7.820286741E2,6.687939167E-1,-2.518445849E-1,1.049611664E1
7.825286741E2,-3.349951655E-2,-9.792626500E-1,9.689137459E0
7.830286741E2,9.684949517E-1,-5.216353536E-1,1.021077251E1
7.835286741E2,-2.123630047E-1,8.015955985E-2,1.005763149E1
7.840286741E2,7.884350419E-1,1.256231815E-1,9.250652313E0
7.845286741E2,2.051247120E0,8.536394835E-1,9.271589279E0
7.850286741E2,2.207378864E0,1.734198213E0,9.797411919E0
7.855286741E2,3.509672642E0,-1.160518974E-1,9.663414001E0
7.860286741E2,3.796213150E0,9.427721500E-1,9.381061554E0
7.865286741E2,3.568894863E0,1.432104349E0,9.344570160E0
7.870286741E2,2.216950178E0,1.041476011E0,9.145368576E0
7.875286741E2,2.068595171E0,1.077966571E0,9.808777809E0
7.880286741E2,8.805587292E-1,1.233500123E0,1.003071213E1
7.885286741E2,-3.469592705E-2,8.913264275E-1,8.900103569E0
7.890286741E2,5.587241054E-1,9.032905698E-1,9.734002113E0
7.895286741E2,1.082752272E-1,5.970092416E-1,9.653842926E0
7.900286741E2,5.150550604E-1,7.537391037E-2,9.180064201E0
7.905286741E2,9.571290761E-2,-4.917250574E-1,9.625128746E0
7.910286741E2,1.070189953E0,-3.194418252E-1,9.675378799E0
7.915286741E2,1.234696507E0,-3.218346536E-1,9.804591179E0
7.920286741E2,5.629115105E-1,-6.239284873E-1,9.949356079E0
7.925286741E2,9.966106415E-1,-5.635097623E-1,9.802796364E0
7.930286741E2,-2.171486616E-1,-5.874379873E-1,8.644071579E0
7.935286741E2,6.089733839E-1,-1.274178028E0,1.063549805E1
7.940286741E2,1.109073281E0,-1.865205288E0,1.026520920E1
7.945286741E2,8.548358679E-1,-2.238485575E0,9.763913155E0
7.950286741E2,-6.807580590E-1,-2.282752752E0,8.659027100E0
7.955286741E2,7.286145091E-1,-2.104487419E0,1.095553875E1
7.960286741E2,5.443671346E-2,-1.984846354E0,9.968499184E0
7.965286741E2,4.372883439E-1,-2.532802820E0,9.826126099E0
7.970286741E2,4.001995921E-1,-3.113660574E0,9.741779327E0
7.975286741E2,5.569294691E-1,-2.925823927E0,9.807581902E0
7.980286741E2,5.264210105E-1,-2.565105915E0,9.083154678E0
7.985286741E2,4.187439755E-2,-2.319841623E0,9.139386177E0
7.990286741E2,1.902294010E-1,-2.252244234E0,9.837491989E0
7.995286741E2,8.374879137E-3,-2.271386862E0,9.643074989E0
8.000286741E2,5.623133108E-2,-2.051845312E0,9.731011391E0
8.005286741E2,2.745763958E-1,-1.319043517E0,9.587442398E0
8.010286741E2,4.241278172E-1,-7.674978375E-1,9.726225853E0
8.015286741E2,3.128615618E-1,-9.906286001E-1,9.617352486E0
8.020286741E2,3.361915946E-1,-8.171489239E-1,9.751350403E0
8.025286741E2,-1.423729509E-1,-8.374879360E-1,9.762716293E0
8.030286741E2,-1.016949639E-1,-9.984052777E-1,9.777072906E0
8.035286741E2,-2.859423161E-1,-1.001396298E0,9.667003632E0
8.040286741E2,-1.896311939E-1,-1.004985452E0,9.847063065E0
8.045286741E2,-2.267199457E-1,-1.111466169E0,9.937990189E0
8.050286741E2,-1.854437590E-1,-1.328614831E0,9.360722542E0
8.055286741E2,-1.782652885E-1,-1.252044439E0,9.486345291E0
8.060286741E2,-1.040877849E-1,-1.282552958E0,9.438488960E0
8.065286741E2,-1.399801224E-1,-1.218544960E0,9.574281693E0
8.070286741E2,-3.272185028E-1,-1.285543919E0,9.630513191E0
8.075286741E2,-3.972085714E-1,-1.226321578E0,9.555138588E0
8.080286741E2,-4.576273263E-1,-1.216750264E0,9.633503914E0
8.085286741E2,-3.379862010E-1,-5.042873621E-1,9.668798447E0
8.090286741E2,-3.050848842E-2,5.359922647E-1,1.008694363E1
8.095286741E2,-6.819544733E-2,4.307080805E-2,9.880562782E0
8.100286741E2,-1.256231871E-2,-4.414757788E-1,1.014257717E1
8.105286741E2,4.007977992E-2,-1.740778536E-1,1.032622623E1
8.110286741E2,-1.692921966E-1,-4.462614357E-1,9.915857315E0
8.115286741E2,-7.256234884E-1,9.451649338E-2,9.408578873E0
8.120286741E2,-1.107278705E0,-5.359922647E-1,9.890732765E0
8.125286741E2,-1.850848317E0,3.092723191E-1,1.006062317E1
8.130286741E2,-1.243071318E0,4.325026870E-1,9.126225471E0
8.135286741E2,-1.754537225E0,1.639083475E-1,9.705288887E0
8.140286741E2,-2.147558212E0,-3.367897868E-1,8.488538742E0
8.145286741E2,-2.196611166E0,-4.594219327E-1,9.416355133E0
8.150286741E2,-1.362114310E0,-1.722832322E-1,1.034357452E1
8.155286741E2,-2.291127682E0,-7.256234884E-1,8.828319550E0
8.160286741E2,-1.195214868E0,-8.614161611E-1,9.789635658E0
8.165286741E2,-6.855437160E-1,-3.912265003E-1,1.071984577E1
8.170286741E2,-1.359123230E0,9.571290575E-3,7.942376614E0
8.175286741E2,-9.744769931E-1,-1.255035520E0,1.004806042E1
8.180286741E2,-9.619147182E-1,-1.467996716E0,1.033998489E1
8.185286741E2,4.037888348E-1,-9.152546525E-1,1.043270683E1
8.190286741E2,-1.010967612E0,-9.367900491E-1,8.464610100E0
8.195286741E2,-6.592226624E-1,-9.828519225E-1,1.013779163E1
8.200286741E2,-5.120640397E-1,-1.394417405E0,9.414560318E0
8.205286741E2,-5.964110494E-1,-9.152546525E-1,8.823533058E0
8.210286741E2,-1.369891018E-1,-9.427721500E-1,8.769096375E0
8.215286741E2,-5.952146053E-1,-1.850250125E0,9.414560318E0
8.220286741E2,-5.377869010E-1,-2.529811859E0,1.247139168E1
8.225286741E2,9.678967595E-1,-1.901097536E0,1.096570778E1
8.230286741E2,-8.135597110E-1,-1.421336651E0,9.005388260E0
8.235286741E2,-6.592226624E-1,-2.799602509E0,1.099262714E1
8.240286741E2,5.276173949E-1,-1.903490424E0,1.089511967E1
8.245286741E2,-8.249256015E-1,-1.493121386E0,8.043473244E0
8.250286741E2,-1.079761267E0,-2.328814745E0,9.512666702E0
8.255286741E2,-3.493520916E-1,-1.411765337E0,1.037228775E1
8.260286741E2,-1.932204217E-1,-5.665007830E-1,8.842078209E0
8.265286741E2,-7.812566161E-1,-2.268395901E0,1.092921734E1
8.270286741E2,-3.858426511E-1,-1.580459356E0,9.658628464E0
8.275286741E2,5.180460811E-1,-1.409970760E0,8.994022369E0
8.280286741E2,2.997010350E-1,-1.037288666E0,9.301499367E0
8.285286741E2,6.011967063E-1,-8.243274093E-1,1.034058285E1
8.290286741E2,-6.221338734E-2,-1.399203062E0,9.538987160E0
8.295286741E2,-2.602194548E-1,-9.631111026E-1,9.713065147E0
8.300286741E2,1.292124242E-1,-1.462612867E0,9.064012527E0
8.305286741E2,-2.763710022E-1,-1.216750264E0,1.012463093E1
8.310286741E2,-4.899304509E-1,-8.201399446E-1,8.443673134E0
8.315286741E2,1.932204217E-1,-1.926820397E0,1.078983593E1
8.320286741E2,4.007977843E-1,-1.634896040E0,9.830911636E0
8.325286741E2,-8.745766878E-1,-1.649851203E0,9.293723106E0
8.330286741E2,-2.069791555E-1,-2.374876499E0,9.255437851E0
8.335286741E2,-5.629115105E-1,-2.877967358E0,1.003370380E1
8.340286741E2,-8.153542876E-1,-3.102892876E0,8.060222626E0
8.345286741E2,-5.084748194E-2,-8.249256015E-1,9.965508461E0
8.350286741E2,-9.266205430E-1,-9.457631707E-1,9.298508644E0
8.355286741E2,-5.383851007E-2,-9.876375198E-1,9.188439369E0
8.360286741E2,-4.295116663E-1,-4.085744619E-1,9.741779327E0
8.365286741E2,-1.084546804E0,-5.330012441E-1,8.760722160E0
8.370286741E2,1.998006850E-1,-8.871390224E-1,1.055115128E1
8.375286741E2,-9.493523836E-1,-7.830511928E-1,9.716055870E0
8.380286741E2,-1.409970760E0,-1.022931695E0,9.798010826E0
8.385286741E2,-1.925025821E0,-6.334998012E-1,1.012343407E1
8.390286741E2,-2.279761791E0,2.261217386E-1,9.159725189E0
8.395286741E2,-2.413161755E0,-7.788637877E-1,9.695717812E0
8.400286741E2,-2.853441000E0,1.471585929E-1,9.593423843E0
8.405286741E2,-3.272184849E0,-3.284149170E-1,1.003430176E1
8.410286741E2,-3.318246841E0,7.058826834E-2,9.759127617E0
8.415286741E2,-3.741178274E0,-4.917250574E-1,9.971489906E0
8.420286741E2,-3.646661758E0,-8.374879137E-3,8.385646820E0
8.425286741E2,-4.031308174E0,-4.145565331E-1,1.021137047E1
8.430286741E2,-2.410170555E0,-6.041877270E-1,1.196889877E1
8.435286741E2,-1.387837172E0,-3.469592705E-2,9.923633575E0
8.440286741E2,2.697907388E-1,-3.409772217E-1,9.665208817E0
8.445286741E2,2.787638307E-1,1.226321608E-1,1.083769226E1
8.450286741E2,4.666004330E-2,2.985046208E-1,8.614161491E0
8.455286741E2,4.965106845E-1,-2.679961324E-1,1.046022415E1
8.460286741E2,1.453639716E-1,-3.684946895E-1,1.008634567E1
8.465286741E2,-1.178465188E-1,-4.007977843E-1,9.488738060E0
8.470286741E2,-8.374879137E-3,-1.962114573E-1,9.427721024E0
8.475286741E2,-2.835494876E-1,-2.554338276E-1,9.022137642E0
8.480286741E2,-7.016952634E-1,-3.236292601E-1,8.912666321E0
8.485286741E2,-3.607180119E-1,-5.467599630E-1,8.336593628E0
8.490286741E2,-3.559323549E-1,-6.711867452E-1,8.531609535E0
8.495286741E2,-1.310070455E-1,-8.003991842E-1,1.135513973E1
8.500286741E2,7.262216806E-1,-5.563312769E-1,1.113619614E1
8.505286741E2,-1.208375469E-1,-3.828516304E-1,1.055055332E1
8.510286741E2,-1.015753269E0,-5.371887088E-1,8.779864311E0
8.515286741E2,-1.926222295E-1,-4.528416991E-1,1.026999474E1
8.520286741E2,-2.440679073E-1,-7.447660565E-1,8.952746391E0
8.525286741E2,2.650051117E-1,-6.047859192E-1,9.613164902E0
8.530286741E2,-1.830509305E-1,-3.810569942E-1,8.397012711E0
8.535286741E2,7.668996453E-1,-2.117647976E-1,1.038784122E1
8.540286741E2,8.291130662E-1,-8.913264275E-1,1.016291618E1
8.545286741E2,1.084546804E0,-5.742774606E-1,1.104168034E1
8.550286741E2,-3.284149170E-1,-7.549355626E-1,7.733603001E0
8.555286741E2,-3.708875179E-2,-7.848458290E-1,1.004686451E1
8.560286741E2,3.014956415E-1,-1.482353687E0,9.546165466E0
8.565286741E2,-9.176474810E-1,-1.485344648E0,8.477172852E0
8.570286741E2,-1.782652885E-1,-1.569691658E0,1.008514881E1
8.575286741E2,1.623530149E0,-1.374676585E0,1.222852039E1
8.580286741E2,5.084748268E-1,-1.412961721E0,1.027836990E1
8.585286741E2,5.216353536E-1,-1.161117196E0,1.005763149E1
8.590286741E2,6.580262631E-2,-1.204786181E0,1.014556789E1
8.595286741E2,-1.507478237E0,-2.035095692E0,8.650651932E0
8.600286741E2,-7.657032609E-1,-2.528615236E0,1.062054348E1
8.605286741E2,-2.500499785E-1,-1.949552298E0,1.053499985E1
8.610286741E2,-1.359123230E0,-2.446661234E0,1.030708313E1
8.615286741E2,-1.167697430E0,-1.932204247E0,9.287740707E0
8.620286741E2,-6.203392744E-1,-2.304886341E0,8.435297966E0
8.625286741E2,-8.123632669E-1,-2.190629244E0,9.891928673E0
8.630286741E2,-5.473581553E-1,-2.525026083E0,9.754940033E0
8.635286741E2,-1.322034478E0,-3.056232691E0,8.448458672E0
8.640286741E2,-7.609176040E-1,-2.935395241E0,1.003071213E1
8.645286741E2,-1.154536963E0,-2.806182861E0,8.510671616E0
8.650286741E2,-4.181457460E-1,-1.936391711E0,9.805787086E0
8.655286741E2,-5.778666735E-1,-3.101098061E0,8.984451294E0
8.660286741E2,-4.133601189E-1,-3.011965513E0,1.009771156E1
8.665286741E2,-4.259224236E-1,-2.553740025E0,1.019043350E1
8.670286741E2,-7.190431952E-1,-2.167897224E0,9.360722542E0
8.675286741E2,-2.787638307E-1,-2.021337032E0,1.022393322E1
8.680286741E2,-4.899304509E-1,-1.676172256E0,9.607781410E0
8.685286741E2,-3.176472187E-1,-1.640279889E0,9.716055870E0
8.690286741E2,-4.546363056E-1,-1.887338877E0,9.271589279E0
8.695286741E2,-1.292124242E-1,-1.910668850E0,9.744770050E0
8.700286741E2,-3.409772217E-1,-2.089532375E0,9.826126099E0
8.705286741E2,-4.911268353E-1,-2.059622049E0,9.381061554E0
8.710286741E2,-4.833501875E-1,-1.560120344E0,9.467801094E0
8.715286741E2,-4.689932466E-1,-6.951149702E-1,9.912267685E0
8.720286741E2,-4.295116663E-1,-1.008574724E0,9.888937950E0
8.725286741E2,-4.498506486E-1,-1.156929731E0,1.028435135E1
8.730286741E2,-2.452643216E-1,-1.232901812E0,1.005583763E1
8.735286741E2,-3.529413342E-1,-1.253839016E0,9.972088814E0
8.740286741E2,-3.110669553E-1,-1.231705427E0,1.000319481E1
8.745286741E2,-5.180460811E-1,-1.143769264E0,1.017308521E1
8.750286741E2,-4.223332107E-1,-1.074975610E0,1.003729248E1
8.755286741E2,-3.906283081E-1,-1.322034478E0,1.002772141E1
8.760286741E2,-4.372883439E-1,-7.639086246E-1,1.009771156E1
8.765286741E2,-4.085744619E-1,5.252245665E-1,9.501300812E0
8.770286741E2,-8.548358679E-1,2.392822653E-1,9.559925079E0
8.775286741E2,-2.955136001E-1,8.973085135E-2,1.022094154E1
8.780286741E2,-2.602194548E-1,-8.434699476E-2,1.001815033E1
8.785286741E2,-7.334001660E-1,9.391828626E-2,9.718449593E0
8.790286741E2,-3.559323549E-1,1.657029688E-1,9.771091461E0
8.795286741E2,-4.462614357E-1,4.307080805E-2,9.119645119E0
8.800286741E2,-7.477571070E-2,1.136590727E-2,1.134855938E1
8.805286741E2,2.021935135E-1,6.735795736E-1,1.074197865E1
8.810286741E2,-6.592226624E-1,-3.385843933E-1,1.008933640E1
8.815286741E2,-6.711867452E-1,1.447657645E-1,9.591629982E0
8.820286741E2,-4.336991012E-1,-1.435693540E-2,1.075693417E1
8.825286741E2,-8.338986635E-1,-9.092725813E-2,1.025563812E1
8.830286741E2,1.022931710E-1,-9.690931439E-2,1.027777100E1
8.835286741E2,-5.922235921E-2,4.965107143E-2,1.040698433E1
8.840286741E2,-5.144568533E-2,-2.691925503E-2,1.005823040E1
8.845286741E2,-1.683350682E0,-2.620140910E-1,6.007181168E0
8.850286741E2,-1.674975902E-1,-9.152546525E-1,8.969495773E0
8.855286741E2,-1.548754454E0,-7.776673883E-2,8.729017258E0
8.860286741E2,-9.074779749E-1,-9.092725813E-2,7.462017536E0
8.865286741E2,-4.175475538E-1,-3.218346536E-1,8.534002304E0
8.870286741E2,-9.122636318E-1,-5.694918036E-1,1.161476135E1
8.875286741E2,-5.946164131E-1,-6.011967063E-1,1.023470020E1
8.880286741E2,-1.134197950E0,-5.054838061E-1,8.755936623E0
8.885286741E2,-5.443671346E-1,-6.795616150E-1,1.064207840E1
8.890286741E2,-5.419743061E-1,-6.089733839E-1,1.058704376E1
8.895286741E2,1.304088384E-1,-4.725824594E-1,1.072283649E1
8.900286741E2,-1.098903775E0,-9.511470199E-1,9.094520569E0
8.905286741E2,-1.351346612E0,-9.236295223E-1,9.773484230E0
8.910286741E2,-3.750749528E-1,-6.305087805E-1,1.192283726E1
8.915286741E2,-1.061216831E0,-6.855437160E-1,9.448657990E0
8.920286741E2,-1.507478237E0,-7.543373108E-1,1.186361504E1
8.925286741E2,-2.593819857E0,-1.159322619E0,7.459026337E0
8.930286741E2,-5.264210105E-1,-4.959124923E-1,9.829715729E0
8.935286741E2,1.830509305E-1,-8.410771489E-1,1.177747345E1
8.940286741E2,9.170492887E-1,-9.445667267E-1,1.251326561E1
8.945286741E2,4.803591371E-1,-5.282155871E-1,1.044108200E1
8.950286741E2,-8.087740541E-1,-1.043270707E0,9.064012527E0
8.955286741E2,-8.883354068E-1,-2.554338276E-1,8.568099976E0
8.960286741E2,-6.526423693E-1,-7.310073376E-1,8.761320114E0
8.965286741E2,-1.499701619E0,-1.066002488E0,8.845068932E0
8.970286741E2,-1.762313843E0,1.836491376E-1,3.203391314E0
8.975286741E2,-1.444068432E0,-2.828316450E0,1.599721622E1
8.980286741E2,-2.556730986E0,-1.255633712E0,8.338388443E0
8.985286741E2,-6.604190469E-1,-1.475773335E0,9.547362328E0
8.990286741E2,-1.871187329E0,-8.458628058E-1,6.793821812E0
8.995286741E2,5.952146053E-1,-9.224331379E-1,1.030827999E1
9.000286741E2,-1.825125456E0,-1.460818172E0,5.690132141E0
9.005286741E2,-4.498506486E-1,-7.208378315E-1,9.459425926E0
9.010286741E2,-1.238285661E0,-1.269392371E0,9.118449211E0
9.015286741E2,-1.741974831E0,-2.003390789E0,8.712865829E0
9.020286741E2,7.357929349E-1,-8.171489239E-1,8.840283394E0
9.025286741E2,-7.722834945E-1,-8.009973764E-1,1.026401234E1
9.030286741E2,-1.017547846E0,-1.134197950E0,9.320642471E0
9.035286741E2,-1.403988719E0,-8.075776696E-1,1.044526863E1
9.040286741E2,-2.038684845E0,-9.236295223E-1,8.575876236E0
9.045286741E2,-1.978266120E0,-1.116251707E0,1.122891808E1
9.050286741E2,-1.587039590E0,-9.409775138E-1,9.448060036E0
9.055286741E2,-2.319841623E0,-1.260419369E0,8.381459236E0
9.060286741E2,-1.705484390E0,-1.169492126E0,8.721240044E0
9.065286741E2,-1.689332843E0,-1.156929731E0,9.409774780E0
9.070286741E2,-1.944766641E0,-9.966106415E-1,9.201599121E0
9.075286741E2,-1.866401672E0,-1.158126116E0,8.974281311E0
9.080286741E2,-1.280758262E0,-6.317051649E-1,9.841081619E0
9.085286741E2,-4.785645381E-2,-1.256231815E-1,1.028734303E1
9.090286741E2,-9.110672474E-1,-9.391828775E-1,9.125029564E0
9.095286741E2,-5.569294691E-1,-2.907279432E-1,9.092725754E0
9.100286741E2,-1.065404296E0,-8.775677085E-1,9.890732765E0
9.105286741E2,-4.719842672E-1,-9.678967595E-1,1.050329494E1
9.110286741E2,-8.931210637E-1,-1.263410330E0,8.387441635E0
9.115286741E2,-1.357926875E-1,-4.402793646E-1,9.720842361E0
9.120286741E2,-1.891526341E0,-2.834896564E0,8.075178146E0
9.125286741E2,-7.621139884E-1,-7.064808607E-1,1.085982513E1
9.130286741E2,3.146561682E-1,-1.138983607E0,8.877371788E0
9.135286741E2,3.170489967E-1,-7.357929349E-1,1.134497070E1
9.140286741E2,-5.982056726E-3,-8.344969153E-1,9.522237778E0
9.145286741E2,-2.967100143E-1,-8.901300430E-1,1.031665516E1
9.150286741E2,-8.051848412E-1,-9.014959335E-1,8.172087669E0
9.155286741E2,-8.566305041E-1,-9.110672474E-1,9.268000603E0
9.160286741E2,-4.384847581E-1,-1.132403374E0,8.443673134E0
9.165286741E2,-5.264210105E-1,-9.110672474E-1,1.136411285E1
9.170286741E2,-1.087537885E0,-1.104287624E0,9.668798447E0
9.175286741E2,-4.277170599E-1,-1.017547846E0,1.111346436E1
9.180286741E2,-9.966106415E-1,-1.152144074E0,8.036892891E0
9.185286741E2,8.422735929E-1,-7.483552694E-1,1.031486034E1
9.190286741E2,1.098903775E0,-6.951149702E-1,1.016351414E1
9.195286741E2,2.213360965E-1,-9.906286001E-1,9.605986595E0
9.200286741E2,5.916253924E-1,-8.291130662E-1,9.188439369E0
9.205286741E2,2.452643216E-1,-9.954141974E-1,9.878767967E0
9.210286741E2,4.965106845E-1,-1.552343726E0,1.264008522E1
9.215286741E2,5.676971674E-1,-8.745766878E-1,9.635298729E0
9.220286741E2,-5.760720372E-1,-9.637092948E-1,8.952746391E0
9.225286741E2,-4.049852192E-1,-1.044467092E0,9.608379364E0
9.230286741E2,-2.344966233E-1,-1.011565804E0,1.002712345E1
9.235286741E2,-4.785645287E-3,-8.775677085E-1,9.467801094E0
9.240286741E2,-1.177268744E0,-1.302891970E0,8.321041107E0
9.245286741E2,4.241278172E-1,-1.046859860E0,1.037228775E1
9.250286741E2,-8.500502706E-1,-1.285543919E0,8.638090134E0
9.255286741E2,-1.684547186E0,-1.380060434E0,9.686145782E0
9.260286741E2,-3.960121572E-1,-1.105484009E0,1.101476097E1
9.265286741E2,8.105686903E-1,-1.185045362E0,9.828518867E0
9.270286741E2,-5.916253924E-1,-1.001396298E0,8.397012711E0
9.275286741E2,-2.180459738E0,-8.566305041E-1,5.454439163E0
9.280286741E2,1.794616925E-3,-4.462614357E-1,9.135796547E0
9.285286741E2,6.783652306E-1,-8.135597110E-1,8.056035995E0
9.290286741E2,1.610967875E0,-1.099501967E0,1.172124195E1
9.295286741E2,9.511470199E-1,-1.035493970E0,1.017248726E1
9.300286741E2,1.202393413E0,-8.404789567E-1,1.049133110E1
9.305286741E2,5.617151260E-1,-1.153340459E0,9.409774780E0
9.310286741E2,8.817551732E-1,-9.684949517E-1,1.250369453E1
9.315286741E2,2.117647976E-1,-1.097109199E0,1.021436119E1
9.320286741E2,-1.365703583E0,-8.195417523E-1,8.215756416E0
9.325286741E2,-1.554138303E0,-1.188634634E0,8.306683540E0
9.330286741E2,-9.559326172E-1,-1.073779106E0,9.426525116E0
9.335286741E2,-1.259821177E0,-9.122636318E-1,8.234899521E0
9.340286741E2,-1.125823021E0,-1.017547846E0,8.191229820E0
9.345286741E2,-2.380858511E-1,-8.871390224E-1,9.300303459E0
9.350286741E2,-3.523431420E-1,-1.478764415E0,1.069412231E1
9.355286741E2,-3.619144261E-1,-1.438684583E0,8.732007980E0
9.360286741E2,6.412764788E-1,-1.633101463E0,1.194616699E1
9.365286741E2,-6.011967063E-1,-1.563709617E0,8.831310272E0
9.370286741E2,-7.621139884E-1,-1.846062660E0,8.558527946E0
9.375286741E2,-6.173482537E-1,-2.554338217E0,9.406784058E0
9.380286741E2,-9.206385016E-1,-2.456232548E0,8.644669533E0
9.385286741E2,1.836491376E-1,-1.798206210E0,1.122592735E1
9.390286741E2,-3.290131092E-1,-2.505883455E0,1.044526863E1
9.395286741E2,-9.284151793E-1,-3.793820381E0,1.013958549E1
9.400286741E2,-6.664010882E-1,-3.564109325E0,8.218747139E0
9.405286741E2,-1.084546804E0,-4.539782524E0,1.000678444E1
9.410286741E2,-1.032503009E0,-3.890729666E0,9.253643036E0
9.415286741E2,-6.825526357E-1,-3.439682484E0,9.998409271E0
9.420286741E2,-4.007977843E-1,-3.071187973E0,1.021555805E1
9.425286741E2,-5.551348329E-1,-2.735594511E0,9.574281693E0
9.430286741E2,-4.049852192E-1,-2.673381090E0,9.816555023E0
9.435286741E2,-6.107679605E-1,-1.591825247E0,9.327222824E0
9.440286741E2,-7.387840152E-1,-1.242473125E0,9.622138023E0
9.445286741E2,-2.201396823E-1,-5.371887088E-1,9.869196892E0
9.450286741E2,-8.315058798E-2,1.119840980E0,9.912865639E0
9.455286741E2,-2.105683982E-1,4.959124923E-1,9.769296646E0
9.460286741E2,-8.913264424E-2,3.074777126E-1,9.649057388E0
9.465286741E2,-8.973085135E-2,2.614158690E-1,9.704092026E0
9.470286741E2,-5.168496966E-1,3.840480447E-1,9.522237778E0
9.475286741E2,-2.039881349E-1,5.371887088E-1,1.008156013E1
9.480286741E2,-6.251249313E-1,1.141974568E0,7.706085205E0
9.485286741E2,-5.808576941E-1,-9.870393574E-2,8.537590981E0
9.490286741E2,-1.495514214E-1,2.524427772E-1,9.753145218E0
9.495286741E2,-4.701896608E-1,5.563312769E-2,9.500701904E0
9.500286741E2,-5.024927258E-1,7.387840152E-1,9.089137077E0
9.505286741E2,-2.374876440E-1,-4.259224236E-1,1.024427223E1
9.510286741E2,-5.617151260E-1,-4.755735099E-1,9.047860146E0
9.515286741E2,5.419743061E-1,2.691925503E-2,1.224467182E1
9.520286741E2,3.170489892E-2,-1.884347796E-1,9.748359680E0
9.525286741E2,-5.294120312E-1,-3.302095234E-1,9.891928673E0
9.530286741E2,-4.432703853E-1,-2.620140910E-1,9.153144836E0
9.535286741E2,4.869394004E-1,-6.831508875E-1,1.223031521E1
9.540286741E2,-8.051848412E-1,-6.903293133E-1,6.311069489E0
9.545286741E2,-2.309073806E-1,-9.475577474E-1,9.927223206E0
9.550286741E2,1.818545163E-1,-1.003789067E0,1.025384331E1
9.555286741E2,-6.400800496E-2,-1.775474429E0,1.097827053E1
9.560286741E2,-3.589233849E-3,-1.014556766E0,8.933603287E0
9.565286741E2,8.644071817E-1,-1.399203062E0,1.092084217E1
9.570286741E2,8.662018180E-1,-1.314257860E0,9.769296646E0
9.575286741E2,1.972882271E0,-1.207179070E0,1.013599682E1
9.580286741E2,2.669193745E0,-1.019342422E0,9.555737495E0
9.585286741E2,2.988037348E0,-5.742774606E-1,9.496515274E0
9.590286741E2,3.377469063E0,-9.206385016E-1,1.082632637E1
9.595286741E2,2.970091105E0,-8.261220455E-1,9.120243073E0
9.600286741E2,3.458825111E0,-5.036891699E-1,1.029392338E1
9.605286741E2,2.437089920E0,-3.619144261E-1,8.395217896E0
9.610286741E2,1.703689694E0,-4.468596280E-1,1.029990482E1
9.615286741E2,1.280758262E0,-1.232303679E-1,9.950552940E0
9.620286741E2,1.199402332E0,-1.866401732E-1,9.311071396E0
9.625286741E2,-3.984049559E-1,-2.775674164E-1,9.716055870E0
9.630286741E2,9.212367237E-2,-4.450650215E-1,9.493523598E0
9.635286741E2,4.223332107E-1,-6.622136831E-1,1.003848934E1
9.640286741E2,6.269195080E-1,-9.924231768E-1,1.153998566E1
9.645286741E2,-3.445664644E-1,-1.657029629E0,8.957531929E0
9.650286741E2,-3.607180119E-1,-1.526620865E0,8.829515457E0
9.655286741E2,7.770691514E-1,-1.329213023E0,1.081854916E1
9.660286741E2,4.965107143E-2,-1.255633712E0,9.408578873E0
9.665286741E2,-4.917250574E-1,-1.376471281E0,9.026923180E0
9.670286741E2,6.472585201E-1,-1.788634896E0,1.023350430E1
9.675286741E2,1.064806059E-1,-1.881955028E0,1.049372387E1
9.680286741E2,-7.692924738E-1,-1.853839397E0,8.654241562E0
9.685286741E2,-1.896311939E-1,-1.710269928E0,9.132805824E0
9.690286741E2,-5.850451589E-1,-1.691127419E0,1.066122150E1
9.695286741E2,-8.578268886E-1,-1.917847395E0,9.160921097E0
9.700286741E2,-1.755135417E0,-1.359123230E0,9.474381447E0
9.705286741E2,-2.217548370E0,-1.115055323E0,8.676374435E0
9.710286741E2,-2.827120066E0,-6.783652306E-1,1.058285618E1
9.715286741E2,-2.303689957E0,-7.782655358E-1,1.057807064E1
9.720286741E2,-2.973680258E0,-9.320043921E-1,1.065643597E1
9.725286741E2,-3.297309637E0,-5.838487148E-1,9.999007225E0
9.730286741E2,-3.793820381E0,-6.765705943E-1,8.633303642E0
9.735286741E2,-3.485146284E0,-2.901297510E-1,7.920242786E0
9.740286741E2,-3.814159393E0,-9.218349457E-1,1.078026390E1
9.745286741E2,-6.047859192E-1,-8.889335990E-1,9.765707016E0
9.750286741E2,1.810768485E0,-2.620140910E-1,1.019701385E1
9.755286741E2,-4.462614357E-1,-3.607180119E-1,8.871390343E0
9.760286741E2,-7.704889178E-1,-4.468596280E-1,8.349754333E0
9.765286741E2,-4.271188378E-1,-1.188036442E0,9.457631111E0
9.770286741E2,1.004985496E-1,-1.481755376E0,9.467203140E0
9.775286741E2,3.601198196E-1,-3.864408433E-1,9.890133858E0
9.780286741E2,-4.319044948E-1,-1.587637782E0,1.045783138E1
9.785286741E2,-1.304088384E-1,-1.004985452E0,9.641879082E0
9.790286741E2,2.105683982E-1,-8.739784956E-1,1.047218800E1
9.795286741E2,-1.435693651E-1,-8.919246197E-1,1.102253723E1
9.800286741E2,-7.716853023E-1,-9.008977413E-1,9.262018204E0
9.805286741E2,6.538388133E-1,-8.721838593E-1,1.103450203E1
9.810286741E2,6.203392744E-1,-4.193421602E-1,9.707083702E0
9.815286741E2,-9.631111026E-1,-6.221339107E-1,8.636295319E0
9.820286741E2,1.902294010E-1,-7.082754970E-1,1.073539925E1
9.825286741E2,9.349954724E-1,-9.702895880E-1,9.914062500E0
9.830286741E2,-1.051047325E0,-1.012762189E0,9.625128746E0
9.835286741E2,2.045863420E-1,-1.087537885E0,1.023470020E1
9.840286741E2,-1.155135155E0,-1.088136077E0,9.349954605E0
9.845286741E2,1.316052489E-2,-9.523434043E-1,9.643074989E0
9.850286741E2,-1.043270707E0,-1.314257860E0,8.362317085E0
9.855286741E2,1.561316848E-1,-1.484746456E0,1.062772179E1
9.860286741E2,1.710868180E-1,-2.276172638E0,1.041835022E1
9.865286741E2,1.740778536E-1,-1.520040631E0,9.687940598E0
9.870286741E2,-1.196411327E-1,-2.116451740E0,9.408578873E0
9.875286741E2,-1.226321608E-1,-2.069193363E0,8.924032211E0
9.880286741E2,9.158528447E-1,-1.333400369E0,9.054440498E0
9.885286741E2,1.381256819E0,-1.453639746E0,1.072821999E1
9.890286741E2,2.094317913E0,-1.570888042E0,9.638289452E0
9.895286741E2,2.873181820E0,-1.441675663E0,9.435498238E0
9.900286741E2,2.386242390E0,-1.164706469E0,9.915857315E0
9.905286741E2,3.842873096E0,-1.644467354E0,1.027298546E1
9.910286741E2,4.663012981E0,-1.540977836E0,9.525228500E0
9.915286741E2,4.006781578E0,-7.609176040E-1,8.599804878E0
9.920286741E2,2.331805706E0,-4.677968323E-1,1.069412231E1
9.925286741E2,1.539781332E0,-5.724828243E-1,9.220742226E0
9.930286741E2,1.087537885E0,-1.722832322E-1,9.789635658E0
9.935286741E2,7.304090858E-1,-3.170489967E-1,8.458029747E0
9.940286741E2,2.309073806E-1,-3.254238665E-1,1.007737255E1
9.945286741E2,5.659025311E-1,-7.734799385E-1,1.097946644E1
9.950286741E2,1.085145116E0,-5.665007830E-1,1.014078236E1
9.955286741E2,9.140582681E-1,4.450650215E-1,9.728020668E0
9.960286741E2,1.092323542E0,-3.122633696E-1,1.088614655E1
9.965286741E2,1.381855130E0,-3.320041299E-1,1.106740284E1
9.970286741E2,-3.224328458E-1,-3.744767308E-1,8.800801277E0
9.975286741E2,-8.494520187E-2,-4.468596280E-1,8.483752251E0
9.980286741E2,4.426721856E-2,-9.272187948E-1,9.148957253E0
9.985286741E2,-1.555334684E-2,-1.300499082E0,1.070728302E1
9.990286741E2,9.092725813E-2,-1.064207911E0,9.254241943E0
9.995286741E2,1.028913736E0,-1.017547846E0,1.023290634E1
1.000028674E3,6.819544733E-2,-1.087537885E0,1.088734341E1
1.000528674E3,2.380858511E-1,-7.244270444E-1,9.001798630E0
1.001028674E3,5.724828243E-1,-1.223330617E0,8.400602341E0
1.001528674E3,4.486542568E-2,-1.695913076E0,8.888139725E0
1.002028674E3,-5.138586760E-1,-2.171486616E0,8.974879265E0
1.002528674E3,1.099501967E0,-2.274976015E0,9.702297211E0
1.003028674E3,6.699903309E-2,-2.606980324E0,9.662218094E0
1.003528674E3,9.391828775E-1,-1.504487276E0,1.133240795E1
1.004028674E3,-1.794617064E-2,-1.391426325E0,8.866005898E0
1.004528674E3,-4.372883439E-1,-1.152144074E0,9.153742790E0
1.005028674E3,-1.119840980E0,-7.896314859E-1,8.660223007E0
1.005528674E3,-1.162911773E0,-1.125823021E0,1.034536839E1
1.006028674E3,-2.297109842E0,-2.949153781E-1,8.577671051E0
1.006528674E3,-1.939980984E0,-6.520441771E-1,9.005388260E0
1.007028674E3,-2.782254457E0,-1.980060786E-1,9.235098839E0
1.007528674E3,-2.726621389E0,-2.841476798E-1,9.805787086E0
1.008028674E3,-1.956132531E0,-5.072783828E-1,7.697112083E0
1.008528674E3,-6.412764788E-1,-1.471585929E-1,1.159920788E1
1.009028674E3,-1.550549030E0,-1.734796353E-2,9.692726135E0
1.009528674E3,-8.973085135E-2,1.902294010E-1,1.049970531E1
1.010028674E3,-2.572284341E-1,6.041877344E-2,1.015872860E1
1.010528674E3,2.223530531E0,6.622136831E-1,8.864809990E0
1.011028674E3,1.245464206E0,-3.080759048E-1,1.191147137E1
1.011528674E3,-5.946164131E-1,-9.176474810E-1,8.766105652E0
1.012028674E3,1.604387641E0,-1.190429211E0,9.392427444E0
1.012528674E3,0.000000000E0,-1.046261668E0,9.522237778E0
1.013028674E3,5.712863803E-1,-1.032503009E0,1.057986546E1
1.013528674E3,-7.734799385E-1,-1.240678549E0,9.503094673E0
1.014028674E3,-6.873382926E-1,-1.299900889E0,9.708279610E0
1.014528674E3,-9.678967595E-1,-1.406979680E0,9.091529846E0
1.015028674E3,-6.622136831E-1,-1.365105271E0,9.304491043E0
1.015528674E3,2.422732860E-1,-1.152144074E0,1.085384369E1
1.016028674E3,-9.128618240E-1,-1.804188251E0,8.831310272E0
1.016528674E3,5.383851007E-2,-1.470987678E0,1.060199928E1
1.017028674E3,-4.767699242E-1,-1.465603828E0,9.608379364E0
1.017528674E3,-4.115654826E-1,-1.767099500E0,1.049850941E1
1.018028674E3,-8.249256015E-1,-2.078166485E0,8.901300430E0
1.018528674E3,-9.254241586E-1,-1.635494232E0,8.992227554E0
1.019028674E3,-1.557129383E0,-1.853241086E0,7.735397339E0
1.019528674E3,6.604190469E-1,-1.061216831E0,1.070429230E1
1.020028674E3,-4.462614357E-1,-1.237687469E0,1.079162979E1
1.020528674E3,-3.816552162E-1,-1.590030670E0,9.471988678E0
1.021028674E3,-9.272187948E-1,-1.592423439E0,9.719645500E0
1.021528674E3,-1.185045362E0,-1.413560033E0,9.352347374E0
1.022028674E3,1.208375469E-1,-1.217348576E0,1.103928757E1
1.022528674E3,-6.089733839E-1,-1.478764415E0,9.199206352E0
1.023028674E3,-6.604190469E-1,-1.822134495E0,1.082692432E1
1.023528674E3,-9.302098155E-1,-1.644467354E0,8.947361946E0
1.024028674E3,-8.614161611E-2,-1.695314884E0,1.056371403E1
1.024528674E3,-1.085145116E0,-1.508674622E0,9.378069878E0
1.025028674E3,-1.816750646E0,-2.038684845E0,8.252246857E0
1.025528674E3,-4.815555513E-1,-1.317248821E0,8.713463783E0
1.026028674E3,-1.482353687E0,-1.972882271E0,7.804191113E0
1.026528674E3,-1.387837082E-1,-1.959123492E0,1.015693378E1
1.027028674E3,-1.303490162E0,-1.662413478E0,8.407182693E0
1.027528674E3,-1.485344648E0,-1.678565025E0,9.035298347E0
1.028028674E3,-6.490531564E-1,-1.494915962E0,1.085982513E1
1.028528674E3,-1.406979680E0,-1.949552298E0,8.773882866E0
1.029028674E3,-5.120640397E-1,-2.025524378E0,1.047099209E1
1.029528674E3,-1.141974568E0,-1.628913999E0,9.534201622E0
1.030028674E3,-1.976471543E0,-2.011167526E0,7.806583881E0
1.030528674E3,-1.336391449E0,-2.047059774E0,9.371489525E0
1.031028674E3,-5.204389095E-1,-2.767299414E0,9.737591743E0
1.031528674E3,-8.901300430E-1,-2.930609465E0,9.007781029E0
1.032028674E3,-1.818545163E-1,-2.842673302E0,1.076471043E1
1.032528674E3,-5.264210105E-1,-2.572882652E0,9.122636795E0
1.033028674E3,-3.290131092E-1,-2.703889608E0,9.804591179E0
1.033528674E3,-7.292127013E-1,-2.994617462E0,9.110671997E0
1.034028674E3,-2.458625287E-1,-3.518645763E0,9.750154495E0
1.034528674E3,-6.472585201E-1,-3.980460405E0,9.641280174E0
1.035028674E3,-6.424728632E-1,-4.431507587E0,9.409774780E0
1.035528674E3,-2.955136001E-1,-3.203391314E0,9.388239861E0
1.036028674E3,-7.381857634E-1,-2.611167669E0,9.704092026E0
1.036528674E3,-8.015955985E-2,-2.769692183E0,1.044885826E1
