"Time (s)","Gyroscope x (rad/s)","Gyroscope y (rad/s)","Gyroscope z (rad/s)"
2.798951670E-1,-8.814778924E-1,-1.601076603E0,2.724456787E-1
7.840491770E-1,3.588830680E-2,-6.823359728E-1,3.098611534E-1
1.288203083E0,1.977674663E-1,-2.524398565E-1,6.520981342E-2
1.792356937E0,7.452550530E-2,-2.020435184E-1,-5.650499091E-2
2.296510792E0,1.156061590E-1,2.367101051E-2,4.734201822E-3
2.800664594E0,1.545487940E-1,1.786779426E-2,1.084284950E-2
3.304818552E0,1.899789423E-1,-1.466075517E-2,-2.596175298E-3
3.808972667E0,1.934914142E-1,1.511890348E-2,5.955931731E-3
4.313126885E0,2.093739063E-1,3.863719851E-2,-3.359756200E-3
4.817281208E0,2.396117151E-1,-2.199113183E-2,1.832594397E-3
5.321435479E0,2.379318327E-1,-5.345067009E-3,-1.282816008E-2
5.825589698E0,2.142608166E-1,-1.527161949E-4,-5.650499370E-3
6.329743604E0,1.811214089E-1,-9.926552884E-3,-6.108647678E-3
6.833897302E0,1.426369250E-1,8.399390616E-3,-4.734201822E-3
7.338050740E0,1.240055487E-1,1.389717404E-2,-5.192350596E-3
7.842203865E0,1.001818255E-1,-1.007926930E-2,3.054323897E-4
8.346356573E0,9.529490769E-2,-2.214384824E-2,-3.970621154E-3
8.850508865E0,5.268708616E-2,2.076940238E-2,1.069013379E-3
9.354660792E0,-1.802051067E-2,-2.061668597E-2,9.621120058E-3
9.858812458E0,-5.436696485E-2,-7.483093441E-2,6.872228812E-3
1.036296397E1,-1.550069451E-1,-9.789107740E-2,3.833176568E-2
1.086711517E1,-2.023489624E-1,-7.635809598E-4,2.825249545E-2
1.137126631E1,-2.900080681E-1,4.046979174E-2,4.871646687E-2
1.187541741E1,-2.955058515E-1,-8.475748450E-2,-3.237583488E-2
1.237956824E1,-2.912297845E-1,2.183841541E-2,5.879573524E-2
1.288371881E1,-3.289506733E-1,-5.818486959E-2,-3.649916872E-2
1.338786897E1,-2.955058515E-1,3.313941509E-2,2.535088919E-2
1.389201881E1,-2.273944169E-1,-5.604684353E-2,3.543015569E-2
1.439616829E1,-2.173151523E-1,7.941242307E-3,2.718348242E-2
1.490031751E1,-1.501200199E-1,9.590577334E-2,-4.734201822E-3
1.540446631E1,-7.925970852E-2,-2.443459118E-3,-1.802051067E-2
1.590861480E1,-2.229656465E-2,1.970038936E-2,-1.634063199E-2
1.641276282E1,1.130099874E-2,1.026252806E-1,-1.175914705E-2
1.691691038E1,-1.649334840E-2,8.628465235E-2,5.558869615E-2
1.742105751E1,-4.734201822E-3,2.443459118E-3,1.252272725E-1
1.792520423E1,-2.260199748E-2,9.025526792E-2,-8.246674202E-3
1.842935069E1,1.740964688E-2,4.978547990E-2,-6.261364091E-3
1.893349683E1,1.148425788E-1,-4.092793912E-2,1.466075517E-2
1.943764282E1,1.266017258E-1,-7.635809481E-2,2.397644334E-2
1.994178850E1,8.750637621E-2,7.666353136E-2,4.123337194E-2
2.044593392E1,1.618791744E-2,-9.773836471E-3,-9.926552884E-3
2.095007897E1,-9.926552884E-3,-1.267544460E-2,-3.207040019E-3
2.145422366E1,-3.222311661E-2,-3.863719851E-2,-3.512472380E-3
2.195836819E1,-5.024362728E-2,-3.970621154E-3,2.871064469E-2
2.246251251E1,-1.786779426E-2,-2.373209596E-1,2.535088919E-2
2.296665663E1,-3.802633286E-2,2.629773021E-1,3.283398226E-2
2.347080053E1,1.481347065E-2,-2.235765159E-1,5.299251899E-2
2.397494418E1,-1.618791744E-2,3.833176568E-2,6.872228812E-3
2.447908762E1,-3.313941509E-2,-3.619373962E-2,-1.603520103E-2
2.498323084E1,-1.878409274E-2,6.551524997E-2,1.572976820E-2
2.548737376E1,-2.092211880E-2,8.277218044E-2,1.802051067E-2
2.599151647E1,7.483093534E-3,-1.556178033E-1,-5.222893879E-2
2.649565897E1,2.005163580E-1,-1.557705179E-2,-1.860083193E-1
2.699980126E1,-9.178243577E-2,9.813542962E-1,-3.839285076E-1
2.750394334E1,-9.082031846E-1,1.043357015E0,4.057669342E-1
2.800808517E1,7.179188132E-1,-3.072649837E-1,-1.075121984E-1
2.851222678E1,7.192932814E-2,1.710421443E-1,2.813032269E-1
2.901636808E1,5.986474827E-2,7.299833745E-2,1.299614757E-1
2.952050923E1,2.932151034E-2,-1.039997265E-1,2.464839369E-1
3.002465022E1,1.256854236E-1,-7.147117704E-2,1.791360974E-1
3.052879110E1,2.527453005E-1,1.876882017E-1,4.007273018E-1
3.103293189E1,1.188132018E-1,1.669187993E-1,2.648098767E-1
3.153707246E1,4.535670951E-2,1.594357044E-1,2.325867712E-1
3.204121306E1,4.688387364E-2,-1.313359290E-2,2.437350452E-1
3.254535332E1,7.925970852E-2,-2.703076601E-2,2.745837271E-1
3.304949348E1,4.566214234E-2,-6.154462695E-2,2.464839369E-1
3.355363353E1,6.139190868E-2,-1.160643101E-1,2.173151523E-1
3.405777368E1,4.642572254E-2,-1.360701323E-1,1.246164143E-1
3.456191400E1,3.558287397E-2,-2.611446939E-2,4.428769462E-3
3.506605447E1,1.482874304E-1,3.741546720E-2,1.656970680E-1
3.557019499E1,-6.337722391E-2,-7.208204269E-2,5.467239767E-2
3.607433551E1,6.826414168E-2,-6.566796452E-2,1.206457894E-2
3.657847598E1,3.711003438E-2,1.053741723E-1,2.596175298E-3
3.708261624E1,1.924224012E-2,4.581485689E-2,6.307178736E-2
3.758675629E1,-1.878409274E-2,-8.979712427E-2,-1.618791744E-2
3.809089619E1,5.039634649E-3,5.360338464E-2,2.443459118E-3
3.859503598E1,-6.719512399E-3,-3.924806044E-2,1.985310577E-3
3.909917546E1,-9.315688163E-3,-9.315688163E-3,-1.496618707E-2
3.960331478E1,-5.192350596E-3,1.847865991E-2,-1.023198478E-2
4.010745384E1,-1.237001177E-2,-7.635809598E-4,-5.497782957E-3
4.061159280E1,-4.581485875E-3,2.244928107E-2,-2.443459118E-3
4.111573171E1,-2.779434808E-2,3.985892609E-2,1.970038936E-2
4.161987077E1,-2.748891478E-3,-2.519817278E-2,5.803215317E-3
4.212400999E1,2.733619884E-2,4.566214234E-2,3.268126398E-2
4.262814952E1,6.856957078E-2,7.788526267E-2,-8.857538924E-3
4.313228926E1,-1.511890348E-2,-5.619955808E-2,2.825249545E-2
4.363642915E1,2.458730713E-2,-1.939495653E-2,2.932151034E-2
4.414056915E1,1.374445739E-3,2.519817278E-2,7.635809947E-3
4.464470921E1,-5.772672221E-2,-3.543015569E-2,9.773836471E-3
4.514884926E1,2.183841541E-2,-8.552107029E-3,-1.160643063E-2
4.565298931E1,-4.581485991E-4,2.321286127E-2,1.221729559E-3
4.615712936E1,9.010255337E-3,-1.970038936E-2,1.527161920E-3
4.666126936E1,-2.596175298E-3,8.704823442E-3,2.748891478E-3
4.716540941E1,9.773836471E-3,2.290742844E-2,2.153298259E-2
4.766954947E1,4.108065739E-2,5.100720748E-2,8.750637621E-2
4.817368947E1,4.871646687E-2,1.527161920E-3,1.246164143E-1
4.867782941E1,3.283398226E-2,-5.024362728E-2,1.392771751E-1
4.918196931E1,5.009091273E-2,-2.061668597E-2,1.479819864E-1
4.968610926E1,5.009091273E-2,-2.122755162E-2,1.627954692E-1
5.019024947E1,6.673697382E-2,-6.108647794E-4,1.776089370E-1
5.069438994E1,4.718930274E-2,-3.863719851E-2,1.847866029E-1
5.119853051E1,5.436696485E-2,-1.878409274E-2,1.821904182E-1
5.170267108E1,4.596757516E-2,-3.619373962E-2,1.832594275E-1
5.220681160E1,3.436114267E-2,-3.802633286E-2,1.427896470E-1
5.271095207E1,2.076940238E-2,-5.879573524E-2,9.101885557E-2
5.321509244E1,8.093958721E-3,-4.367683083E-2,4.428769648E-2
5.371923275E1,7.941242307E-3,-4.428769648E-2,-1.374445739E-3
5.422337301E1,1.374445762E-2,6.856957078E-2,5.375609919E-2
5.472751306E1,-7.635809598E-4,-4.062250629E-2,-4.108065739E-2
5.523165301E1,-3.588830680E-2,-5.177079141E-2,-5.345066637E-2
5.573579290E1,-3.207040019E-3,8.246674202E-3,-5.665770918E-2
5.623993254E1,-1.771507785E-2,2.443459071E-2,-5.971203372E-2
5.674408421E1,-4.703658819E-2,-1.328630932E-2,-9.804379940E-2
5.724821150E1,-4.230238497E-2,1.511890348E-2,-8.536835015E-2
5.775235103E1,-2.550360374E-2,3.985892609E-2,-9.239330143E-2
5.825649051E1,-3.924806044E-2,-2.397644334E-2,-8.704823256E-2
5.876063004E1,-2.580903657E-2,4.001164436E-2,-7.009673119E-2
5.926476952E1,-3.375028074E-2,1.282816008E-2,-7.727439702E-2
5.976890910E1,-3.207040206E-2,2.336557768E-2,-6.856957078E-2
6.027304863E1,-2.718348242E-2,1.572976820E-2,-6.459894776E-2
6.077718822E1,-1.878409274E-2,-3.512472380E-3,-8.048143238E-2
6.128132785E1,-4.337139800E-2,2.825249545E-2,-9.117157012E-2
6.178546754E1,-3.772090003E-2,3.711003438E-2,-7.208204269E-2
6.228960738E1,-3.649916872E-2,-1.069013379E-3,-9.453132749E-2
6.279374733E1,-2.840521187E-2,3.359756200E-3,-8.032871783E-2
6.329788749E1,-4.535670951E-2,2.076940238E-2,-6.780599058E-2
6.380202759E1,-2.031125315E-2,1.084284950E-2,-7.528908551E-2
6.430616775E1,-3.604102135E-2,4.199695215E-2,-6.368265301E-2
6.481030796E1,-3.222311661E-2,5.192350596E-3,-5.345066637E-2
6.531444816E1,-1.023198478E-2,3.069595434E-2,-3.268126398E-2
6.581858832E1,7.788525894E-3,9.773836471E-3,-1.954767294E-2
6.632272837E1,4.886918236E-3,4.260781780E-2,1.832594397E-3
6.682686837E1,5.650499370E-3,-1.679878100E-3,8.246674202E-3
6.733100822E1,-9.010255337E-3,1.343902480E-2,8.552107029E-3
6.783514796E1,-1.527161920E-3,-2.214384824E-2,1.007926930E-2
6.833928764E1,7.177661173E-3,1.343902480E-2,-2.596175298E-3
6.884342712E1,0.000000000E0,-8.704823442E-3,1.023198478E-2
6.934756650E1,-1.832594397E-3,2.000582218E-2,-1.588248461E-2
6.985170572E1,2.443459118E-3,1.450803876E-2,1.313359290E-2
7.035584483E1,-3.054323897E-4,-1.527161989E-2,2.138026757E-3
7.085998384E1,2.748891478E-3,2.901607752E-2,-8.857538924E-3
7.136412270E1,3.665188793E-3,-2.932151034E-2,1.191186346E-2
7.186826150E1,-4.886918236E-3,-1.832594397E-3,-2.061668597E-2
7.237240030E1,-5.039634649E-3,1.282816008E-2,6.108647678E-3
7.287653910E1,-1.374445739E-3,4.886918236E-3,7.635809598E-4
7.338067785E1,1.527161920E-3,-2.748891478E-3,-6.261364091E-3
7.388481650E1,-1.527161949E-4,-4.276053514E-3,1.099556591E-2
7.438895509E1,1.191186346E-2,1.985310577E-2,-1.007926930E-2
7.489309353E1,-8.552107029E-3,-1.038470119E-2,8.552107029E-3
7.539723197E1,2.138026757E-3,1.832594350E-2,-4.581485875E-3
7.590137035E1,-1.985310577E-3,-1.404988952E-2,-1.191186346E-2
7.640550879E1,-8.704823442E-3,4.428769462E-3,-2.138026757E-3
7.690964718E1,-2.748891478E-3,-3.970621154E-3,-2.901607659E-3
7.741378561E1,1.313359290E-2,2.993237413E-2,1.175914705E-2
7.791792400E1,-4.581485875E-3,-2.107483521E-2,2.672533318E-2
7.842206207E1,-8.857538924E-3,-3.359756200E-3,4.581485991E-4
7.892620014E1,-7.483093534E-3,1.542433538E-2,2.367101051E-2
7.943033879E1,-1.893680729E-2,-3.222311661E-2,1.343902480E-2
7.993447827E1,1.985310577E-3,-1.023198478E-2,-1.863137633E-2
8.043861863E1,-8.552107029E-3,2.214384824E-2,-9.010255337E-3
8.094275978E1,-2.290742937E-3,0.000000000E0,2.138026804E-2
8.144690181E1,0.000000000E0,7.483093534E-3,-1.252272818E-2
8.195104441E1,-7.330377586E-3,1.527161949E-4,-5.955931731E-3
8.245518738E1,5.497782957E-3,1.038470119E-2,9.162971983E-4
8.295933077E1,5.955931731E-3,2.596175298E-3,-2.092211880E-2
8.346347457E1,-4.734201822E-3,4.581485875E-3,-6.566796452E-3
8.396761868E1,-1.084284950E-2,-8.857538924E-3,-3.665188793E-3
8.447176296E1,-6.108647794E-4,-9.010255337E-3,5.497782957E-3
8.497590728E1,-5.192350596E-3,5.345067009E-3,2.932151034E-2
8.548005160E1,9.010255337E-3,-9.468403645E-3,-7.330377586E-3
8.598419593E1,-5.803215317E-3,-2.031125315E-2,-1.160643063E-2
8.648834020E1,2.138026757E-3,-8.399390616E-3,-6.108647678E-3
8.699248452E1,2.138026757E-3,3.359756200E-3,-8.093958721E-3
8.749662915E1,-3.359756200E-3,-3.054323839E-3,4.276053514E-3
8.800077415E1,-3.054323839E-3,-9.926552884E-3,2.443459118E-3
8.850491941E1,4.276053514E-3,8.704823442E-3,-6.566796452E-3
8.900906478E1,8.704823442E-3,-7.941242307E-3,-2.809977904E-2
8.951321025E1,-1.527161949E-4,1.313359290E-2,-3.512472380E-3
9.001735587E1,2.748891478E-3,-3.970621154E-3,3.207040019E-3
9.052150155E1,1.527161920E-3,4.581485991E-4,1.527161920E-3
9.102564723E1,-1.374445739E-3,-4.581485875E-3,-4.581485991E-4
9.152979275E1,-1.221729559E-3,-2.901607659E-3,4.581485991E-4
9.203393861E1,3.817904973E-3,6.414080039E-3,-2.138026757E-3
9.253808403E1,2.443459118E-3,-5.803215317E-3,-6.108647794E-4
9.304222944E1,0.000000000E0,-7.941242307E-3,-3.054323897E-4
9.354637481E1,1.191186346E-2,-6.108647794E-4,-3.970621154E-3
9.405052007E1,1.069013379E-3,-5.345067009E-3,3.054323897E-4
9.455466528E1,-3.512472380E-3,-4.581485991E-4,2.138026757E-3
9.505881043E1,5.039634649E-3,3.970621154E-3,-1.985310577E-3
9.556295538E1,7.635809598E-4,0.000000000E0,-7.635809598E-4
9.606710017E1,2.138026757E-3,-1.985310577E-3,1.527161949E-4
9.657124481E1,-1.374445739E-3,-6.719512399E-3,9.162971983E-4
9.707538924E1,-3.512472380E-3,-3.207040019E-3,1.221729559E-3
9.757953351E1,-9.162971750E-3,-1.817322709E-2,-6.414080039E-3
9.808367772E1,1.160643063E-2,1.603520103E-2,5.192350596E-3
9.858782200E1,3.817904973E-3,-8.857538924E-3,1.527161920E-3
9.909196621E1,5.192350596E-3,7.635809598E-4,-1.527161949E-4
9.959611028E1,-1.756236330E-2,2.825249545E-2,-8.246674202E-3
1.001002542E2,7.024944760E-3,-1.007926930E-2,3.359756200E-3
1.006043980E2,2.901607659E-3,-1.893680729E-2,4.734201822E-3
1.011085416E2,-6.566796452E-3,1.756236330E-2,-4.581485875E-3
1.016126851E2,9.010255337E-3,-5.345067009E-3,1.221729559E-3
1.021168285E2,-6.108647794E-4,1.527161920E-3,1.221729559E-3
1.026209718E2,-1.527161949E-4,1.069013379E-3,-1.527161949E-4
1.031251151E2,0.000000000E0,-0.000000000E0,1.527161949E-4
1.036292581E2,-2.596175298E-3,-5.039634649E-3,2.138026757E-3
1.041334012E2,-9.162971983E-4,-4.886918236E-3,1.374445739E-3
1.046375441E2,4.276053514E-3,9.010255337E-3,-2.138026757E-3
1.051416872E2,1.832594397E-3,1.069013379E-3,-9.162971983E-4
1.056458303E2,2.596175298E-3,4.886918236E-3,-2.748891478E-3
1.061499734E2,3.665188793E-3,-1.069013379E-3,-6.108647794E-4
1.066541166E2,4.428769462E-3,-1.053741761E-2,-2.748891478E-3
1.071582600E2,-1.527161949E-4,-7.635809598E-4,1.221729559E-3
1.076624036E2,3.359756200E-3,3.512472380E-3,1.221729559E-3
1.081665473E2,-4.581485991E-4,1.374445739E-3,-4.581485991E-4
1.086706911E2,4.581485991E-4,-1.679878100E-3,3.054323897E-4
1.091748348E2,-1.985310577E-3,-3.054323897E-4,-4.581485991E-4
1.096789785E2,-2.901607659E-3,-6.566796452E-3,1.832594397E-3
1.101831222E2,1.832594397E-3,5.955931731E-3,4.581485991E-4
1.106872658E2,1.527161949E-4,3.817904973E-3,-4.581485991E-4
1.111914094E2,-1.527161949E-4,4.581485991E-4,1.527161949E-4
1.116955531E2,-1.527161949E-4,7.635809598E-4,-7.635809598E-4
1.121996970E2,1.832594397E-3,-2.443459118E-3,7.635809598E-4
1.127038408E2,4.581485991E-4,-6.108647794E-4,-1.527161949E-4
1.132079845E2,-4.581485991E-4,-1.679878100E-3,3.054323897E-4
1.137121281E2,-5.039634649E-3,-3.054323839E-3,3.207040019E-3
1.142162717E2,1.221729559E-3,5.039634649E-3,-1.221729559E-3
1.147204152E2,2.290742937E-3,2.138026757E-3,-1.527161949E-4
1.152245588E2,7.635809598E-4,4.581485991E-4,1.527161949E-4
1.157287022E2,1.069013379E-3,-1.679878100E-3,1.527161949E-4
1.162328454E2,-2.138026757E-3,2.290742937E-3,7.635809598E-4
1.167369886E2,1.527161949E-4,4.581485991E-4,-1.527161949E-4
1.172411317E2,-3.817904973E-3,-3.054323839E-3,1.679878100E-3
1.177452748E2,-1.221729559E-3,-4.581485875E-3,2.443459118E-3
1.182494178E2,3.054323839E-3,5.497782957E-3,-1.985310577E-3
1.187535607E2,2.290742937E-3,1.527161920E-3,-7.635809598E-4
1.192577038E2,-4.581485991E-4,1.679878100E-3,-1.527161949E-4
1.197618469E2,-2.748891478E-3,1.527161920E-3,0.000000000E0
1.202659906E2,9.162971983E-4,-4.581485991E-4,3.054323897E-4
1.207701329E2,-2.901607659E-3,-1.374445739E-3,7.635809598E-4
1.212742760E2,-9.162971983E-4,-4.581485875E-3,2.138026757E-3
1.217784191E2,2.290742937E-3,7.635809947E-3,-1.832594397E-3
1.222825624E2,-1.221729559E-3,1.527161920E-3,-4.581485991E-4
1.227867060E2,1.527161949E-4,1.527161949E-4,-4.581485991E-4
1.232908498E2,-6.108647794E-4,-1.221729559E-3,1.527161949E-4
1.237949938E2,-1.527161920E-3,-8.704823442E-3,-1.527161920E-3
1.242991380E2,4.428769462E-3,-1.527161920E-3,-8.399390616E-3
1.248032825E2,3.512472380E-3,7.788525894E-3,-1.908952370E-2
1.253074271E2,-1.527161920E-3,5.955931731E-3,4.428769462E-3
1.258115717E2,2.748891478E-3,-3.054323839E-3,-5.955931731E-3
1.263157163E2,-3.512472380E-3,3.054323839E-3,6.108647794E-4
1.268198610E2,1.527161949E-4,1.191186346E-2,-8.704823442E-3
1.273240057E2,6.108647678E-3,-9.621120058E-3,-2.901607659E-3
1.278281503E2,-4.428769462E-3,-3.054323897E-4,-9.773836471E-3
1.283322949E2,-4.276053514E-3,2.779434808E-2,-4.428769462E-3
1.288364393E2,-1.069013402E-2,-4.886918236E-3,-3.512472380E-3
1.293405835E2,7.941242307E-3,-9.010255337E-3,-5.955931731E-3
1.298447275E2,2.596175298E-3,3.634645417E-2,1.832594397E-3
1.303488712E2,-1.007926930E-2,-3.543015569E-2,3.970621154E-3
1.308530146E2,1.374445762E-2,4.535670951E-2,2.046396956E-2
1.313571576E2,-1.832594397E-3,-2.611446939E-2,1.634063199E-2
1.318613009E2,1.527161920E-3,-7.788525894E-3,1.679878100E-3
1.323654450E2,4.886918236E-3,-8.857538924E-3,7.330377586E-3
1.328695900E2,-9.773836471E-3,1.038470119E-2,-4.581485875E-3
1.333737359E2,-1.038470119E-2,-4.734201822E-3,-1.985310577E-3
1.338778824E2,1.771507785E-2,7.177661173E-3,9.315688163E-3
1.343820294E2,6.108647794E-4,-1.069013402E-2,9.162971750E-3
1.348861766E2,-2.596175298E-3,-3.054323839E-3,4.581485875E-3
1.353903242E2,5.497782957E-3,-5.650499370E-3,2.596175298E-3
1.358944720E2,-3.970621154E-3,-1.221729559E-3,-0.000000000E0
1.363986200E2,3.665188793E-3,1.832594397E-3,1.511890348E-2
1.369027679E2,1.618791744E-2,1.237001177E-2,-2.168569900E-2
1.374069160E2,-2.290742937E-3,3.817904973E-3,2.550360374E-2
1.379110639E2,-1.343902480E-2,-3.802633286E-2,1.832594397E-3
1.384152118E2,3.817904973E-3,4.230238497E-2,1.221729536E-2
1.389193596E2,-2.443459118E-3,-1.847865991E-2,-1.527161949E-4
1.394235071E2,4.886918236E-3,7.788525894E-3,8.399390616E-3
1.399276546E2,1.527161949E-4,-1.175914705E-2,7.330377586E-3
1.404318019E2,2.138026757E-3,9.468403645E-3,-2.443459118E-3
1.409359492E2,4.581485991E-4,-5.345067009E-3,9.468403645E-3
1.414400964E2,6.872228812E-3,8.399390616E-3,8.857538924E-3
1.419442437E2,-2.596175298E-3,4.214967042E-2,2.489273995E-2
1.424483909E2,1.679878100E-3,-4.703658819E-2,2.443459118E-3
1.429525380E2,7.635809598E-4,2.199113183E-2,9.773836471E-3
1.434566851E2,1.221729559E-3,-1.863137633E-2,4.734201822E-3
1.439608320E2,1.038470119E-2,1.069013402E-2,8.093958721E-3
1.444649788E2,1.649334840E-2,-3.512472380E-3,1.221729536E-2
1.449691256E2,4.734201822E-3,4.886918236E-3,1.603520103E-2
1.454732724E2,-6.566796452E-3,-1.603520103E-2,1.221729559E-3
1.459774192E2,-1.237001177E-2,-9.010255337E-3,5.650499370E-3
1.464815658E2,9.468403645E-3,-1.191186346E-2,-2.596175298E-3
1.469857123E2,5.497782957E-3,3.054323979E-2,9.468403645E-3
1.474898586E2,-1.527161949E-4,-8.704823442E-3,1.237001177E-2
1.479940047E2,6.719512399E-3,9.773836471E-3,1.023198478E-2
1.484981508E2,8.552107029E-3,-9.162971983E-4,1.191186346E-2
1.490022969E2,1.679878100E-3,-4.886918236E-3,1.160643063E-2
1.495064429E2,-2.122755162E-2,-1.740964688E-2,1.924224012E-2
1.500105889E2,-2.504545636E-2,7.635809598E-4,4.428769462E-3
1.505147348E2,6.276635826E-2,9.773836471E-3,5.955931731E-3
1.510188807E2,-2.015853859E-2,-1.786779426E-2,-4.581485991E-4
1.515230267E2,9.315688163E-3,-4.581485875E-3,-1.069013379E-3
1.520271721E2,-1.313359290E-2,-5.650499370E-3,2.214384824E-2
1.525313180E2,2.840521187E-2,2.504545636E-2,-6.108647678E-3
1.530354641E2,-2.687804960E-2,-1.710421406E-2,2.107483521E-2
1.535396102E2,2.122755162E-2,7.483093441E-2,4.581485991E-4
1.540437564E2,3.130681813E-2,-2.306014486E-2,1.527161989E-2
1.545479025E2,-2.168569900E-2,-5.497783050E-2,9.010255337E-3
1.550520486E2,1.924224012E-2,4.291325063E-2,-9.162971983E-4
1.555561946E2,-2.412915789E-2,-2.474002354E-2,6.872228812E-3
1.560603406E2,2.825249545E-2,-1.511890348E-2,7.788525894E-3
1.565644866E2,-9.773836471E-3,1.939495653E-2,-8.093958721E-3
1.570686325E2,-1.114828233E-2,-2.565632015E-2,1.221729559E-3
1.575727786E2,6.108647794E-4,5.192350596E-3,2.031125315E-2
1.580769246E2,-3.207040206E-2,-4.642572254E-2,-4.734201822E-3
1.585810706E2,1.114828233E-2,7.635809947E-3,-1.664606482E-2
1.590852165E2,9.162971750E-3,2.000582218E-2,-2.260199748E-2
1.595893622E2,1.985310577E-2,7.192932814E-2,2.183841541E-2
1.600935080E2,-3.940077871E-2,-1.116355360E-1,-2.367101051E-2
1.605976538E2,1.420260593E-2,7.666353136E-2,6.108647678E-3
1.611017997E2,-3.207040019E-3,-3.023780696E-2,-7.483093534E-3
1.616059460E2,-1.450803876E-2,1.481347065E-2,-2.290742937E-3
1.621100930E2,1.802051067E-2,-9.162971983E-4,2.596175298E-3
1.626142409E2,1.069013379E-3,-1.664606482E-2,-3.207040019E-3
1.631183897E2,5.803215317E-3,1.084284950E-2,8.552107029E-3
1.636225393E2,1.985310577E-3,-1.542433538E-2,-1.985310577E-3
1.641266898E2,3.054323839E-3,2.031125315E-2,1.145371422E-2
1.646308407E2,1.221729536E-2,1.710421406E-2,3.054323897E-4
1.651349921E2,-3.207040019E-3,-4.535670951E-2,7.483093534E-3
1.656391440E2,-1.175914705E-2,4.535670951E-2,1.023198478E-2
1.661432968E2,1.053741761E-2,-2.901607659E-3,5.650499370E-3
1.666474507E2,1.084284950E-2,-2.580903657E-2,7.177661173E-3
1.671516053E2,-2.229656465E-2,-1.542433538E-2,-1.114828233E-2
1.676557606E2,1.679878123E-2,5.528326333E-2,1.695149764E-2
1.681599163E2,1.679878100E-3,-6.719512399E-3,6.108647794E-4
1.686640723E2,1.985310577E-3,-2.107483521E-2,-5.039634649E-3
1.691682286E2,-1.084284950E-2,-1.099556591E-2,-5.192350596E-3
1.696723854E2,1.221729536E-2,1.252272818E-2,-7.024944760E-3
1.701765430E2,-1.374445739E-3,2.092211880E-2,8.399390616E-3
1.706807017E2,5.803215317E-3,3.665188793E-3,-1.053741761E-2
1.711848613E2,-1.878409274E-2,-4.749473557E-2,-3.359756200E-3
1.716890220E2,-4.734201822E-3,5.345067009E-3,3.054323839E-3
1.721931837E2,8.093958721E-3,-1.542433538E-2,-7.941242307E-3
1.726973465E2,7.788525894E-3,5.803215317E-3,-4.886918236E-3
1.732015103E2,1.053741761E-2,-7.635809598E-4,8.704823442E-3
1.737056751E2,7.330377586E-3,2.412915789E-2,2.397644334E-2
1.742098410E2,-2.489273995E-2,-6.688969582E-2,-3.390299529E-2
1.747140081E2,2.596175298E-3,6.505709887E-2,8.857538924E-3
1.752181760E2,-4.581485991E-4,-3.268126398E-2,-4.581485875E-3
1.757223448E2,7.223475724E-2,2.993237413E-2,-2.443459071E-2
1.762265145E2,-8.796452731E-2,3.329212964E-2,4.780016840E-2
1.767306847E2,6.078104675E-2,-4.581485991E-4,-2.626718581E-2
1.772348553E2,-3.039052337E-2,4.596757516E-2,4.810560122E-2
1.777390261E2,1.664606482E-2,-6.261364091E-3,-3.512472380E-3
1.782431972E2,-9.926552884E-3,-2.535088919E-2,1.679878123E-2
1.787473687E2,8.552107029E-3,-1.069013402E-2,-5.803215317E-3
1.792515404E2,-5.955931731E-3,-2.535088919E-2,9.468403645E-3
1.797557122E2,4.367683083E-2,5.818486959E-2,1.267544460E-2
1.802598842E2,-6.566796452E-3,-2.932151034E-2,2.092211880E-2
1.807640566E2,-2.183841541E-2,-4.138609022E-2,-1.374445739E-3
1.812682293E2,2.428187430E-2,8.567378670E-2,2.886336111E-2
1.817724022E2,3.054323839E-3,-4.199695215E-2,-3.970621154E-3
1.822765749E2,-1.481347065E-2,-5.039634649E-3,-1.221729559E-3
1.827807477E2,1.618791744E-2,-1.420260593E-2,8.246674202E-3
1.832849201E2,9.926552884E-3,3.161225095E-2,2.443459071E-2
1.837890923E2,3.817904973E-3,-2.748891525E-2,1.618791744E-2
1.842932642E2,4.581485875E-3,1.572976820E-2,2.626718581E-2
1.847974358E2,3.390299529E-2,2.168569900E-2,2.428187430E-2
1.853016073E2,-5.039634649E-3,-2.443459118E-3,5.085449293E-2
1.858057787E2,2.641990222E-2,1.298087649E-2,4.795288667E-2
1.863099499E2,4.734201822E-3,-2.962694131E-2,3.711003438E-2
1.868141209E2,1.985310577E-2,-5.345067009E-3,3.237583488E-2
1.873182918E2,9.162971983E-4,-5.039634649E-3,2.214384824E-2
1.878224626E2,-1.160643063E-2,-3.665188793E-3,3.115410358E-2
1.883266337E2,3.176496923E-2,3.497200832E-2,3.726275265E-2
1.888308052E2,-2.443459118E-3,-3.054323979E-2,4.214967042E-2
1.893349770E2,-6.108647794E-4,-9.162971750E-3,2.015853859E-2
1.898391490E2,1.710421406E-2,-8.704823442E-3,2.138026804E-2
1.903433212E2,9.315688163E-3,1.771507785E-2,2.993237413E-2
1.908474937E2,-1.649334840E-2,-8.353576064E-2,5.345067009E-3
1.913516664E2,-1.221729559E-3,-1.160643063E-2,-1.832594397E-3
1.918558392E2,-3.970621154E-3,4.886918236E-3,1.511890348E-2
1.923600120E2,-1.313359290E-2,-1.282816008E-2,-9.010255337E-3
1.928641849E2,-1.908952370E-2,-7.376192510E-2,-2.672533318E-2
1.933683579E2,1.771507785E-2,8.720094711E-2,4.581485875E-3
1.938725314E2,1.511890348E-2,2.412915789E-2,6.566796452E-3
1.943767053E2,-1.817322709E-2,-6.582067907E-2,1.221729559E-3
1.948808794E2,1.679878100E-3,-1.404988952E-2,-5.345067009E-3
1.953850538E2,6.108647794E-4,1.954767294E-2,-1.160643063E-2
1.958892282E2,2.596175298E-3,-1.481347065E-2,-1.267544460E-2
1.963934026E2,2.596175298E-3,4.734202102E-2,8.093958721E-3
1.968975770E2,-8.399390616E-3,-4.902189970E-2,-2.000582218E-2
1.974017514E2,-7.788525894E-3,-4.886918236E-3,-1.175914705E-2
1.979059257E2,1.985310577E-3,7.635809947E-3,-2.000582218E-2
1.984100999E2,-1.038470119E-2,-1.023198478E-2,-1.282816008E-2
1.989142741E2,-9.315688163E-3,1.435532235E-2,-1.404988952E-2
1.994184481E2,-7.788525894E-3,1.832594397E-3,-1.496618707E-2
1.999226220E2,-5.497782957E-3,3.207040206E-2,-3.054323839E-3
2.004267957E2,1.252272818E-2,-1.786779426E-2,-7.788525894E-3
2.009309694E2,-1.389717404E-2,-4.993819445E-2,-2.794706449E-2
2.014351430E2,-3.054323839E-3,3.237583488E-2,-1.007926930E-2
2.019393167E2,-1.069013379E-3,2.367101051E-2,-7.788525894E-3
2.024434905E2,-1.572976820E-2,-3.817904973E-3,-1.450803876E-2
2.029476644E2,-1.282816008E-2,-2.153298259E-2,-2.519817278E-2
2.034518386E2,-1.679878100E-3,2.138026757E-3,-2.825249545E-2
2.039560129E2,-1.832594350E-2,-1.954767294E-2,-2.962694131E-2
2.044601873E2,-3.787361458E-2,-3.466657549E-2,-3.604102135E-2
2.049643619E2,-3.573558852E-2,-2.733619884E-2,-4.703658819E-2
2.054685366E2,2.290742937E-3,4.153880477E-2,-4.169152305E-2
2.059727113E2,-4.902189970E-2,2.443459071E-2,-3.802633286E-2
2.064768860E2,1.221729559E-3,-1.985310577E-3,-7.040216774E-2
2.069810608E2,-6.505709887E-2,2.382372692E-2,-1.527161949E-4
2.074852355E2,1.175914705E-2,-6.108647794E-4,-5.604684353E-2
2.079894099E2,-1.893680729E-2,4.382954910E-2,-1.359174121E-2
2.084935844E2,-1.511890348E-2,2.351829410E-2,-3.573558852E-2
2.089977587E2,1.603520103E-2,-3.970621154E-3,-2.367101051E-2
2.095019331E2,-2.932151034E-2,2.306014486E-2,-2.764163166E-2
2.100061072E2,-2.748891478E-3,-5.681042373E-2,-3.344484791E-2
2.105102814E2,-3.817904741E-2,3.054323979E-2,-3.680460155E-2
2.110144557E2,2.489273995E-2,-5.345067009E-3,-2.412915789E-2
2.115186303E2,-4.062250629E-2,3.649916872E-2,-4.596757516E-2
2.120228051E2,-2.733619884E-2,1.221729559E-3,-2.779434808E-2
2.125269804E2,5.497782957E-3,-7.941242307E-3,-3.023780696E-2
2.130311563E2,9.162971983E-4,5.039634556E-2,-4.108065739E-2
2.135353331E2,-2.657261863E-2,-6.520981342E-2,-6.429351866E-2
2.140395105E2,-7.727439702E-2,-5.406153202E-2,3.344484791E-2
2.145436882E2,-3.527744114E-2,1.817322709E-2,-8.231402934E-2
2.150478663E2,-1.664606482E-2,-1.985310577E-3,-4.596757516E-2
2.155520445E2,-2.611446939E-2,1.130099874E-2,-3.558287397E-2
2.160562228E2,-4.657844082E-2,-8.552107029E-3,-5.161807314E-2
2.165604011E2,-2.122755162E-2,-1.069013379E-3,-8.063415438E-2
2.170645792E2,-5.879573524E-2,1.863137633E-2,-5.177079141E-2
2.175687567E2,-2.443459071E-2,1.572976820E-2,-9.193515033E-2
2.180729337E2,-3.985892609E-2,5.482511222E-2,-8.048143238E-2
2.185771102E2,-4.550942779E-2,3.481929377E-2,-7.987056673E-2
2.190812865E2,-4.703658819E-2,2.809977904E-2,-7.422006875E-2
2.195854626E2,-4.489856213E-2,1.786779426E-2,-8.002328873E-2
2.200896388E2,-2.076940238E-2,2.290742937E-3,-7.284562290E-2
2.205938148E2,-2.657261863E-2,1.021671370E-1,-5.131264031E-2
2.210979903E2,-1.221729536E-2,3.283398226E-2,-7.009673119E-2
2.216021654E2,9.162971983E-4,1.285870373E-1,5.803215317E-3
2.221063398E2,2.367101051E-2,7.070759684E-2,2.458730713E-2
2.226105135E2,8.093958721E-3,-4.291325063E-2,3.955349326E-2
2.231146864E2,-4.886918236E-3,-2.428187430E-2,3.527744114E-2
2.236188588E2,4.428769462E-3,-2.306014486E-2,2.397644334E-2
2.241230306E2,1.511890348E-2,-3.970621154E-3,1.817322709E-2
2.246272020E2,-1.679878123E-2,-9.239330143E-2,-1.343902480E-2
2.251313729E2,1.985310577E-3,-3.023780696E-2,2.901607659E-3
2.256355435E2,7.024944760E-3,-1.053741761E-2,-9.162971983E-4
2.261397137E2,-4.398226365E-2,6.352993846E-2,-2.794706449E-2
2.266438836E2,6.719512399E-3,-6.566796452E-3,-2.076940238E-2
2.271480532E2,-2.229656465E-2,3.756818548E-2,-1.053741761E-2
2.276522224E2,-2.428187430E-2,-3.878991306E-2,-3.573558852E-2
2.281563911E2,-3.481929377E-2,6.566796452E-3,-2.916879393E-2
2.286605591E2,-3.512472380E-3,3.970621154E-2,-3.283398226E-2
2.291647264E2,-1.023198478E-2,6.139190868E-2,-2.183841541E-2
2.296688930E2,-2.703076601E-2,-6.398808211E-2,-1.603520103E-2
2.301730589E2,-2.855792828E-2,1.679878123E-2,-2.229656465E-2
2.306772241E2,-1.466075517E-2,7.483093534E-3,-3.817904973E-3
2.311813890E2,-1.817322709E-2,-1.343902480E-2,-1.970038936E-2
2.316855536E2,2.703076601E-2,6.001746282E-2,-3.634645417E-2
2.321897177E2,2.840521187E-2,1.450803876E-2,-2.596175298E-2
2.326938813E2,-1.527161920E-3,-2.122755162E-2,-3.512472380E-3
2.331980443E2,4.276053514E-3,-5.192350596E-3,1.786779426E-2
2.337022067E2,1.145371422E-2,3.268126398E-2,1.603520103E-2
2.342063687E2,5.497782957E-3,-3.100138716E-2,-2.947422490E-2
2.347105301E2,-3.512472380E-3,-1.878409274E-2,1.282816008E-2
2.352146913E2,1.252272818E-2,2.962694131E-2,1.679878123E-2
2.357188523E2,2.489273995E-2,2.183841541E-2,3.023780696E-2
2.362230133E2,3.313941509E-2,4.581485875E-3,8.399390429E-2
2.367271742E2,7.910698652E-2,4.871646687E-2,1.678351015E-1
2.372313352E2,5.329795182E-2,-6.383536756E-2,2.360992432E-1
2.377355047E2,8.139773458E-2,-8.017600328E-2,2.658788860E-1
2.382396578E2,1.081230640E-1,-3.680460155E-2,3.162752390E-1
2.387438199E2,7.773254067E-2,-1.044578776E-1,3.268126547E-1
2.392479825E2,7.635809481E-2,-1.398880333E-1,3.252854943E-1
2.397521454E2,9.819651395E-2,-7.727439702E-2,3.155116439E-1
2.402563086E2,1.020144150E-1,-9.605848789E-2,3.112356067E-1
2.407604721E2,8.277218044E-2,-7.849612087E-2,2.927569449E-1
2.412646361E2,6.872228533E-2,-1.091920808E-1,2.518289983E-1
2.417688007E2,4.260781780E-2,-9.300415963E-2,2.063195854E-1
2.422729663E2,1.634063199E-2,-1.339320987E-1,1.079703495E-1
2.427771331E2,8.704823442E-3,-4.352411628E-2,4.657844082E-2
2.432813011E2,6.872228812E-3,2.290742844E-2,-1.221729559E-3
2.437854702E2,1.252272725E-1,-1.247691289E-1,-2.122755162E-2
2.442896401E2,6.337722391E-2,-6.108647678E-3,-6.872228812E-3
2.447938106E2,2.072358727E-1,-1.053741761E-2,-4.153880477E-2
2.452979812E2,-6.475166976E-2,2.336557806E-1,-1.643226296E-1
2.458021521E2,-2.657261863E-2,-6.108647957E-2,-1.985310577E-2
2.463063228E2,2.901607659E-3,1.664606482E-2,3.207040019E-3
2.468104934E2,1.893680729E-2,-8.552107029E-3,1.908952370E-2
2.473146638E2,8.399390616E-3,1.893680729E-2,9.621120058E-3
2.478188339E2,1.924224012E-2,-1.771507785E-2,2.687804960E-2
2.483230040E2,-1.206457894E-2,-5.589412898E-2,4.031707719E-2
2.488271742E2,-2.657261863E-2,5.467239767E-2,2.382372692E-2
2.493313447E2,3.130681813E-2,-1.404988952E-2,7.177661173E-3
2.498355155E2,6.566796452E-3,-4.276053514E-3,5.039634649E-3
2.503396867E2,1.221729559E-3,-5.589412898E-2,8.399390616E-3
2.508438585E2,9.162971983E-4,4.077522457E-2,9.773836471E-3
2.513480309E2,-1.343902480E-2,-1.267544460E-2,1.832594397E-3
2.518522035E2,1.572976820E-2,3.512472659E-2,-1.175914705E-2
2.523563766E2,7.788525894E-3,-2.138026757E-3,4.123337101E-3
2.528605499E2,1.527161949E-4,-1.145371422E-2,-1.481347065E-2
2.533647233E2,1.634063199E-2,4.153880477E-2,1.481347065E-2
2.538688966E2,-1.114828233E-2,-2.229656465E-2,-6.108647678E-3
2.543730698E2,2.138026757E-3,-1.343902480E-2,3.054323839E-3
2.548772423E2,-5.803215317E-3,1.710421406E-2,5.497782957E-3
2.553814140E2,1.939495653E-2,-4.581485875E-3,7.483093534E-3
2.558855850E2,-1.237001177E-2,-1.114828233E-2,2.596175298E-3
2.563897552E2,9.162971750E-3,-7.635809947E-3,-1.069013379E-3
2.568939248E2,-1.985310577E-3,1.771507785E-2,-5.955931731E-3
2.573980937E2,-5.039634649E-3,-1.527161949E-4,-7.177661173E-3
2.579022621E2,1.221729559E-3,-3.665188793E-3,-3.817904973E-3
2.584064299E2,-1.221729559E-3,-3.512472380E-3,6.108647678E-3
2.589105971E2,1.710421406E-2,2.825249545E-2,1.053741761E-2
2.594147638E2,7.024944760E-3,7.788525894E-3,3.207040019E-3
2.599189299E2,-1.221729559E-3,-1.130099874E-2,4.276053514E-3
2.604230956E2,-7.941242307E-3,3.970621154E-3,5.497782957E-3
2.609272609E2,-1.160643063E-2,-1.756236330E-2,8.704823442E-3
2.614314260E2,-2.687804960E-2,-3.054323839E-3,-1.832594397E-3
2.619355911E2,2.794706449E-2,3.329212964E-2,8.399390616E-3
2.624397564E2,-1.985310577E-3,-6.719512399E-3,4.123337101E-3
2.629439216E2,1.572976820E-2,1.221729559E-3,3.054323839E-3
2.634480867E2,-6.719512399E-3,2.580903657E-2,-8.399390616E-3
2.639522517E2,-3.924806044E-2,-5.894844979E-2,2.901607659E-3
2.644564164E2,-1.649334840E-2,-9.926552884E-3,-3.023780696E-2
2.649605809E2,-1.511890348E-2,2.748891525E-2,-1.847865991E-2
2.654647452E2,-1.145371422E-2,1.511890348E-2,-2.183841541E-2
2.659689093E2,-2.138026804E-2,-5.192350596E-3,-3.222311661E-2
2.664730733E2,1.756236330E-2,2.687804960E-2,-1.588248461E-2
2.669772369E2,-2.290742937E-3,-9.926552884E-3,-2.641990222E-2
2.674814003E2,-1.389717404E-2,1.908952370E-2,-3.054323897E-4
2.679855636E2,-1.527161949E-4,2.122755162E-2,-1.710421406E-2
2.684897267E2,-5.345067009E-3,-1.572976820E-2,-1.114828233E-2
2.689938896E2,-1.450803876E-2,-1.527161920E-3,-2.641990222E-2
2.694980521E2,-1.695149764E-2,2.138026757E-3,-2.321286127E-2
2.700022142E2,-1.954767294E-2,-1.130099874E-2,-2.840521187E-2
2.705063762E2,-2.367101051E-2,1.130099874E-2,-3.420842811E-2
2.710105382E2,-1.191186346E-2,-1.221729559E-3,-3.497200832E-2
2.715147002E2,-2.138026757E-3,-1.985310577E-3,-4.123337194E-2
2.720188622E2,-2.489273995E-2,1.007926930E-2,-4.993819445E-2
2.725230242E2,-3.894263133E-2,-2.260199748E-2,-5.039634556E-2
2.730271860E2,-3.161225095E-2,-1.374445739E-3,-4.657844082E-2
2.735313479E2,-1.679878123E-2,2.596175298E-3,-4.459312931E-2
2.740355094E2,-9.315688163E-3,2.474002354E-2,-3.145953640E-2
2.745396707E2,-1.603520103E-2,-3.970621154E-3,-4.856374860E-2
2.750438318E2,-5.497782957E-3,-2.138026757E-3,-3.741546720E-2
2.755479928E2,-1.511890348E-2,5.192350596E-3,-3.313941509E-2
2.760521538E2,-1.679878100E-3,-1.985310577E-2,-3.558287397E-2
2.765563144E2,1.305723488E-1,-1.588248461E-2,5.696314201E-2
2.770604746E2,-4.596757516E-2,8.475748450E-2,-4.612028971E-2
2.775646344E2,-4.398226365E-2,2.977965772E-2,-7.788526267E-2
2.780687936E2,1.038470119E-2,4.627300799E-2,-4.382954910E-2
2.785729523E2,5.650499370E-3,1.878409274E-2,-3.207040019E-3
2.790771107E2,7.635809598E-4,3.817904973E-3,1.557705179E-2
2.795812687E2,6.337722391E-2,4.688387364E-2,5.039634649E-3
2.800854266E2,-7.819069177E-2,-9.239330143E-2,1.649334840E-2
2.805895847E2,3.237583488E-2,2.932151034E-2,-1.221729536E-2
2.810937430E2,7.788525894E-3,-2.565632015E-2,1.985310577E-3
2.815979013E2,2.443459118E-3,3.680460155E-2,-6.719512399E-3
2.821020594E2,-1.557705179E-2,-1.298087649E-2,-4.886918236E-3
2.826062174E2,-8.857538924E-3,-3.375028074E-2,-2.748891478E-3
2.831103755E2,-1.343902480E-2,4.444041103E-2,8.552107029E-3
2.836145335E2,4.780016840E-2,5.360338464E-2,4.886918236E-3
2.841186917E2,1.863137633E-2,-1.069013402E-2,1.252272818E-2
2.846228497E2,-2.306014486E-2,-1.023198478E-2,7.330377586E-3
2.851270077E2,5.482511222E-2,2.229656465E-2,1.099556591E-2
2.856311656E2,-2.809977904E-2,-3.848448023E-2,1.267544460E-2
2.861353235E2,-8.399390616E-3,2.474002354E-2,2.672533318E-2
2.866394817E2,2.351829410E-2,-3.985892609E-2,2.229656465E-2
2.871436399E2,-2.687804960E-2,-5.833758786E-2,-1.481347065E-2
2.876477981E2,-4.550942779E-2,-4.871646687E-2,-1.817322709E-2
2.881519561E2,1.527161920E-3,3.436114267E-2,-2.458730713E-2
2.886561141E2,-5.849030241E-2,-5.451968312E-2,-2.229656465E-2
2.891602718E2,1.435532235E-2,4.077522457E-2,-1.527161989E-2
2.896644292E2,2.550360374E-2,1.863137633E-2,-7.177661173E-3
2.901685865E2,-1.908952370E-2,-2.519817278E-2,-3.512472380E-3
2.906727435E2,4.291325063E-2,3.985892609E-2,-3.665188793E-3
2.911769007E2,-2.153298259E-2,-1.328630932E-2,1.817322709E-2
2.916810579E2,1.191186346E-2,-5.192350596E-3,-7.483093534E-3
2.921852152E2,1.359174121E-2,2.672533318E-2,2.092211880E-2
2.926893726E2,-2.382372692E-2,-4.001164436E-2,-1.053741761E-2
2.931935304E2,1.343902480E-2,3.497200832E-2,1.985310577E-3
2.936976886E2,2.596175298E-3,-3.054323897E-4,1.069013379E-3
2.942018474E2,-4.123337101E-3,-6.108647678E-3,-7.941242307E-3
2.947060069E2,4.276053514E-3,5.803215317E-3,1.679878100E-3
2.952101673E2,-1.252272818E-2,-1.496618707E-2,2.443459118E-3
2.957143286E2,4.123337101E-3,2.107483521E-2,5.345067009E-3
2.962184911E2,2.748891478E-3,-1.221729536E-2,-3.512472380E-3
2.967226547E2,-1.985310577E-3,-1.069013379E-3,3.054323839E-3
2.972268191E2,7.635809947E-3,4.428769462E-3,-1.527161920E-3
2.977309842E2,-2.290742937E-3,4.734201822E-3,7.635809598E-4
2.982351497E2,-9.315688163E-3,-1.725693047E-2,1.069013379E-3
2.987393156E2,1.970038936E-2,2.855792828E-2,-1.221729559E-3
2.992434817E2,-9.468403645E-3,-9.468403645E-3,-7.635809598E-4
2.997476479E2,1.420260593E-2,2.306014486E-2,4.581485991E-4
3.002518142E2,-3.359756200E-3,-2.855792828E-2,-1.527161949E-4
3.007559805E2,3.665188793E-3,2.565632015E-2,-7.177661173E-3
3.012601469E2,-2.718348242E-2,-3.573558852E-2,-1.542433538E-2
3.017643134E2,1.175914705E-2,1.481347065E-2,1.130099874E-2
3.022684804E2,9.162971750E-3,1.695149764E-2,8.857538924E-3
3.027726479E2,-1.786779426E-2,-2.229656465E-2,-1.221729559E-3
3.032768160E2,9.315688163E-3,2.428187430E-2,-5.803215317E-3
3.037809847E2,-4.581485991E-4,-9.621120058E-3,-1.527161949E-4
3.042851540E2,9.315688163E-3,6.566796452E-3,6.108647794E-4
3.047893236E2,-1.679878100E-3,-6.108647794E-4,-3.665188793E-3
3.052934936E2,-6.261364091E-3,-1.435532235E-2,2.138026757E-3
3.057976636E2,1.496618707E-2,1.908952370E-2,6.261364091E-3
3.063018339E2,-4.581485875E-3,-6.108647678E-3,1.832594397E-3
3.068060041E2,-5.192350596E-3,-1.221729559E-3,3.665188793E-3
3.073101745E2,1.084284950E-2,2.596175298E-3,6.108647794E-4
3.078143453E2,-2.138026757E-3,4.581485875E-3,6.108647678E-3
3.083185164E2,1.160643063E-2,-8.552107029E-3,-6.108647678E-3
3.088226878E2,-2.748891478E-3,-5.497782957E-3,2.901607659E-3
3.093268594E2,6.261364091E-3,7.635809598E-4,-1.527161949E-4
3.098310312E2,-7.635809598E-4,-3.665188793E-3,9.162971983E-4
3.103352034E2,1.527161949E-4,6.108647678E-3,-3.817904973E-3
3.108393760E2,-2.290742937E-3,-4.581485991E-4,1.527161920E-3
3.113435490E2,-1.343902480E-2,-1.908952370E-2,-1.114828233E-2
3.118477222E2,8.399390616E-3,2.244928107E-2,1.985310577E-3
3.123518956E2,1.725693047E-2,9.773836471E-3,5.497782957E-3
3.128560692E2,-8.750637621E-2,-5.635227636E-2,4.505127668E-2
3.133602431E2,4.306596518E-2,4.566214234E-2,-2.275471389E-2
3.138644173E2,4.489856213E-2,4.413498193E-2,1.588248461E-2
3.143685921E2,-5.833758786E-2,-1.078176349E-1,-1.038470119E-2
3.148727673E2,-1.069013402E-2,2.611446939E-2,-9.010255337E-3
3.153769431E2,-9.621120058E-3,-2.596175298E-3,3.054323897E-4
3.158811192E2,1.084284950E-2,9.162971983E-4,-6.414080039E-3
3.163852952E2,1.313359290E-2,2.138026804E-2,-1.389717404E-2
3.168894709E2,-7.483093534E-3,-2.290742937E-3,-3.970621154E-3
3.173936464E2,9.468403645E-3,7.177661173E-3,-4.428769462E-3
3.178978217E2,1.313359290E-2,1.313359290E-2,4.734201822E-3
3.184019970E2,-1.114828233E-2,-1.343902480E-2,-2.138026757E-3
3.189061722E2,4.428769462E-3,8.857538924E-3,9.010255337E-3
3.194103472E2,2.428187430E-2,1.007926930E-2,6.414080039E-3
3.199145220E2,-8.552107029E-3,-1.084284950E-2,4.123337101E-3
3.204186972E2,-7.635809598E-4,8.093958721E-3,-3.512472380E-3
3.209228729E2,1.221729559E-3,-2.138026757E-3,-3.207040019E-3
3.214270489E2,-7.788525894E-3,-5.039634649E-3,3.970621154E-3
3.219312252E2,1.557705179E-2,7.483093534E-3,4.581485991E-4
3.224354018E2,-1.328630932E-2,-1.420260593E-2,-3.970621154E-3
3.229395784E2,5.650499370E-3,2.901607659E-3,-3.054323897E-4
3.234437551E2,6.566796452E-3,-7.483093534E-3,3.665188793E-3
3.239479317E2,-3.512472380E-3,8.552107029E-3,2.596175298E-3
3.244521085E2,-4.886918236E-3,-2.214384824E-2,1.069013379E-3
3.249562856E2,3.359756200E-3,1.664606482E-2,-5.497782957E-3
3.254604631E2,-2.351829410E-2,-4.734201822E-3,3.817904973E-3
3.259646412E2,2.229656465E-2,6.108647678E-3,-1.221729536E-2
3.264688201E2,2.260199748E-2,2.886336111E-2,1.282816008E-2
3.269729996E2,-1.053741761E-2,-1.191186346E-2,-6.566796452E-3
3.274771797E2,-5.192350596E-3,-1.618791744E-2,-2.443459118E-3
3.279813603E2,1.343902480E-2,3.497200832E-2,5.192350596E-3
3.284855417E2,-7.024944760E-3,-2.703076601E-2,-1.221729559E-3
3.289897235E2,-1.756236330E-2,-6.108647678E-3,4.734201822E-3
3.294939057E2,2.901607659E-3,-9.162971983E-4,3.512472380E-3
3.299980880E2,5.650499370E-3,1.023198478E-2,-1.679878100E-3
3.305022706E2,-1.298087649E-2,-3.023780696E-2,-1.069013379E-3
3.310064535E2,2.153298259E-2,2.199113183E-2,-8.857538924E-3
3.315106368E2,-1.725693047E-2,-2.428187430E-2,9.315688163E-3
3.320148211E2,8.704823442E-3,-2.901607752E-2,-4.581485991E-4
3.325190054E2,-5.497782957E-3,4.581485991E-4,2.733619884E-2
3.330231902E2,-3.252854943E-2,-4.444041103E-2,7.635809947E-3
3.335273750E2,3.848448023E-2,4.367683083E-2,1.756236330E-2
3.340315599E2,1.740964688E-2,-3.665188793E-3,1.802051067E-2
3.345357448E2,1.023198478E-2,5.192350596E-3,2.871064469E-2
3.350399298E2,2.993237413E-2,2.916879393E-2,3.527744114E-2
3.355441148E2,-1.939495653E-2,-3.604102135E-2,1.069013402E-2
3.360483001E2,1.985310577E-3,1.099556591E-2,1.343902480E-2
3.365524859E2,1.374445739E-3,-1.389717404E-2,1.634063199E-2
3.370566721E2,3.054323979E-2,-2.748891478E-3,8.093958721E-3
3.375608586E2,-2.932151034E-2,-2.000582218E-2,3.894263133E-2
3.380650456E2,5.009091273E-2,4.963276163E-2,1.450803876E-2
3.385692334E2,-1.832594350E-2,1.389717404E-2,2.275471389E-2
3.390734222E2,1.527161920E-3,-3.023780696E-2,-1.069013402E-2
3.395776116E2,-6.872228812E-3,-7.024944760E-3,-8.552107029E-3
3.400818019E2,1.924224012E-2,4.795288667E-2,-4.123337101E-3
3.405859929E2,6.261364091E-3,1.313359290E-2,5.497782957E-3
3.410901845E2,1.067486182E-1,-3.604102135E-2,2.031125315E-2
3.415943762E2,1.466075517E-2,-6.811141968E-2,8.368847519E-2
3.420985677E2,-1.908952370E-2,5.436696485E-2,-4.993819445E-2
3.426027587E2,-4.382954910E-2,-2.687804960E-2,-6.414080039E-3
3.431069495E2,1.725693047E-2,4.367683083E-2,-2.138026757E-3
3.436111398E2,-3.970621154E-3,5.345067009E-3,6.108647794E-4
3.441153297E2,-8.857538924E-3,-3.390299529E-2,-1.450803876E-2
3.446195189E2,-5.192350596E-3,3.207040019E-3,-3.665188793E-3
3.451237075E2,2.977965772E-2,2.550360374E-2,-1.069013379E-3
3.456278956E2,1.053741761E-2,7.635809598E-4,7.177661173E-3
3.461320831E2,-2.809977904E-2,-7.895427197E-2,-1.099556591E-2
3.466362703E2,-5.574141070E-2,8.796452731E-2,1.496618707E-2
3.471404572E2,-1.343902498E-1,-2.260199748E-2,-1.145371497E-1
3.476446441E2,5.329795182E-2,2.938259542E-1,-1.910479665E-1
3.481488315E2,5.238165334E-2,-1.159115955E-1,1.348484010E-1
3.486530195E2,8.460476995E-2,-4.367683083E-2,-9.590577334E-2
3.491572077E2,-5.803215504E-2,1.353065521E-1,-6.261363626E-2
3.496613961E2,-1.970038936E-2,1.221729536E-2,4.703658819E-2
3.501655844E2,-7.024944760E-3,-1.084284950E-2,1.298087649E-2
3.506697726E2,1.206457894E-2,1.878409274E-2,1.832594397E-3
3.511739607E2,2.351829410E-2,3.924806044E-2,-2.748891478E-3
3.516781483E2,-1.099556591E-2,-3.191768378E-2,1.343902480E-2
3.521823355E2,7.788525894E-3,1.939495653E-2,8.399390616E-3
3.526865222E2,-1.420260593E-2,-6.169734150E-2,-2.138026757E-3
3.531907088E2,8.246674202E-3,8.552107029E-3,2.138026757E-3
3.536948958E2,1.527161989E-2,1.756236330E-2,5.039634649E-3
3.541990833E2,-1.191186346E-2,-8.399390616E-3,-5.039634649E-3
3.547032713E2,1.099556591E-2,3.909534588E-2,-6.108647794E-4
3.552074598E2,-7.483093534E-3,1.954767294E-2,2.443459118E-3
3.557116486E2,-2.122755162E-2,-4.352411628E-2,2.901607659E-3
3.562158376E2,2.015853859E-2,7.086031139E-2,1.160643063E-2
3.567200269E2,-1.221729559E-3,-5.543597788E-2,-6.108647678E-3
3.572242163E2,4.734201822E-3,6.414080039E-3,3.665188793E-3
3.577284058E2,-9.010255337E-3,-1.847865991E-2,4.123337101E-3
3.582325954E2,2.916879393E-2,3.985892609E-2,-3.054323897E-4
3.587367852E2,-1.069013402E-2,-3.787361458E-2,-2.596175298E-3
3.592409751E2,-3.512472380E-3,-1.298087649E-2,-8.704823442E-3
3.597451652E2,6.261364091E-3,5.955931731E-3,-1.145371422E-2
3.602493551E2,4.581485991E-4,1.863137633E-2,1.374445739E-3
3.607535442E2,1.038470119E-2,-6.108647678E-3,-3.665188793E-3
3.612577322E2,-1.527161949E-4,1.572976820E-2,1.374445739E-3
3.617619189E2,-7.941242307E-3,-1.252272818E-2,2.290742937E-3
3.622661042E2,1.679878123E-2,3.985892609E-2,2.290742937E-3
3.627702886E2,-5.115992576E-2,-4.352411628E-2,5.345067009E-3
3.632744721E2,-2.046396956E-2,-2.977965772E-2,1.649334840E-2
3.637786547E2,3.390299529E-2,8.338304609E-2,3.512472380E-3
3.642828366E2,-3.191768378E-2,-1.029307172E-1,-5.803215317E-3
3.647870175E2,5.345067009E-3,1.099556591E-2,-1.130099874E-2
3.652911976E2,-1.527161920E-3,4.184423760E-2,-3.054323839E-3
3.657953767E2,1.527161949E-4,-8.399390616E-3,-5.192350596E-3
3.662995548E2,-1.221729559E-3,3.344484791E-2,1.221729536E-2
3.668037321E2,1.191186346E-2,-8.552107029E-3,4.734201822E-3
3.673079084E2,5.039634649E-3,2.244928107E-2,9.162971983E-4
3.678120839E2,1.679878100E-3,-3.848448023E-2,4.581485991E-4
3.683162588E2,1.053741761E-2,7.635809598E-4,5.039634649E-3
3.688204332E2,-6.566796452E-3,-1.435532235E-2,6.414080039E-3
3.693246071E2,2.443459118E-3,-3.252854943E-2,-7.330377586E-3
3.698287809E2,-3.970621154E-3,2.046396956E-2,-4.581485875E-3
3.703329553E2,-6.108647678E-3,3.054323839E-3,-1.511890348E-2
3.708371303E2,6.108647794E-4,1.847865991E-2,-1.511890348E-2
3.713413062E2,9.162971983E-4,1.298087649E-2,4.276053514E-3
3.718454827E2,1.603520103E-2,1.298087649E-2,8.704823442E-3
3.723496598E2,1.267544460E-2,-1.664606482E-2,3.207040019E-3
3.728538373E2,-2.657261863E-2,-1.221729559E-3,1.237001177E-2
3.733580151E2,4.734201822E-3,-3.359756200E-3,-1.069013379E-3
3.738621932E2,-4.734201822E-3,-9.773836471E-3,-3.359756200E-3
3.743663716E2,1.496618707E-2,3.039052337E-2,4.123337101E-3
3.748705508E2,-2.748891478E-3,-1.374445739E-3,7.635809947E-3
3.753747307E2,6.261364091E-3,-2.580903657E-2,-7.635809947E-3
3.758789113E2,-6.414080039E-3,1.832594397E-3,-5.650499370E-3
3.763830925E2,-3.512472380E-3,9.621120058E-3,-2.290742937E-3
3.768872745E2,-8.857538924E-3,-6.108647678E-3,-4.581485991E-4
3.773914571E2,4.276053514E-3,3.054323979E-2,2.443459118E-3
3.778956404E2,3.054323839E-3,-8.399390616E-3,1.527161949E-4
3.783998242E2,1.237001177E-2,1.237001177E-2,7.635809598E-4
3.789040086E2,-2.443459118E-3,-8.093958721E-3,3.512472380E-3
3.794081934E2,-4.581485875E-3,-1.466075517E-2,-3.207040019E-3
3.799123786E2,7.483093534E-3,1.328630932E-2,-3.359756200E-3
3.804165639E2,-1.603520103E-2,-1.527161920E-3,4.581485875E-3
3.809207494E2,7.177661173E-3,-3.970621154E-3,-8.246674202E-3
3.814249350E2,7.483093534E-3,3.161225095E-2,5.039634649E-3
3.819291211E2,-6.108647794E-4,-3.481929377E-2,-4.123337101E-3
3.824333076E2,1.007926930E-2,3.649916872E-2,7.483093534E-3
3.829374945E2,-1.664606482E-2,-2.458730713E-2,1.679878100E-3
3.834416820E2,6.566796452E-3,1.221729536E-2,9.162971983E-4
3.839458701E2,-9.162971750E-3,-3.665188793E-3,6.414080039E-3
3.844500585E2,5.039634649E-3,-4.581485875E-3,-4.428769462E-3
3.849542474E2,-4.886918236E-3,-2.412915789E-2,-9.621120058E-3
3.854584367E2,1.802051067E-2,5.650499091E-2,5.192350596E-3
3.859626263E2,9.162971983E-4,-1.374445739E-3,2.748891478E-3
3.864668159E2,-7.941242307E-3,-6.750056148E-2,-6.566796452E-3
3.869710051E2,-1.114828233E-2,4.871646687E-2,1.435532235E-2
3.874751940E2,1.114828233E-2,2.474002354E-2,-3.054323839E-3
3.879793828E2,-2.596175298E-3,-1.374445739E-3,2.138026757E-3
3.884835714E2,-3.512472380E-3,-2.932151034E-2,1.679878100E-3
3.889877600E2,8.399390616E-3,-1.481347065E-2,-1.206457894E-2
3.894919486E2,-1.527161920E-3,2.840521187E-2,8.704823442E-3
3.899961370E2,3.970621154E-3,-3.466657549E-2,-1.634063199E-2
3.905003253E2,-1.771507785E-2,4.764745384E-2,3.817904973E-3
3.910045137E2,3.115410358E-2,6.108647794E-4,-1.634063199E-2
3.915087017E2,-3.619373962E-2,-4.276053514E-3,8.399390616E-3
3.920128903E2,2.535088919E-2,2.672533318E-2,1.527161949E-4
3.925170789E2,-7.177661173E-3,-5.390881747E-2,5.803215317E-3
3.930212676E2,1.527161949E-4,-1.099556591E-2,-2.138026757E-3
3.935254566E2,-1.466075517E-2,2.947422490E-2,1.343902480E-2
3.940296457E2,2.153298259E-2,-2.596175298E-3,-2.138026757E-3
3.945338351E2,-1.542433538E-2,-2.932151034E-2,-1.985310577E-3
3.950380248E2,-9.315688163E-3,-1.282816008E-2,-1.069013379E-3
3.955422149E2,1.145371422E-2,7.788525894E-3,-1.420260593E-2
3.960464052E2,7.024944760E-3,1.756236330E-2,-2.901607659E-3
3.965505955E2,-1.985310577E-3,1.053741761E-2,6.872228812E-3
3.970547858E2,1.679878100E-3,1.191186346E-2,6.719512399E-3
3.975589762E2,-7.635809598E-4,1.832594397E-3,6.108647678E-3
3.980631663E2,-4.581485991E-4,2.901607659E-3,1.832594397E-3
3.985673561E2,-6.261364091E-3,-4.917461425E-2,-6.872228812E-3
3.990715457E2,1.771507785E-2,3.100138716E-2,-1.069013379E-3
3.995757353E2,-2.183841541E-2,-2.153298259E-2,2.290742937E-3
4.000799247E2,1.130099874E-2,-4.581485875E-3,-4.581485875E-3
4.005841141E2,-3.207040019E-3,-2.596175298E-3,-3.054323897E-4
4.010883035E2,-6.108647678E-3,-6.261364091E-3,1.069013379E-3
4.015924930E2,1.038470119E-2,2.275471389E-2,-1.527161920E-3
4.020966828E2,-7.483093534E-3,-2.015853859E-2,-1.099556591E-2
4.026008727E2,7.941242307E-3,1.679878123E-2,-0.000000000E0
4.031050627E2,9.162971983E-4,1.985310577E-2,5.803215317E-3
4.036092527E2,-9.468403645E-3,-2.703076601E-2,3.665188793E-3
4.041134428E2,1.496618707E-2,1.985310577E-2,7.483093534E-3
4.046176331E2,-9.468403645E-3,-2.519817278E-2,-6.108647794E-4
4.051218235E2,-4.734201822E-3,-1.832594350E-2,-1.466075517E-2
4.056260141E2,-4.123337101E-3,2.199113183E-2,-4.581485875E-3
4.061302047E2,3.512472380E-3,1.939495653E-2,-6.566796452E-3
4.066343956E2,-4.428769462E-3,-4.734201822E-3,-3.054323897E-4
4.071385865E2,1.588248461E-2,2.138026804E-2,-7.330377586E-3
4.076427776E2,9.468403645E-3,-7.177661173E-3,-2.138026804E-2
4.081469687E2,-2.794706449E-2,-2.535088919E-2,-2.306014486E-2
4.086511600E2,-1.069013402E-2,-6.261364091E-3,-3.665188700E-2
4.091553513E2,-1.252272818E-2,1.740964688E-2,-3.909534588E-2
4.096595426E2,-2.244928107E-2,-8.842267841E-2,-4.505127668E-2
4.101637338E2,-1.557705179E-2,-1.374445739E-3,-5.543597788E-2
4.106679249E2,-1.053741761E-2,-3.878991306E-2,-6.108647957E-2
4.111721159E2,-1.023198478E-2,-1.298087649E-2,-6.734783947E-2
4.116763068E2,-1.832594350E-2,2.901607752E-2,-6.475166976E-2
4.121804975E2,-5.497782957E-3,4.627300799E-2,-6.856957078E-2
4.126846882E2,-1.511890348E-2,2.489273995E-2,-5.283980444E-2
4.131888789E2,-5.192350596E-3,1.160643063E-2,-4.581485689E-2
4.136930695E2,3.054323897E-4,-1.450803876E-2,-4.780016840E-2
4.141972601E2,-1.221729536E-2,1.634063199E-2,-4.230238497E-2
4.147014507E2,4.123337101E-3,6.719512399E-3,-3.084867075E-2
4.152056410E2,-3.054323839E-3,4.444041103E-2,-1.695149764E-2
4.157098312E2,-5.955931731E-3,-5.803215317E-3,-1.267544460E-2
4.162140214E2,-1.191186346E-2,1.695149764E-2,-2.443459118E-3
4.167182116E2,1.374445739E-3,-4.169152305E-2,-6.719512399E-3
4.172224021E2,8.552107029E-3,4.398226365E-2,-9.162971983E-4
4.177265929E2,9.621120058E-3,-4.123337101E-3,1.069013379E-3
4.182307837E2,-2.901607659E-3,-2.932151034E-2,2.443459118E-3
4.187349744E2,-3.512472380E-3,9.162971750E-3,5.039634649E-3
4.192391651E2,9.162971983E-4,-8.246674202E-3,-3.665188793E-3
4.197433555E2,-6.261364091E-3,2.443459118E-3,-6.261364091E-3
4.202475459E2,-4.581485991E-4,-1.023198478E-2,-7.788525894E-3
4.207517362E2,1.389717404E-2,3.527744114E-2,-3.054323897E-4
4.212559264E2,2.901607659E-3,8.399390616E-3,5.955931731E-3
4.217601167E2,6.261364091E-3,-2.886336111E-2,-4.581485991E-4
4.222643073E2,-6.108647678E-3,1.313359290E-2,5.345067009E-3
4.227684984E2,1.664606482E-2,3.695731983E-2,1.679878100E-3
4.232726902E2,-1.114828233E-2,-3.787361458E-2,-7.635809947E-3
4.237768827E2,4.886918236E-3,3.436114267E-2,-3.054323839E-3
4.242810760E2,-6.261364091E-3,-3.924806044E-2,-8.399390616E-3
4.247852697E2,-7.757982612E-2,-4.780016840E-2,4.550942779E-2
4.252894638E2,5.329795182E-2,9.437860548E-2,-1.847865991E-2
4.257936579E2,-1.634063199E-2,6.108647678E-3,4.581485875E-3
4.262978518E2,-1.756236330E-2,-1.131627038E-1,-2.275471389E-2
4.268020454E2,1.802051067E-2,9.453132749E-2,9.621120058E-3
4.273062389E2,-7.788525894E-3,-3.955349326E-2,9.315688163E-3
4.278104325E2,1.053741761E-2,1.908952370E-2,3.512472380E-3
4.283146265E2,-4.581485875E-3,1.985310577E-3,2.138026757E-3
4.288188209E2,-3.054323897E-4,-3.970621154E-2,-1.130099874E-2
4.293230156E2,4.581485875E-3,-7.941242307E-3,-4.581485875E-3
4.298272106E2,1.374445739E-3,3.772090003E-2,4.276053514E-3
4.303314057E2,-1.038470119E-2,2.596175298E-3,-1.527161949E-4
4.308356007E2,9.315688163E-3,-7.987056673E-2,-2.611446939E-2
4.313397955E2,4.581485991E-4,7.712167501E-2,7.635809598E-4
4.318439903E2,1.313359290E-2,7.635809947E-3,-3.054323839E-3
4.323481852E2,-1.069013379E-3,5.039634649E-3,1.191186346E-2
4.328523803E2,-7.635809947E-3,-8.552107029E-3,1.985310577E-3
4.333565758E2,-4.734201822E-3,-7.024944760E-3,-4.123337101E-3
4.338607717E2,9.315688163E-3,-7.635809947E-3,-5.192350596E-3
4.343649679E2,5.345067009E-3,4.871646687E-2,1.267544460E-2
4.348691644E2,-1.374445762E-2,-2.519817278E-2,3.359756200E-3
4.353733610E2,9.315688163E-3,-5.497782957E-3,-4.581485875E-3
4.358775578E2,-7.635809598E-4,1.435532235E-2,1.572976820E-2
4.363817545E2,-1.756236330E-2,-5.100720748E-2,-3.207040019E-3
4.368859512E2,1.053741761E-2,1.893680729E-2,5.192350596E-3
4.373901478E2,9.926552884E-3,7.177661173E-3,1.160643063E-2
4.378943443E2,-1.527161920E-3,4.428769462E-3,9.621120058E-3
4.383985409E2,3.207040019E-3,-4.291325063E-2,1.237001177E-2
4.389027374E2,6.872228812E-3,-1.099556591E-2,1.542433538E-2
4.394069339E2,-8.399390616E-3,-4.444041103E-2,4.153880477E-2
4.399111302E2,6.719512399E-3,2.397644334E-2,4.260781780E-2
4.404153263E2,-7.635809598E-4,-1.970038936E-2,4.718930274E-2
4.409195221E2,3.145953640E-2,1.832594397E-3,4.077522457E-2
4.414237178E2,-9.315688163E-3,-2.596175298E-2,4.489856213E-2
4.419279134E2,2.809977904E-2,-6.108647794E-4,4.444041103E-2
4.424321090E2,1.191186346E-2,-7.330377586E-3,4.703658819E-2
4.429363045E2,1.343902480E-2,3.863719851E-2,6.627883017E-2
4.434405001E2,1.679878100E-3,-6.490438432E-2,5.345066637E-2
4.439446959E2,3.558287397E-2,4.444041103E-2,6.414080411E-2
4.444488920E2,-5.192350596E-3,-7.635809598E-4,6.918043643E-2
4.449530885E2,3.161225095E-2,5.039634556E-2,7.712167501E-2
4.454572850E2,-4.581485991E-4,-9.911280870E-2,5.742128938E-2
4.459614815E2,1.527161949E-4,5.345066637E-2,5.986474827E-2
4.464656778E2,2.458730713E-2,-7.483093534E-3,5.558869615E-2
4.469698741E2,0.000000000E0,-4.062250629E-2,5.283980444E-2
4.474740704E2,-1.649334840E-2,-6.704241037E-2,2.550360374E-2
4.479782664E2,1.679878100E-3,4.046979174E-2,1.954767294E-2
4.484824620E2,6.719512399E-3,3.512472659E-2,2.611446939E-2
4.489866575E2,2.397644334E-2,4.428769462E-3,1.191186346E-2
4.494908528E2,-1.847865991E-2,4.199695215E-2,2.260199748E-2
4.499950478E2,1.725693047E-2,-1.634063199E-2,-9.162971983E-4
4.504992426E2,1.206457894E-2,5.009091273E-2,2.382372692E-2
4.510034370E2,1.221729536E-2,-2.183841541E-2,-1.237001177E-2
4.515076315E2,-1.435532235E-2,-9.468403645E-3,4.276053514E-3
4.520118255E2,3.054323839E-3,3.359756200E-3,-9.010255337E-3
4.525160192E2,1.160643063E-2,2.779434808E-2,7.635809947E-3
4.530202126E2,-2.443459118E-3,4.886918236E-3,1.038470119E-2
4.535244058E2,9.926552884E-3,-1.328630932E-2,3.207040019E-3
4.540285987E2,-2.046396956E-2,-4.718930274E-2,-7.941242307E-3
4.545327913E2,3.665188793E-3,3.375028074E-2,-4.581485875E-3
4.550369837E2,1.359174121E-2,4.673115537E-2,1.756236330E-2
4.555411757E2,7.024944760E-3,-2.443459071E-2,4.123337101E-3
4.560453674E2,-1.298087649E-2,-7.024944760E-3,4.123337101E-3
4.565495588E2,7.177661173E-3,4.276053514E-3,7.635809598E-4
4.570537499E2,-9.162971750E-3,-1.649334840E-2,4.123337101E-3
4.575579407E2,-2.901607659E-3,7.483093534E-3,8.857538924E-3
4.580621312E2,-8.857538924E-3,-1.756236330E-2,-5.650499370E-3
4.585663213E2,8.857538924E-3,-1.114828233E-2,-1.985310577E-2
4.590705111E2,-5.039634649E-3,1.756236330E-2,2.000582218E-2
4.595747007E2,-9.621120058E-3,5.345067009E-3,-3.054323897E-4
4.600788901E2,7.788525894E-3,2.138026757E-3,-5.803215317E-3
4.605830795E2,-3.359756246E-2,-6.643154472E-2,-0.000000000E0
4.610872688E2,-1.954767294E-2,-7.345648855E-2,-2.168569900E-2
4.615914582E2,-9.621120058E-3,1.527161920E-3,-9.590577334E-2
4.620956476E2,-7.635809947E-3,6.856957078E-2,-5.497783050E-2
4.625998371E2,4.612028971E-2,1.421787739E-1,-2.107483521E-2
4.631040268E2,1.908952370E-2,1.488982886E-1,1.217148080E-1
4.636082166E2,1.450803876E-2,2.275471389E-2,1.238528341E-1
4.641124067E2,-1.206457894E-2,-7.864884287E-2,1.108719558E-1
4.646165970E2,2.748891478E-3,-6.475166976E-2,4.138609022E-2
4.651207876E2,-9.315688163E-3,-1.049160287E-1,-1.191186346E-2
4.656249786E2,-2.382372692E-2,-3.497200832E-2,-4.337139800E-2
4.661291700E2,-2.535088919E-2,-6.261364091E-3,-4.963276163E-2
4.666333678E2,-1.481347065E-2,8.857538924E-3,-5.253437161E-2
4.671375536E2,2.138026804E-2,3.802633286E-2,-5.039634556E-2
4.676417458E2,-9.162971983E-4,2.336557768E-2,-1.404988952E-2
4.681459383E2,2.626718581E-2,5.054906011E-2,3.970621154E-3
4.686501309E2,-1.343902480E-2,-4.810560122E-2,1.221729559E-3
4.691543237E2,-3.665188793E-3,-5.192350596E-3,2.138026757E-3
4.696585166E2,-1.053741761E-2,1.710421406E-2,1.603520103E-2
4.701627095E2,9.162971750E-3,2.244928107E-2,1.679878123E-2
4.706669023E2,2.443459118E-3,-3.054323979E-2,-1.527161920E-3
4.711710949E2,-4.123337101E-3,-9.315688163E-3,-1.252272818E-2
4.716752876E2,-8.399390616E-3,1.175914705E-2,-3.207040019E-3
4.721794805E2,-2.596175298E-3,-3.298669681E-2,-1.893680729E-2
4.726836735E2,-9.162971983E-4,3.695731983E-2,-4.734201822E-3
4.731878668E2,-1.756236330E-2,-1.450803876E-2,-1.160643063E-2
4.736920603E2,-8.552107029E-3,-7.635809947E-3,-2.703076601E-2
4.741962540E2,3.207040019E-3,1.145371422E-2,-3.130681813E-2
4.747004479E2,-5.039634649E-3,-1.756236330E-2,-3.298669681E-2
4.752046424E2,-1.404988952E-2,-1.985310577E-3,-2.015853859E-2
4.757088374E2,-1.359174121E-2,-2.153298259E-2,-1.939495653E-2
4.762130327E2,-6.108647678E-3,-1.649334840E-2,-4.245510325E-2
4.767172282E2,-3.054323839E-3,8.552107029E-3,-3.878991306E-2
4.772214236E2,-1.252272818E-2,2.489273995E-2,-2.519817278E-2
4.777256189E2,1.114828233E-2,-1.725693047E-2,-2.611446939E-2
4.782298141E2,1.374445739E-3,2.321286127E-2,-1.725693047E-2
4.787340092E2,-2.076940238E-2,-6.062832847E-2,-7.941242307E-3
4.792382043E2,-1.374445739E-3,4.734202102E-2,-1.267544460E-2
4.797423994E2,5.650499370E-3,-1.527161920E-3,-1.191186346E-2
4.802465946E2,1.908952370E-2,5.986474827E-2,-7.635809598E-4
4.807507898E2,-9.926552884E-3,-3.222311661E-2,8.704823442E-3
4.812549851E2,1.771507785E-2,3.222311661E-2,2.122755162E-2
4.817591801E2,-3.512472380E-3,-2.015853859E-2,2.428187430E-2
4.822633748E2,1.878409274E-2,-3.054323897E-4,4.138609022E-2
4.827675689E2,2.107483521E-2,2.183841541E-2,4.688387364E-2
4.832717628E2,9.468403645E-3,2.840521187E-2,4.932733253E-2
4.837759562E2,1.832594350E-2,3.451386094E-2,4.199695215E-2
4.842801492E2,-2.809977904E-2,1.374445739E-3,3.680460155E-2
4.847843415E2,9.926552884E-3,1.832594397E-3,1.542433538E-2
4.852885335E2,-4.214967042E-2,5.497782957E-3,3.207040206E-2
4.857927251E2,4.276053607E-2,-1.572976820E-2,1.328630932E-2
4.862969165E2,4.214967042E-2,4.932733253E-2,3.344484791E-2
4.868011083E2,-5.543597788E-2,-6.246092543E-2,3.268126398E-2
4.873053007E2,7.406735420E-2,4.077522457E-2,1.603520103E-2
4.878094935E2,-4.489856213E-2,-7.467821985E-2,1.847865991E-2
4.883136868E2,-2.596175298E-3,-2.244928107E-2,1.160643063E-2
4.888178803E2,1.878409274E-2,5.375609919E-2,1.313359290E-2
4.893220741E2,-1.404988952E-2,-3.756818548E-2,-9.773836471E-3
4.898262681E2,5.955931731E-3,1.175914705E-2,2.901607659E-3
4.903304622E2,-2.596175298E-3,1.679878123E-2,1.298087649E-2
4.908346563E2,-2.901607659E-3,-1.053741761E-2,1.145371422E-2
4.913388505E2,1.206457894E-2,9.162971750E-3,1.389717404E-2
4.918430448E2,1.069013379E-3,5.345067009E-3,5.345067009E-3
4.923472394E2,1.420260593E-2,3.054323897E-4,1.374445739E-3
4.928514342E2,-1.496618707E-2,-1.893680729E-2,1.679878100E-3
4.933556292E2,-3.970621154E-3,-1.832594350E-2,-0.000000000E0
4.938598244E2,3.054323839E-3,3.665188793E-3,-5.650499370E-3
4.943640199E2,-1.863137633E-2,-4.382954910E-2,-5.497782957E-3
4.948682156E2,-6.872228812E-3,-4.428769462E-3,-1.481347065E-2
4.953724110E2,1.664606482E-2,5.009091273E-2,-2.748891478E-3
4.958766062E2,6.108647678E-3,5.650499370E-3,-2.046396956E-2
4.963808011E2,-8.857538924E-3,-3.909534588E-2,-1.756236330E-2
4.968849960E2,-6.108647794E-4,3.069595434E-2,-1.954767294E-2
4.973891911E2,2.290742937E-3,6.719512399E-3,-1.007926930E-2
4.978933863E2,-1.191186346E-2,-1.374445739E-3,-5.345067009E-3
4.983975816E2,5.192350596E-3,3.268126398E-2,-5.345067009E-3
4.989017772E2,1.343902480E-2,-4.276053514E-3,7.635809598E-4
4.994059733E2,-1.374445762E-2,-6.108647794E-4,7.941242307E-3
4.999101700E2,1.053741761E-2,1.664606482E-2,6.872228812E-3
5.004143676E2,-7.635809947E-3,-7.635809598E-4,8.093958721E-3
5.009185659E2,-7.635809947E-3,9.010255337E-3,1.603520103E-2
5.014227643E2,-3.054323839E-3,-3.817904973E-3,3.833176568E-2
5.019269628E2,5.803215317E-3,-9.773836471E-3,2.412915789E-2
5.024311617E2,-6.108647794E-4,8.704823442E-3,-7.483093534E-3
5.029353612E2,-9.468403645E-3,-1.863137633E-2,-1.756236330E-2
5.034395611E2,-2.046396956E-2,-5.207622424E-2,-3.222311661E-2
5.039437614E2,-2.260199748E-2,-9.162971377E-2,-6.169734150E-2
5.044479618E2,-4.596757516E-2,-1.024725661E-1,-6.078104675E-2
5.049521623E2,-5.070177838E-2,-4.657844082E-2,-4.291325063E-2
5.054563631E2,-2.183841541E-2,1.165224537E-1,-1.061377525E-1
5.059605646E2,5.650499370E-3,5.665770918E-2,-1.392771751E-1
5.064647664E2,1.817322709E-2,1.522580534E-1,-3.313941509E-2
5.069689684E2,5.971203372E-2,7.971785218E-2,6.627883017E-2
5.074731703E2,-7.177661173E-3,-3.787361458E-2,1.528689116E-1
5.079773719E2,6.582067907E-2,5.986474827E-2,2.309068888E-1
5.084815731E2,3.390299529E-2,3.100138716E-2,1.560759544E-1
5.089857736E2,1.649334840E-2,-8.689551800E-2,6.719512492E-2
5.094899735E2,-2.657261863E-2,-4.398226440E-1,-2.690859437E-1
5.099941727E2,-1.366809905E-1,1.806632578E-1,-6.505709887E-2
5.104983713E2,5.390881747E-2,-3.174969554E-1,2.229656465E-2
5.110025694E2,-7.345648855E-2,-1.082757786E-1,-2.927569449E-1
5.115067667E2,-1.198822111E-1,4.306596518E-2,-1.857028902E-1
5.120109643E2,4.444041103E-2,3.970621154E-3,1.802051067E-2
5.125151619E2,-1.359174121E-2,6.688969582E-2,9.468403645E-3
5.130193592E2,9.468403645E-3,-6.108647794E-4,7.635809598E-4
5.135235563E2,-1.343902480E-2,2.076940238E-2,1.328630932E-2
5.140277529E2,2.290742937E-3,4.749473557E-2,1.695149764E-2
5.145319489E2,2.076940238E-2,-1.420260593E-2,6.108647678E-3
5.150361447E2,1.527161920E-3,-2.046396956E-2,-7.941242307E-3
5.155403402E2,2.138026757E-3,3.054323839E-3,3.054323897E-4
5.160445354E2,1.527161920E-3,2.351829410E-2,-2.596175298E-3
5.165487301E2,-4.581485991E-4,-3.665188700E-2,-3.054323897E-4
5.170529243E2,2.901607659E-3,4.077522457E-2,1.985310577E-3
5.175571184E2,1.069013379E-3,-1.618791744E-2,4.428769462E-3
5.180613126E2,-3.970621154E-3,-2.275471389E-2,-5.192350596E-3
5.185655067E2,9.315688163E-3,5.650499370E-3,-9.773836471E-3
5.190697008E2,-9.926552884E-3,1.206457894E-2,2.901607659E-3
5.195738950E2,6.261364091E-3,5.955931731E-3,-1.527161949E-4
5.200780889E2,2.290742937E-3,1.099556591E-2,5.039634649E-3
5.205822827E2,7.177661173E-3,-1.908952370E-2,6.108647794E-4
5.210864760E2,-1.649334840E-2,1.832594397E-3,-3.054323897E-4
5.215906689E2,2.901607659E-3,-4.428769462E-3,-1.908952370E-2
5.220948614E2,3.970621154E-3,-2.687804960E-2,-7.941242307E-3
5.225990535E2,-5.497782957E-3,-1.878409274E-2,-1.985310577E-2
5.231032454E2,-1.847865991E-2,-5.589412898E-2,-2.076940238E-2
5.236074372E2,-1.435532235E-2,-5.054906011E-2,-2.809977904E-2
5.241116291E2,-1.084284950E-2,1.939495653E-2,-4.917461425E-2
5.246158212E2,-2.443459071E-2,-2.138026757E-3,-4.276053607E-2
5.251200135E2,-1.771507785E-2,-1.343902480E-2,-4.871646687E-2
5.256242059E2,-4.077522457E-2,2.199113183E-2,-3.833176568E-2
5.261283984E2,-1.175914705E-2,1.786779426E-2,-4.169152305E-2
5.266325909E2,-6.108647678E-3,1.099556591E-2,-2.901607752E-2
5.271367835E2,-1.832594397E-3,8.445205539E-2,-2.489273995E-2
5.276409762E2,-8.857538924E-3,1.267544460E-2,-1.985310577E-3
5.281451690E2,-2.290742937E-3,3.558287397E-2,-3.359756200E-3
5.286493620E2,3.817904973E-3,-1.786779426E-2,3.817904973E-3
5.291535551E2,5.650499370E-3,-4.734201822E-3,4.428769462E-3
5.296577482E2,-4.123337101E-3,-2.214384824E-2,1.023198478E-2
5.301619413E2,1.023198478E-2,8.552107029E-3,1.710421406E-2
5.306661344E2,-4.581485875E-3,-6.948586553E-2,1.007926930E-2
5.311703273E2,-9.621120058E-3,6.261363626E-2,-3.985892609E-2
5.316745201E2,-1.130099874E-2,2.550360374E-2,4.276053514E-3
5.321787127E2,3.695731983E-2,6.108647794E-4,1.771507785E-2
5.326829052E2,-6.719512399E-3,-7.635809598E-4,-1.527161949E-4
5.331870977E2,1.802051067E-2,-4.413498193E-2,1.832594397E-3
5.336912901E2,-1.175914705E-2,2.947422490E-2,-9.162971750E-3
5.341954824E2,5.955931731E-3,1.023198478E-2,1.679878100E-3
5.346996744E2,-1.435532235E-2,7.788525894E-3,4.734201822E-3
5.352038665E2,1.084284950E-2,-2.489273995E-2,-5.192350596E-3
5.357080586E2,-1.817322709E-2,2.703076601E-2,1.832594397E-3
5.362122507E2,1.374445762E-2,-2.840521187E-2,-6.872228812E-3
5.367164430E2,-3.848448023E-2,-3.497200832E-2,1.389717404E-2
5.372206354E2,3.054323839E-3,2.596175298E-3,-7.483093534E-3
5.377248281E2,3.344484791E-2,1.038470119E-2,6.719512399E-3
5.382290214E2,-1.435532235E-2,1.252272818E-2,-2.504545636E-2
5.387332155E2,-1.664606482E-2,-4.413498193E-2,2.748891478E-3
5.392374107E2,2.657261863E-2,7.513637096E-2,-3.283398226E-2
5.397416072E2,-1.130099874E-2,8.491020650E-2,4.108065739E-2
5.402458045E2,2.565632015E-2,1.776089370E-1,-1.076649204E-1
5.407500024E2,-9.483675659E-2,-2.648098767E-1,1.218675226E-1
5.412542005E2,2.901607659E-3,2.489273995E-1,-3.266599476E-1
5.417583987E2,-7.528908551E-2,-2.148716897E-1,2.443459071E-2
5.422625969E2,-1.023198515E-1,-1.221729536E-2,-5.955931731E-3
5.427667951E2,0.000000000E0,1.508836001E-1,3.016144931E-1
5.432709935E2,-8.399390616E-3,6.688969582E-2,9.162971750E-3
5.437751924E2,-3.023780696E-2,-7.635809947E-3,2.229656465E-2
5.442793917E2,1.374445762E-2,3.329212964E-2,7.788525894E-3
5.447835914E2,-5.192350596E-3,-2.901607659E-3,4.734201822E-3
5.452877912E2,1.023198478E-2,-6.414080039E-3,-1.634063199E-2
5.457919908E2,-7.177661173E-3,2.443459118E-3,1.832594397E-3
5.462961904E2,7.788525894E-3,4.337139800E-2,5.192350596E-3
5.468003899E2,6.261364091E-3,-8.704823442E-3,-3.054323839E-3
5.473045892E2,-2.748891525E-2,-5.955931731E-3,8.704823442E-3
5.478087884E2,3.665188793E-3,3.772090003E-2,3.512472380E-3
5.483129875E2,-4.428769462E-3,-3.130681813E-2,6.872228812E-3
5.488171865E2,8.857538924E-3,2.397644334E-2,7.635809947E-3
5.493213856E2,1.618791744E-2,-4.337139800E-2,-1.603520103E-2
5.498255848E2,2.138026757E-3,-2.932151034E-2,-8.246674202E-3
5.503297838E2,-9.162971983E-4,7.223475724E-2,1.038470119E-2
5.508339824E2,-7.330377586E-3,-4.214967042E-2,-1.908952370E-2
5.513381806E2,-1.985310577E-3,-6.566796452E-3,-1.557705179E-2
5.518423786E2,5.803215317E-3,3.481929377E-2,3.054323839E-3
5.523465763E2,-1.374445739E-3,1.695149764E-2,2.596175298E-3
5.528507739E2,-1.527161949E-4,-6.872228812E-3,2.748891478E-3
5.533549714E2,-9.162971983E-4,-2.901607659E-3,-4.123337101E-3
5.538591688E2,-4.581485875E-3,-8.552107029E-3,0.000000000E0
5.543633661E2,-1.832594397E-3,1.710421406E-2,-3.207040019E-3
5.548675632E2,-6.872228812E-3,1.145371422E-2,7.330377586E-3
5.553717602E2,4.123337101E-3,7.177661173E-3,-1.527161949E-4
5.558759570E2,-8.552107029E-3,-4.581485875E-3,3.054323897E-4
5.563801539E2,9.010255337E-3,1.466075517E-2,4.886918236E-3
5.568843506E2,-3.054323839E-3,-2.916879393E-2,-7.177661173E-3
5.573885473E2,-1.527161920E-3,1.557705179E-2,1.191186346E-2
5.578927439E2,-1.252272818E-2,-1.985310577E-3,-4.428769462E-3
5.583969405E2,1.939495653E-2,1.450803876E-2,3.054323897E-4
5.589011371E2,-1.710421406E-2,-2.565632015E-2,6.261364091E-3
5.594053336E2,1.007926930E-2,1.099556591E-2,-3.817904973E-3
5.599095299E2,2.290742937E-3,-1.160643063E-2,-6.108647794E-4
5.604137260E2,3.207040019E-3,7.483093534E-3,6.108647794E-4
5.609179219E2,-4.276053514E-3,-2.748891478E-3,3.359756200E-3
5.614221177E2,-3.054323839E-3,1.527161949E-4,1.527161949E-4
5.619263132E2,-1.603520103E-2,-1.374445762E-2,-2.596175298E-3
5.624305085E2,4.734201822E-3,2.748891478E-3,-1.832594397E-3
5.629347035E2,-1.221729559E-3,-5.039634649E-3,-2.138026757E-3
5.634388981E2,1.114828233E-2,-4.291325063E-2,-1.832594350E-2
5.639430928E2,-0.000000000E0,3.359756246E-2,1.679878100E-3
5.644472875E2,-3.054323897E-4,1.832594350E-2,5.039634649E-3
5.649514823E2,4.123337101E-3,7.635809598E-4,1.985310577E-3
5.654556770E2,-1.802051067E-2,1.557705179E-2,7.635809947E-3
5.659598720E2,2.397644334E-2,3.970621154E-2,1.588248461E-2
5.664640670E2,-2.993237413E-2,-1.450803876E-2,1.893680729E-2
5.669682620E2,1.175914705E-2,-9.483675659E-2,-3.436114267E-2
5.674724569E2,1.099556591E-2,8.628465235E-2,1.985310577E-2
5.679766515E2,-1.007926930E-2,-2.809977904E-2,-8.093958721E-3
5.684808462E2,3.207040019E-3,2.947422490E-2,1.985310577E-3
5.689850407E2,-8.857538924E-3,-1.878409274E-2,-1.069013379E-3
5.694892354E2,-2.138026757E-3,5.192350596E-3,-1.221729559E-3
5.699934302E2,-1.359174121E-2,-1.221729559E-3,-3.359756200E-3
5.704976252E2,-1.527161949E-4,-4.886918236E-3,-9.621120058E-3
5.710018203E2,2.901607659E-3,2.809977904E-2,6.872228812E-3
5.715060158E2,5.497782957E-3,4.123337101E-3,8.246674202E-3
5.720102106E2,5.039634649E-3,-7.941242307E-3,-2.748891478E-3
5.725144050E2,-1.588248461E-2,-9.468403645E-3,-7.635809598E-4
5.730185995E2,1.130099874E-2,1.237001177E-2,3.359756200E-3
5.735227941E2,5.039634649E-3,3.817904973E-3,1.099556591E-2
5.740269889E2,-4.886918236E-3,-6.566796452E-3,-5.650499370E-3
5.745311837E2,1.038470119E-2,9.621120058E-3,6.414080039E-3
5.750353782E2,-5.955931731E-3,-4.795288667E-2,-1.893680729E-2
5.755395724E2,-6.872228812E-3,3.145953640E-2,-4.581485875E-3
5.760437663E2,-6.872228812E-3,-6.108647678E-3,-1.466075517E-2
5.765479598E2,-5.803215317E-3,-4.077522457E-2,-2.672533318E-2
5.770521531E2,-5.803215317E-3,-1.282816008E-2,-3.436114267E-2
5.775563462E2,-4.581485875E-3,1.007926930E-2,-3.344484791E-2
5.780605393E2,-2.138026757E-3,6.566796452E-3,-2.565632015E-2
5.785647322E2,-5.955931731E-3,3.817904741E-2,-1.893680729E-2
5.790689251E2,-9.621120058E-3,-3.665188793E-3,-1.832594350E-2
5.795731181E2,-6.261364091E-3,-5.345067009E-3,-1.588248461E-2
5.800773109E2,6.872228812E-3,1.282816008E-2,-2.092211880E-2
5.805815035E2,-9.315688163E-3,2.306014486E-2,-1.252272818E-2
5.810856958E2,1.282816008E-2,2.458730713E-2,-4.276053514E-3
5.815898879E2,-1.099556591E-2,3.573558852E-2,1.863137633E-2
5.820940798E2,1.710421406E-2,-1.069013402E-2,-2.748891478E-3
5.825982716E2,-1.603520103E-2,-2.031125315E-2,-4.276053514E-3
5.831024635E2,-4.123337101E-3,-1.496618707E-2,-7.788525894E-3
5.836066554E2,3.512472380E-3,1.557705179E-2,6.566796452E-3
5.841108472E2,7.788525894E-3,3.756818548E-2,1.481347065E-2
5.846150388E2,-4.276053514E-3,-3.649916872E-2,-1.084284950E-2
5.851192301E2,9.773836471E-3,1.221729559E-3,-1.374445739E-3
5.856234211E2,-1.664606482E-2,3.237583488E-2,2.244928107E-2
5.861276119E2,1.572976820E-2,-2.168569900E-2,-1.511890348E-2
5.866318026E2,-1.435532235E-2,-2.641990222E-2,-1.832594397E-3
5.871359930E2,-2.596175298E-3,7.177661173E-3,-4.734201822E-3
5.876401834E2,4.428769462E-3,-4.734201822E-3,-3.665188793E-3
5.881443737E2,-1.527161949E-4,1.985310577E-3,-7.024944760E-3
5.886485641E2,-5.192350596E-3,8.857538924E-3,5.650499370E-3
5.891527544E2,-3.054323839E-3,1.664606482E-2,-1.679878100E-3
5.896569448E2,1.634063199E-2,-2.153298259E-2,-2.290742937E-3
5.901611352E2,-7.635809947E-3,2.290742844E-2,1.282816008E-2
5.906653257E2,7.483093534E-3,1.007926930E-2,7.024944760E-3
5.911695162E2,-1.481347065E-2,-3.909534588E-2,-3.359756200E-3
5.916737067E2,7.177661173E-3,1.298087649E-2,-3.665188793E-3
5.921778972E2,-7.483093534E-3,3.359756200E-3,9.773836471E-3
5.926820875E2,3.054323839E-3,2.901607659E-3,9.162971983E-4
5.931862777E2,2.748891478E-3,-9.621120058E-3,-1.160643063E-2
5.936904676E2,-4.123337101E-3,1.374445739E-3,-1.832594397E-3
5.941946575E2,-5.039634649E-3,2.565632015E-2,-2.748891478E-3
5.946988474E2,6.108647794E-4,-2.076940238E-2,6.566796452E-3
5.952030372E2,1.160643063E-2,1.160643063E-2,4.428769462E-3
5.957072268E2,-5.650499370E-3,-3.970621154E-3,-7.635809598E-4
5.962114161E2,1.069013402E-2,-5.955931731E-3,3.359756200E-3
5.967156051E2,-1.649334840E-2,7.635809598E-4,-0.000000000E0
5.972197936E2,7.941242307E-3,9.162971983E-4,-2.596175298E-3
5.977239813E2,-1.160643063E-2,1.527161949E-4,-1.221729559E-3
5.982281688E2,3.207040019E-3,2.474002354E-2,4.734201822E-3
5.987323565E2,9.315688163E-3,-2.367101051E-2,-4.886918236E-3
5.992365448E2,-9.621120058E-3,-4.428769462E-3,1.221729559E-3
5.997407335E2,-5.192350596E-3,-1.939495653E-2,-9.773836471E-3
6.002449224E2,9.010255337E-3,3.375028074E-2,-4.428769462E-3
6.007491115E2,3.817904973E-3,-6.979130208E-2,5.039634649E-3
6.012533006E2,4.581485875E-3,3.054323979E-2,4.428769462E-3
6.017574900E2,-7.788525894E-3,9.621120058E-3,6.872228812E-3
6.022616795E2,1.374445739E-3,-1.221729536E-2,-1.435532235E-2
6.027658692E2,-8.246674202E-3,3.848448023E-2,5.039634649E-3
6.032700588E2,-7.788525894E-3,-2.932151034E-2,1.649334840E-2
6.037742485E2,4.734201822E-3,3.543015569E-2,2.138026757E-3
6.042784384E2,-1.679878100E-3,-5.803215317E-3,-4.581485991E-4
6.047826282E2,6.414080039E-3,4.734201822E-3,6.108647678E-3
6.052868180E2,-4.734201822E-3,7.788525894E-3,1.221729536E-2
6.057910079E2,3.665188793E-3,1.664606482E-2,-2.290742937E-3
6.062951978E2,7.941242307E-3,-4.276053514E-3,2.748891478E-3
6.067993879E2,9.162971983E-4,5.345067009E-3,1.069013379E-3
6.073035780E2,-5.192350596E-3,4.886918236E-3,3.817904973E-3
6.078077681E2,-1.328630932E-2,-9.376774728E-2,-4.612028971E-2
6.083119581E2,-7.788525894E-3,6.261364091E-3,-4.734202102E-2
6.088161482E2,4.886918236E-3,2.107483521E-2,-7.757982612E-2
6.093203383E2,-6.414080039E-3,1.603520103E-2,-8.139773458E-2
6.098245283E2,-2.748891525E-2,5.207622424E-2,-5.513054505E-2
6.103287181E2,4.581485875E-3,9.834922850E-2,-3.039052337E-2
6.108329078E2,1.527161949E-4,7.024944760E-3,1.420260593E-2
6.113370973E2,1.298087649E-2,-2.519817278E-2,1.740964688E-2
6.118412869E2,4.734201822E-3,-4.245510325E-2,3.054323897E-4
6.123454764E2,-9.315688163E-3,-3.298669681E-2,-4.306596518E-2
6.128496661E2,-1.878409274E-2,5.115992576E-2,-6.994401664E-2
6.133538557E2,-2.977965772E-2,-1.304196268E-1,-1.169806048E-1
6.138580452E2,-5.696314201E-2,5.619955808E-2,-2.050978541E-1
6.143622347E2,-7.376192510E-2,-4.001164436E-2,-2.547306120E-1
6.148664240E2,-1.084285006E-1,1.664606482E-2,-3.037525117E-1
6.153706131E2,-1.104138121E-1,3.985892609E-2,-3.440696001E-1
6.158748021E2,-1.160643101E-1,5.115992576E-2,-3.182605505E-1
6.163789909E2,-1.041524485E-1,8.277218044E-2,-3.065013885E-1
6.168831796E2,-9.651663154E-2,8.949168772E-2,-2.596175373E-1
6.173873681E2,-7.131846249E-2,2.223547846E-1,-2.191477418E-1
6.178915562E2,-2.275471389E-2,9.208786488E-2,-1.258381456E-1
6.183957438E2,-3.023780696E-2,1.881463528E-1,-3.711003438E-2
6.188999308E2,2.351829410E-2,9.804379940E-2,2.733619884E-2
6.194041169E2,5.650499370E-3,-4.138609022E-2,9.468403645E-3
6.199083023E2,1.282816008E-2,1.725693047E-2,1.374445762E-2
6.204124870E2,5.497782957E-3,1.099556591E-2,7.635809947E-3
6.209166710E2,1.939495653E-2,-3.069595434E-2,-5.039634649E-3
6.214208544E2,-2.535088919E-2,1.542433538E-2,-6.414080039E-3
6.219250372E2,2.061668597E-2,2.138026757E-3,-9.315688163E-3
6.224292193E2,-3.405570984E-2,-5.955931731E-3,9.621120058E-3
6.229334009E2,2.428187430E-2,-2.809977904E-2,-1.542433538E-2
6.234375820E2,-9.315688163E-3,-6.215549260E-2,-1.374445762E-2
6.239417625E2,5.955931731E-3,-8.246674202E-3,5.803215317E-3
6.244459425E2,-1.130099874E-2,6.261364091E-3,2.443459118E-3
6.249501221E2,-1.069013379E-3,-3.894263133E-2,1.298087649E-2
6.254543012E2,2.550360374E-2,3.940077871E-2,5.757400393E-2
6.259584799E2,2.290742937E-3,1.197294965E-1,1.180496216E-1
6.264626582E2,-1.099556591E-2,-4.306596518E-2,1.496618688E-1
6.269668360E2,9.010255337E-3,9.468403645E-3,1.727220118E-1
6.274710134E2,-1.985310577E-3,-3.359756246E-2,1.658497900E-1
6.279751905E2,2.535088919E-2,-2.535088919E-2,1.748600453E-1
6.284793674E2,1.450803876E-2,-6.169734150E-2,1.692095399E-1
6.289835448E2,1.374445739E-3,-4.337139800E-2,1.855501831E-1
6.294877233E2,1.053741761E-2,-2.092211880E-2,1.904370934E-1
6.299919031E2,4.886918236E-3,-3.222311661E-2,1.867718995E-1
6.304960840E2,7.635809598E-4,-2.626718581E-2,1.847866029E-1
6.310002659E2,1.023198478E-2,-3.833176568E-2,1.707367003E-1
6.315044490E2,1.481347065E-2,-9.529490769E-2,1.473711282E-1
6.320086326E2,1.282816008E-2,-3.466657549E-2,1.458439678E-1
6.325128169E2,-1.985310577E-3,-5.558869615E-2,1.377500147E-1
6.330170018E2,1.618791744E-2,-1.432477981E-1,7.376192510E-2
6.335211870E2,1.099556591E-2,5.543597788E-2,9.285144508E-2
6.340253724E2,-4.581485875E-3,-5.451968312E-2,5.543597788E-2
6.345295580E2,1.328630932E-2,-1.145371422E-2,5.833758786E-2
6.350337437E2,-1.160643063E-2,3.924806044E-2,5.192350596E-2
6.355379295E2,1.313359290E-2,-7.238747925E-2,2.214384824E-2
6.360421155E2,-1.679878100E-3,-3.772090003E-2,-2.901607659E-3
6.365463016E2,7.024944760E-3,2.290742937E-3,1.832594397E-3
6.370504877E2,1.527161949E-4,3.970621154E-3,-1.160643063E-2
6.375546739E2,6.108647794E-4,7.895427197E-2,1.404988952E-2
6.380588603E2,-9.162971750E-3,-1.634063199E-2,-4.123337101E-3
6.385630469E2,-2.458730713E-2,1.007926930E-2,-7.177661173E-3
6.390672339E2,2.443459118E-3,5.268708616E-2,2.306014486E-2
6.395714211E2,3.054323897E-4,6.719512399E-3,2.214384824E-2
6.400756083E2,-1.114828233E-2,-3.329212964E-2,8.246674202E-3
6.405797954E2,-3.970621154E-3,-1.160643063E-2,1.053741761E-2
6.410839825E2,-4.382954910E-2,-8.903354406E-2,9.468403645E-3
6.415881697E2,-1.450803876E-2,-9.162971750E-3,1.527161989E-2
6.420923573E2,1.267544478E-1,5.971203372E-2,5.742128938E-2
6.425965454E2,1.513417512E-1,-4.810560122E-2,1.350011230E-1
6.431007341E2,-1.939495653E-2,3.817904973E-3,-1.070540547E-1
6.436049231E2,1.679878100E-3,9.621120058E-3,6.261364091E-3
6.441091123E2,3.161225095E-2,-2.641990222E-2,-6.658425927E-2
6.446133016E2,-9.468403645E-3,2.519817278E-2,1.175914705E-2
6.451174909E2,4.795288667E-2,-7.910698652E-2,7.819069177E-2
6.456216803E2,-8.796452731E-2,5.910116807E-2,-6.750056148E-2
6.461258698E2,-2.504545636E-2,-3.649916872E-2,-4.199695215E-2
6.466300592E2,-3.130681813E-2,-6.948586553E-2,-8.765909821E-2
6.471342489E2,-2.519817278E-2,6.566796452E-3,-1.924224049E-1
6.476384382E2,-6.566796452E-2,-7.024944760E-3,-2.432768941E-1
6.481426279E2,-8.231402934E-2,1.191186346E-2,-3.139844835E-1
6.486468176E2,-9.285144508E-2,-1.832594397E-3,-3.567450345E-1
6.491510072E2,-1.120936871E-1,9.056070447E-2,-4.161516428E-1
6.496551967E2,-1.081230640E-1,1.514944583E-1,-3.992001414E-1
6.501593861E2,-6.414080411E-2,1.304196268E-1,-3.132209182E-1
6.506635752E2,-7.941242307E-2,3.894263133E-2,-2.208276242E-1
6.511677643E2,-2.977965772E-2,5.085449293E-2,-1.817322671E-1
6.516719532E2,-2.138026804E-2,3.604102135E-2,-9.605848789E-2
6.521761420E2,-2.412915789E-2,7.635809947E-3,-7.727439702E-2
6.526803306E2,7.635809598E-4,1.359174121E-2,-5.849030241E-2
6.531845191E2,-1.252272818E-2,8.613193035E-2,-3.619373962E-2
6.536887074E2,2.596175298E-3,1.145371422E-2,-9.621120058E-3
6.541928954E2,-1.221729559E-3,1.343902480E-2,6.872228812E-3
6.546970832E2,-3.359756200E-3,3.481929377E-2,1.786779426E-2
6.552012710E2,-2.290742937E-3,-7.024944760E-3,4.734201822E-3
6.557054585E2,5.955931731E-3,-1.511890348E-2,-1.618791744E-2
6.562096460E2,3.665188793E-3,-2.138026804E-2,-7.024944760E-3
6.567138333E2,-3.054323897E-4,1.328630932E-2,5.192350596E-3
6.572180205E2,-6.414080039E-3,6.566796452E-3,5.803215317E-3
6.577222076E2,-7.941242307E-3,-5.345067009E-3,1.023198478E-2
6.582263944E2,7.177661173E-3,-1.832594397E-3,-3.054323839E-3
6.587305812E2,1.832594397E-3,-2.336557768E-2,-1.328630932E-2
6.592347678E2,9.315688163E-3,2.183841541E-2,1.313359290E-2
6.597389543E2,-9.162971983E-4,7.177661173E-3,4.123337101E-3
6.602431408E2,-1.069013379E-3,-9.010255337E-3,-3.817904973E-3
6.607473271E2,1.679878100E-3,1.908952370E-2,1.679878100E-3
6.612515131E2,-6.261364091E-3,-3.604102135E-2,-8.093958721E-3
6.617556989E2,-4.886918236E-3,7.483093534E-3,-2.596175298E-3
6.622598846E2,-3.970621154E-3,-5.207622424E-2,-1.175914705E-2
6.627640702E2,-1.206457894E-2,4.657844082E-2,7.635809598E-4
6.632682558E2,2.076940238E-2,-3.054323897E-4,-1.267544460E-2
6.637724415E2,-7.330377586E-3,-6.719512399E-3,-2.138026757E-3
6.642766273E2,1.374445739E-3,3.375028074E-2,1.985310577E-3
6.647808133E2,2.748891478E-3,4.581485991E-4,7.941242307E-3
6.652849993E2,-1.069013379E-3,5.696314201E-2,2.565632015E-2
6.657891852E2,2.275471389E-2,4.321868345E-2,5.299251899E-2
6.662933709E2,-3.970621154E-3,-3.008509055E-2,3.909534588E-2
6.667975564E2,4.428769462E-3,-3.176496923E-2,2.550360374E-2
6.673017419E2,1.084284950E-2,-2.153298259E-2,2.901607659E-3
6.678059274E2,-2.092211880E-2,-7.727439702E-2,-3.084867075E-2
6.683101128E2,-1.023198478E-2,-4.199695215E-2,-4.001164436E-2
6.688142980E2,-1.664606482E-2,1.618791744E-2,-3.787361458E-2
6.693184831E2,-6.261364091E-3,-6.414080039E-3,-4.260781780E-2
6.698226680E2,-1.237001177E-2,3.863719851E-2,-3.039052337E-2
6.703268527E2,-1.527161920E-3,-1.435532235E-2,-3.817904741E-2
6.708310372E2,-7.024944760E-3,6.414080039E-3,-2.871064469E-2
6.713352215E2,-1.786779426E-2,-8.399390616E-3,-2.977965772E-2
6.718394057E2,-8.552107029E-3,9.468403645E-3,-2.580903657E-2
6.723435899E2,6.108647678E-3,4.795288667E-2,-3.588830680E-2
6.728477737E2,-6.566796452E-3,1.130099874E-2,-2.183841541E-2
6.733519574E2,4.276053514E-3,9.162971750E-3,-1.053741761E-2
6.738561409E2,-5.039634649E-3,9.315688163E-3,-5.650499370E-3
6.743603242E2,-8.857538924E-3,-8.857538924E-3,-9.773836471E-3
6.748645076E2,-8.399390616E-3,-1.084284950E-2,-2.336557768E-2
6.753686911E2,-2.443459118E-3,1.710421406E-2,-2.000582218E-2
6.758728748E2,-3.054323839E-3,-2.748891478E-3,-2.733619884E-2
6.763770586E2,-3.054323839E-3,4.123337101E-3,-2.474002354E-2
6.768812426E2,-1.710421406E-2,1.832594397E-3,-4.886918236E-3
6.773854266E2,4.276053514E-3,2.932151034E-2,1.267544460E-2
6.778896107E2,3.512472659E-2,1.533270627E-1,8.949168772E-2
6.783937948E2,1.740964688E-2,-1.954767294E-2,7.757982612E-2
6.788979790E2,1.389717404E-2,6.108647678E-3,1.704312712E-1
6.794021632E2,8.704823442E-3,-2.718348242E-2,2.170097083E-1
6.799063473E2,1.114828233E-2,2.825249545E-2,2.796233594E-1
6.804105313E2,-8.399390616E-3,-1.278234571E-1,2.632827163E-1
6.809147151E2,-1.786779426E-2,-1.481347065E-2,2.892444730E-1
6.814188987E2,-1.572976820E-2,-1.053741723E-1,3.330740333E-1
6.819230823E2,3.451386094E-2,-3.054323839E-3,3.281871080E-1
6.824272657E2,4.886918236E-3,-4.031707719E-2,3.132209182E-1
6.829314492E2,6.108647678E-3,-6.444623321E-2,2.916879356E-1
6.834356327E2,-3.970621154E-3,-1.033888608E-1,1.979201883E-1
6.839398162E2,3.940077871E-2,-1.075121984E-1,1.067486182E-1
6.844439998E2,2.214384824E-2,6.490438432E-2,7.559451461E-2
6.849481832E2,-2.779434808E-2,-1.240055487E-1,6.108647678E-3
6.854523666E2,-9.468403645E-3,-1.069013379E-3,1.679878100E-3
6.859565499E2,-1.740964688E-2,-2.046396956E-2,-1.084284950E-2
6.864607331E2,-2.336557768E-2,-2.474002354E-2,6.108647794E-4
6.869649162E2,2.183841541E-2,1.725693047E-2,-4.581485875E-3
6.874690993E2,-1.618791744E-2,4.627300799E-2,3.069595434E-2
6.879732824E2,1.313359290E-2,3.833176568E-2,6.276635826E-2
6.884774653E2,-1.618791744E-2,-7.024944760E-3,5.024362728E-2
6.889816482E2,5.345067009E-3,-3.145953640E-2,3.054323979E-2
6.894858312E2,-3.207040019E-3,6.108647794E-4,1.985310577E-2
6.899900141E2,4.123337101E-3,-4.459312931E-2,-8.857538924E-3
6.904941969E2,-1.298087649E-2,-6.337722391E-2,-2.718348242E-2
6.909983798E2,-1.771507785E-2,2.550360374E-2,-2.855792828E-2
6.915025618E2,-1.374445739E-3,-2.214384824E-2,-4.092793912E-2
6.920067445E2,-1.542433538E-2,-9.010255337E-3,-3.283398226E-2
6.925109273E2,-1.069013379E-3,4.718930274E-2,-2.764163166E-2
6.930151099E2,-4.734201822E-3,3.634645417E-2,-1.374445739E-3
6.935192926E2,6.261364091E-3,-8.246674202E-3,8.857538924E-3
6.940234753E2,-5.955931731E-3,-2.947422490E-2,-8.246674202E-3
6.945276579E2,-7.635809598E-4,1.084284950E-2,-1.466075517E-2
6.950318405E2,-1.970038936E-2,-8.414662629E-2,-4.199695215E-2
6.955360231E2,-1.740964688E-2,1.863137633E-2,-3.481929377E-2
6.960402056E2,1.511890348E-2,8.139773458E-2,-5.222893879E-2
6.965443881E2,1.252272818E-2,7.238747925E-2,-7.024944760E-3
6.970485706E2,1.786779426E-2,1.985310577E-3,7.635809598E-4
6.975527532E2,1.175914705E-2,3.375028074E-2,3.649916872E-2
6.980569358E2,8.246674202E-3,2.336557768E-2,4.276053607E-2
6.985611184E2,8.093958721E-3,-6.872228812E-3,2.214384824E-2
6.990653010E2,1.374445739E-3,-1.450803876E-2,2.641990222E-2
6.995694834E2,2.290742937E-3,-2.474002354E-2,6.108647678E-3
7.000736659E2,-1.618791744E-2,-1.237001177E-2,-1.298087649E-2
7.005778482E2,1.832594397E-3,3.772090003E-2,2.214384824E-2
7.010820303E2,-1.786779426E-2,-2.275471389E-2,1.588248461E-2
7.015862126E2,1.160643063E-2,1.023198478E-2,6.261364091E-3
7.020903950E2,-3.054323897E-4,-5.955931731E-3,-4.428769462E-3
7.025945773E2,-9.010255337E-3,4.123337101E-3,2.443459118E-3
7.030987596E2,-1.985310577E-3,3.145953640E-2,3.970621154E-3
7.036029417E2,-2.138026757E-3,5.345067009E-3,6.108647678E-3
7.041071236E2,3.054323839E-3,-1.114828233E-2,1.985310577E-3
7.046113055E2,8.093958721E-3,4.841103405E-2,7.635809598E-4
7.051154874E2,3.054323897E-4,-4.031707719E-2,-1.939495653E-2
7.056196693E2,-6.108647678E-3,1.267544460E-2,-2.443459118E-3
7.061238513E2,-1.679878123E-2,6.108647957E-2,3.848448023E-2
7.066280333E2,2.886336111E-2,3.054323897E-4,8.246674202E-3
7.071322152E2,-5.650499370E-3,-5.222893879E-2,-5.039634649E-3
7.076363969E2,5.650499370E-3,1.069013402E-2,5.039634649E-3
7.081405785E2,-0.000000000E0,1.420260593E-2,2.443459118E-3
7.086447606E2,6.108647794E-4,-5.039634649E-3,4.276053514E-3
7.091489433E2,-9.926552884E-3,-6.719512399E-3,3.817904973E-3
7.096531268E2,4.734201822E-3,-5.497782957E-3,-2.290742937E-3
7.101573107E2,1.878409274E-2,-1.450803876E-2,-1.267544460E-2
7.106614948E2,4.734201822E-3,1.725693047E-2,1.069013379E-3
7.111656792E2,-4.886918236E-3,-1.084284950E-2,-1.374445739E-3
7.116698640E2,1.084284950E-2,-3.436114267E-2,-1.069013379E-3
7.121740492E2,-7.773254067E-2,1.450803876E-2,-1.939495653E-2
7.126782346E2,-2.703076601E-2,4.627300799E-2,-4.612028971E-2
7.131824203E2,1.496618707E-2,9.621120058E-3,8.017600328E-2
7.136866060E2,-1.099556591E-2,-4.612028971E-2,4.123337101E-3
7.141907918E2,-2.443459071E-2,6.185005978E-2,-7.315105945E-2
7.146949776E2,-5.039634649E-3,3.802633286E-2,-5.818486959E-2
7.151991633E2,4.123337101E-3,1.221729559E-3,3.649916872E-2
7.157033489E2,4.886918236E-3,2.290742937E-3,-3.054323897E-4
7.162075338E2,-3.817904973E-3,-7.941242307E-3,-1.221729559E-3
7.167117181E2,-1.527161949E-4,-6.414080039E-3,-2.138026757E-3
7.172159017E2,-3.970621154E-3,1.359174121E-2,2.748891478E-3
7.177200847E2,-2.290742937E-3,-7.941242307E-3,-7.635809598E-4
7.182242673E2,4.276053514E-3,1.374445739E-3,9.162971983E-4
7.187284498E2,1.527161949E-4,-3.054323897E-4,1.374445739E-3
7.192326319E2,-1.221729559E-3,-1.221729559E-3,-0.000000000E0
7.197368135E2,1.221729559E-3,2.290742937E-3,1.374445739E-3
7.202409948E2,3.970621154E-3,1.618791744E-2,1.832594397E-3
7.207451759E2,7.788525894E-3,-1.374445762E-2,-8.552107029E-3
7.212493565E2,-7.635809598E-4,-3.512472380E-3,-6.566796452E-3
7.217535367E2,6.261364091E-3,1.007926930E-2,2.565632015E-2
7.222577167E2,1.985310577E-3,-1.298087649E-2,4.077522457E-2
7.227618967E2,6.108647794E-4,-1.878409274E-2,5.268708616E-2
7.232660765E2,4.428769462E-3,-1.740964688E-2,7.040216774E-2
7.237702562E2,2.596175298E-3,-1.740964688E-2,6.979130208E-2
7.242744362E2,2.901607659E-3,-2.611446939E-2,5.558869615E-2
7.247786160E2,-1.710421406E-2,6.872228812E-3,4.856374860E-2
7.252827957E2,2.229656465E-2,-4.703658819E-2,-2.596175298E-2
7.257869750E2,-2.138026757E-3,6.566796452E-3,-2.764163166E-2
7.262911542E2,-2.596175298E-3,3.512472380E-3,-5.421425030E-2
7.267953330E2,-2.748891478E-3,1.649334840E-2,-4.718930274E-2
7.272995114E2,-4.734201822E-3,6.719512399E-3,-5.757400393E-2
7.278036893E2,-1.359174121E-2,-3.680460155E-2,-6.704241037E-2
7.283078669E2,9.162971983E-4,2.412915789E-2,-5.650499091E-2
7.288120442E2,-1.634063199E-2,5.360338464E-2,-4.841103405E-2
7.293162214E2,1.145371422E-2,5.803215317E-3,4.734201822E-3
7.298203987E2,-7.635809598E-4,1.908952370E-2,1.389717404E-2
7.303245767E2,-1.023198478E-2,-2.031125315E-2,4.276053514E-3
7.308287552E2,-8.246674202E-3,2.382372692E-2,2.871064469E-2
7.313329342E2,5.803215317E-3,1.970038936E-2,1.466075517E-2
7.318371133E2,1.527161949E-4,7.788525894E-3,1.725693047E-2
7.323412928E2,-1.267544460E-2,-5.619955808E-2,-2.504545636E-2
7.328454728E2,-1.679878123E-2,-2.825249545E-2,-6.001746282E-2
7.333496534E2,-4.276053514E-3,4.841103405E-2,-7.269290835E-2
7.338538349E2,1.832594350E-2,1.359174121E-2,-4.917461425E-2
7.343580172E2,1.588248461E-2,1.409570426E-1,1.130099874E-2
7.348622002E2,-2.122755162E-2,-5.894844979E-2,1.695149764E-2
7.353663838E2,3.695731983E-2,4.031707719E-2,5.604684353E-2
7.358705679E2,-1.099556591E-2,3.558287397E-2,8.888082206E-2
7.363747525E2,-1.237001177E-2,-8.093958721E-3,1.224783882E-1
7.368789380E2,1.404988952E-2,-9.773836285E-2,6.001746282E-2
7.373831244E2,-2.214384824E-2,-2.095266134E-1,-2.626718581E-2
7.378873116E2,-3.802633286E-2,8.246674389E-2,-3.466657549E-2
7.383914995E2,-3.008509055E-2,-5.329795182E-2,-6.826414168E-2
7.388956878E2,-4.123337101E-3,9.254601598E-2,-7.238747925E-2
7.393998762E2,3.970621154E-3,1.133154184E-1,-2.458730713E-2
7.399040647E2,1.374445762E-2,-7.406735420E-2,-1.328630932E-2
7.404082535E2,1.618791744E-2,-4.581485875E-3,1.832594397E-3
7.409124427E2,-0.000000000E0,6.872228812E-3,-8.093958721E-3
7.414166321E2,-2.122755162E-2,-2.641990222E-2,-1.389717404E-2
7.419208216E2,9.315688163E-3,3.985892609E-2,3.054323897E-4
7.424250110E2,4.153880477E-2,-2.373209596E-1,-5.268708616E-2
7.429292002E2,-2.794706449E-2,-7.635809947E-3,1.918115467E-1
7.434333891E2,1.878409274E-2,1.093447953E-1,4.657844082E-2
7.439375779E2,-8.857538924E-3,2.672533318E-2,2.901607752E-2
7.444417666E2,-8.552107029E-3,-4.092793912E-2,9.468403645E-3
7.449459551E2,1.481347065E-2,6.856957078E-2,-5.803215317E-3
7.454501435E2,-1.252272818E-2,-5.299251899E-2,-5.039634649E-3
7.459543319E2,2.229656465E-2,5.803215317E-3,3.207040019E-3
7.464585201E2,-7.024944760E-3,1.069013379E-3,-1.511890348E-2
7.469627086E2,-1.679878123E-2,-1.191186346E-2,8.704823442E-3
7.474668975E2,2.199113183E-2,2.260199748E-2,7.024944760E-3
7.479710868E2,-9.010255337E-3,2.000582218E-2,-6.566796452E-3
7.484752765E2,-4.123337101E-3,-7.024945319E-2,-7.330377586E-3
7.489794667E2,1.130099874E-2,4.367683083E-2,-3.054323897E-4
7.494836572E2,-5.192350596E-3,-3.115410358E-2,-6.872228812E-3
7.499878479E2,1.572976820E-2,2.764163166E-2,9.621120058E-3
7.504920387E2,0.000000000E0,2.764163166E-2,5.192350596E-3
7.509962295E2,-2.626718581E-2,-1.527161920E-3,1.527161920E-3
7.515004203E2,1.343902480E-2,5.696314201E-2,6.994401664E-2
7.520046108E2,-9.468403645E-3,-1.130099874E-2,1.740964688E-2
7.525088009E2,4.871646687E-2,-5.054906011E-2,1.817322709E-2
7.530129906E2,6.780599058E-2,-7.941242307E-2,-6.368265301E-2
7.535171803E2,-2.443459071E-2,-2.244928107E-2,-3.741546720E-2
7.540213701E2,2.260199748E-2,-5.818486959E-2,-7.819069177E-2
7.545255590E2,2.061668597E-2,-8.949168772E-2,-1.896735132E-1
7.550297482E2,-4.963276163E-2,3.970621154E-2,-2.386954129E-1
7.555339372E2,-6.520981342E-2,-1.710421406E-2,-2.977965772E-1
7.560381260E2,-2.764163166E-2,7.483093441E-2,-3.182605505E-1
7.565423145E2,-4.596757516E-2,1.282816082E-1,-2.223547846E-1
7.570465029E2,-1.007926930E-2,9.162971377E-2,-1.736383140E-1
7.575506910E2,4.428769462E-3,6.261364091E-3,-9.101885557E-2
7.580548789E2,5.955931731E-3,3.802633286E-2,-2.382372692E-2
7.585590666E2,-1.511890348E-2,-3.604102135E-2,-3.970621154E-3
7.590632541E2,8.246674202E-3,3.329212964E-2,-6.108647794E-4
7.595674415E2,6.108647794E-4,-4.428769462E-3,8.857538924E-3
7.600716287E2,-2.367101051E-2,6.719512399E-3,3.970621154E-3
7.605758158E2,7.116574794E-2,3.863719851E-2,1.908952370E-2
7.610800025E2,-6.307178736E-2,1.522580534E-1,-5.803215317E-3
7.615841891E2,2.426660359E-1,-2.848156989E-1,-5.268708616E-2
7.620883757E2,7.910698652E-2,-3.405570984E-2,-2.901607752E-2
7.625925627E2,-1.725693047E-2,1.098029464E-1,-5.803215317E-3
7.630967503E2,1.481347065E-2,2.535088919E-2,9.926552884E-3
7.636009386E2,8.093958721E-3,-2.183841541E-2,2.748891478E-3
7.641051274E2,1.191186346E-2,-2.687804960E-2,1.893680729E-2
7.646093165E2,5.650499370E-3,2.443459071E-2,-8.857538924E-3
7.651135059E2,-6.108647678E-3,-2.825249545E-2,-1.114828233E-2
7.656176953E2,-5.192350596E-3,-8.185587823E-2,-4.948004708E-2
7.661218847E2,-9.162971983E-4,2.596175298E-3,-1.127045527E-1
7.666260739E2,5.803215317E-3,6.108647678E-3,-1.542433500E-1
7.671302630E2,-8.429934084E-2,-4.474584386E-2,-2.073885947E-1
7.676344521E2,-4.657844082E-2,-2.336557768E-2,-2.797760665E-1
7.681386411E2,-7.101303339E-2,-4.138609022E-2,-2.457203567E-1
7.686428303E2,-3.130681813E-2,5.146535859E-2,-2.971857190E-1
7.691470197E2,-1.359174121E-2,6.352993846E-2,-1.951712966E-1
7.696512092E2,-1.099556591E-2,7.483093441E-2,-9.666935354E-2
7.701553989E2,-3.970621154E-3,-2.458730713E-2,-1.404988952E-2
7.706595976E2,2.748891478E-3,1.282816008E-2,5.039634649E-3
7.711637783E2,-1.282816008E-2,1.145371422E-2,1.970038936E-2
7.716679679E2,1.130099874E-2,-1.145371422E-2,1.466075517E-2
7.721721576E2,0.000000000E0,7.941242307E-3,2.367101051E-2
7.726763472E2,5.650499370E-3,-1.374445762E-2,-7.788525894E-3
7.731805368E2,2.428187430E-2,3.268126398E-2,-2.443459118E-3
7.736847265E2,2.764163166E-2,-3.084867075E-2,-5.039634649E-3
7.741889159E2,2.947422490E-2,3.145953640E-2,-3.359756200E-3
7.746931052E2,-1.481347065E-2,-3.329212964E-2,1.725693047E-2
7.751972942E2,-2.962694131E-2,-1.985310577E-3,9.773836471E-3
7.757014832E2,-4.016435891E-2,1.420260593E-2,5.345067009E-3
7.762056720E2,-3.665188700E-2,1.435532235E-2,2.855792828E-2
7.767098605E2,5.711585656E-2,-7.788525894E-3,-1.939495653E-2
7.772140489E2,-1.679878123E-2,-6.872228812E-3,4.276053514E-3
7.777182372E2,1.771507785E-2,1.114828214E-1,-2.443459118E-3
7.782224253E2,3.054323897E-4,-5.879573524E-2,7.788525894E-3
7.787266134E2,2.718348242E-2,-1.908952370E-2,-1.130099874E-2
7.792308013E2,4.825831577E-2,4.993819445E-2,-5.955931731E-3
7.797349893E2,-1.985310577E-2,4.780016840E-2,1.007926930E-2
7.802391778E2,5.436696485E-2,-4.382954910E-2,-2.306014486E-2
7.807433665E2,1.985310577E-2,6.719512399E-3,-1.206457894E-2
7.812475555E2,-3.191768378E-2,-2.657261863E-2,6.414080039E-3
7.817517446E2,-1.756236330E-2,-9.315688163E-3,-7.788525894E-3
7.822559337E2,-2.031125315E-2,3.161225095E-2,1.404988952E-2
7.827601226E2,8.704823442E-3,-2.092211880E-2,-2.901607659E-3
7.832643117E2,2.306014486E-2,1.359174121E-2,-2.031125315E-2
7.837685008E2,-3.512472380E-3,-3.909534588E-2,-1.069013379E-3
7.842726901E2,-2.855792828E-2,-7.391463965E-2,-8.964440972E-2
7.847768798E2,-5.345066637E-2,-4.886918142E-2,-2.055560052E-1
7.852810700E2,-9.514218569E-2,-7.910698652E-2,-1.644753367E-1
7.857852606E2,-7.284562290E-2,-3.772090003E-2,-3.090975881E-1
7.862894516E2,-5.299251899E-2,5.849030241E-2,-3.008508980E-1
7.867936427E2,-2.367101051E-2,6.246092543E-2,-2.310595959E-1
7.872978340E2,-2.504545636E-2,2.748891525E-2,-1.386663020E-1
7.878020251E2,-4.948004708E-2,5.635227636E-2,-9.514218569E-2
7.883062163E2,-6.261364091E-3,1.481347065E-2,1.985310577E-3
7.888104073E2,-1.114828233E-2,-3.649916872E-2,7.330377586E-3
7.893145981E2,4.902189970E-2,4.764745384E-2,9.315688163E-3
7.898187888E2,-6.673697382E-2,-4.505127668E-2,2.871064469E-2
7.903229794E2,-5.207622424E-2,4.749473557E-2,4.123337101E-3
7.908271700E2,-1.420260593E-2,-6.612611562E-2,4.581485991E-4
7.913313605E2,1.069013379E-3,1.420260593E-2,-1.542433538E-2
7.918355509E2,-1.527161949E-4,7.941242307E-3,-1.023198478E-2
7.923397411E2,1.572976820E-2,7.483093534E-3,-1.374445762E-2
7.928439312E2,-2.703076601E-2,-1.802051067E-2,-4.581485875E-3
7.933481211E2,-9.621120058E-3,7.971785218E-2,7.788525894E-3
7.938523108E2,-5.879573524E-2,-1.078176349E-1,1.832594350E-2
7.943565003E2,-5.497782957E-3,2.932151034E-2,1.725693047E-2
7.948606896E2,-1.634063199E-2,8.704823256E-2,-2.489273995E-2
7.953648788E2,-2.443459071E-2,1.771507785E-2,1.832594350E-2
7.958690680E2,2.138026757E-3,1.542433538E-2,-1.328630932E-2
7.963732571E2,-2.672533318E-2,-1.007926930E-2,2.855792828E-2
7.968774460E2,-2.290742937E-3,-3.008509055E-2,6.276635826E-2
7.973816348E2,-4.581485875E-3,-7.605266571E-2,-9.773836471E-3
7.978858234E2,1.374445739E-3,1.985310577E-2,-7.788525894E-3
7.983900117E2,1.618791744E-2,-2.290742844E-2,-2.626718581E-2
7.988941998E2,-3.359756200E-3,3.512472659E-2,1.832594350E-2
7.993983875E2,2.718348242E-2,7.651081681E-2,5.039634649E-3
7.999025751E2,3.054323839E-3,-1.802051067E-2,8.093958721E-3
8.004067629E2,3.970621154E-2,-3.665188793E-3,-6.047561392E-2
8.009109512E2,-5.192350596E-3,-9.315688163E-3,-1.069013379E-3
8.014151398E2,-1.374445739E-3,-1.221729559E-3,-8.093958721E-3
8.019193285E2,-2.336557768E-2,-6.108647794E-4,8.093958721E-3
8.024235173E2,1.679878100E-3,5.131264031E-2,-2.596175298E-3
8.029277060E2,-2.565632015E-2,2.336557768E-2,9.468403645E-3
8.034318948E2,-1.313359290E-2,2.855792828E-2,2.290742844E-2
8.039360835E2,-7.177661173E-3,-3.970621154E-3,1.985310577E-3
8.044402721E2,-7.941242307E-3,9.162971983E-4,4.581485991E-4
8.049444604E2,-7.941242307E-3,1.985310577E-3,-5.192350596E-3
8.054486485E2,-3.054323897E-4,9.162971983E-4,1.527161920E-3
8.059528364E2,-1.527161949E-4,1.832594397E-3,3.359756200E-3
8.064570239E2,-7.635809598E-4,1.389717404E-2,2.290742937E-3
8.069612111E2,-6.872228812E-3,-5.192350596E-3,4.581485991E-4
8.074653980E2,-2.443459118E-3,-6.108647794E-4,-3.054323897E-4
8.079695847E2,-1.069013379E-3,3.665188793E-3,3.054323897E-4
8.084737710E2,8.399390616E-3,-2.168569900E-2,-8.704823442E-3
8.089779571E2,-3.207040019E-3,9.621120058E-3,-1.527161949E-4
8.094821428E2,-7.635809598E-4,-1.527161920E-3,-0.000000000E0
8.099863284E2,-4.123337101E-3,1.084284950E-2,1.191186346E-2
8.104905138E2,-4.734201822E-3,-3.512472380E-3,1.908952370E-2
8.109946990E2,-2.901607659E-3,1.191186346E-2,4.245510325E-2
8.114988843E2,4.734201822E-3,4.505127668E-2,5.268708616E-2
8.120030697E2,-2.046396956E-2,2.809977904E-2,1.302669197E-1
8.125072554E2,-1.160643063E-2,-3.649916872E-2,1.510363221E-1
8.130114412E2,-2.641990222E-2,-1.191186346E-2,1.835648715E-1
8.135156269E2,-2.321286127E-2,2.031125315E-2,1.966984570E-1
8.140198125E2,-2.580903657E-2,-7.696896046E-2,1.896735132E-1
8.145239979E2,-1.053741761E-2,-3.237583488E-2,1.577558219E-1
8.150281832E2,-1.160643063E-2,-7.635809947E-3,1.125518382E-1
8.155323684E2,-9.162971983E-4,-1.832594397E-3,1.017089859E-1
8.160365534E2,-1.175914705E-2,-7.208204269E-2,5.971203372E-2
8.165407383E2,-3.817904973E-3,9.468403645E-3,4.810560122E-2
8.170449232E2,-5.497782957E-3,-2.580903657E-2,3.924806044E-2
8.175491082E2,-9.926552884E-3,9.010255337E-3,4.077522457E-2
8.180532935E2,1.679878100E-3,-4.291325063E-2,2.596175298E-3
8.185574790E2,4.123337101E-3,1.130099874E-2,-1.343902480E-2
8.190616644E2,-8.246674202E-3,-3.054323897E-4,-3.512472380E-3
8.195658499E2,-1.374445739E-3,-2.504545636E-2,-1.802051067E-2
8.200700354E2,-9.773836471E-3,-6.108647794E-4,-1.038470119E-2
8.205742209E2,-2.351829410E-2,-9.621120058E-3,-2.015853859E-2
8.210784067E2,-2.061668597E-2,1.328630932E-2,-1.679878100E-3
8.215825931E2,2.076940238E-2,-2.901607659E-3,2.107483521E-2
8.220867804E2,1.420260593E-2,7.254019380E-2,3.054323839E-3
8.225909689E2,1.374445762E-2,-7.131846249E-2,1.634063199E-2
8.230951584E2,-7.483093534E-3,2.489273995E-2,-8.093958721E-3
8.235993490E2,1.038470119E-2,9.162971750E-3,3.665188793E-3
8.241035402E2,-4.886918236E-3,-2.916879393E-2,1.069013402E-2
8.246077317E2,-1.603520103E-2,4.428769648E-2,7.635809947E-3
8.251119231E2,3.787361458E-2,-5.070177838E-2,-1.221729559E-3
8.256161142E2,1.241582632E-1,-9.056070447E-2,2.519817278E-2
8.261203051E2,5.818486959E-2,-6.872228533E-2,6.994401664E-2
8.266244959E2,-5.742128938E-2,6.918043643E-2,-7.406735420E-2
8.271286866E2,-3.863719851E-2,1.924224012E-2,-2.794706449E-2
8.276328770E2,1.007926930E-2,-3.268126398E-2,-2.367101051E-2
8.281370673E2,5.497782957E-3,4.046979174E-2,-1.908952370E-2
8.286412575E2,1.160643063E-2,-1.985310577E-3,-2.886336111E-2
8.291454477E2,-1.084284950E-2,3.466657549E-2,2.443459118E-3
8.296496377E2,1.221729559E-3,-1.191186346E-2,-1.145371422E-2
8.301538278E2,-2.748891478E-3,2.443459118E-3,-3.207040019E-3
8.306580176E2,3.054323839E-3,-5.650499370E-3,-9.468403645E-3
8.311622071E2,-8.246674202E-3,2.046396956E-2,1.237001177E-2
8.316663962E2,-3.054323839E-3,7.941242307E-3,-4.734201822E-3
8.321705850E2,5.039634649E-3,1.496618707E-2,9.162971983E-4
8.326747734E2,-6.414080039E-3,-1.175914705E-2,-2.138026757E-3
8.331789615E2,-1.038470119E-2,4.963276163E-2,1.863137633E-2
8.336831490E2,-1.023198478E-2,5.971203372E-2,4.734202102E-2
8.341873361E2,2.229656465E-2,-1.305723488E-1,-9.468404204E-2
8.346915227E2,2.351829410E-2,7.055488229E-2,1.939495653E-2
8.351957091E2,-8.704823442E-3,-3.711003438E-2,1.374445739E-3
8.356998952E2,3.054323839E-3,1.160643063E-2,-9.010255337E-3
8.362040812E2,6.566796452E-3,4.886918236E-3,-4.276053514E-3
8.367082671E2,-7.635809598E-4,-3.924806044E-2,-1.588248461E-2
8.372124530E2,-1.557705179E-2,4.123337194E-2,3.817904741E-2
8.377166387E2,2.535088919E-2,3.084867075E-2,7.712167501E-2
8.382208243E2,3.054323897E-4,-6.108647678E-3,1.528689116E-1
8.387250096E2,-1.023198478E-2,-4.734201822E-3,2.063195854E-1
8.392291947E2,-2.412915789E-2,-3.894263133E-2,2.435823381E-1
8.397333796E2,-4.230238497E-2,5.986474827E-2,2.993237376E-1
8.402375642E2,-5.039634556E-2,-8.552107029E-3,3.223838806E-1
8.407417490E2,-6.246092543E-2,-3.481929377E-2,3.681987524E-1
8.412459339E2,-7.330377400E-2,-1.832594350E-2,3.726275265E-1
8.417501191E2,-6.688969582E-2,-2.397644334E-2,3.807214797E-1
8.422543044E2,-4.444041103E-2,-7.330377586E-3,3.222311735E-1
8.427584896E2,-2.825249545E-2,-9.529490769E-2,2.267835438E-1
8.432626750E2,1.985310577E-3,-7.605266571E-2,9.239330143E-2
8.437668602E2,5.681042373E-2,-4.134027362E-1,-2.666424811E-1
8.442710454E2,-1.389717404E-2,1.537852138E-1,1.922696829E-1
8.447752304E2,1.069013379E-3,5.818486959E-2,8.445205539E-2
8.452794153E2,6.261364091E-3,6.414080039E-3,6.108647678E-3
8.457836000E2,-7.635809947E-3,1.572976820E-2,-6.566796452E-3
8.462877850E2,1.038470119E-2,-1.542433538E-2,-7.177661173E-3
8.467919703E2,-3.359756200E-3,-2.138026757E-3,3.512472380E-3
8.472961561E2,-3.054323897E-4,4.581485991E-4,2.443459118E-3
8.478003423E2,-6.566796452E-3,-1.069013379E-3,7.483093534E-3
8.483045288E2,-2.596175298E-3,-1.572976820E-2,3.207040019E-3
8.488087154E2,-4.428769462E-3,1.542433538E-2,1.145371422E-2
8.493129018E2,6.872228812E-3,4.856374860E-2,1.389717404E-2
8.498170881E2,-5.192350596E-3,-1.466075517E-2,1.328630932E-2
8.503212742E2,-3.970621154E-3,1.282816008E-2,2.443459071E-2
8.508254600E2,-4.581485875E-3,-1.359174121E-2,2.641990222E-2
8.513296455E2,5.345067009E-3,1.435532235E-2,2.214384824E-2
8.518338307E2,2.443459118E-3,-4.718930274E-2,4.123337101E-3
8.523380157E2,-3.970621154E-3,-1.496618707E-2,-2.153298259E-2
8.528422005E2,1.160643063E-2,-1.420260593E-2,-1.939495653E-2
8.533463850E2,7.024944760E-3,1.282816008E-2,-2.672533318E-2
8.538505692E2,-1.588248461E-2,3.054323979E-2,-1.511890348E-2
8.543547531E2,3.252854943E-2,8.399390616E-3,-1.557705179E-2
8.548589369E2,-1.588248461E-2,2.031125315E-2,-1.893680729E-2
8.553631206E2,-5.910116807E-2,6.414080039E-3,3.512472380E-3
8.558673041E2,-2.244928107E-2,-2.962694131E-2,6.414080039E-3
8.563714875E2,2.290742844E-2,2.718348242E-2,1.221729559E-3
8.568756707E2,-4.886918236E-3,-2.336557768E-2,-2.993237413E-2
8.573798536E2,1.038470119E-2,-3.145953640E-2,-5.009091273E-2
8.578840366E2,1.038470119E-2,3.634645417E-2,-3.084867075E-2
8.583882193E2,6.108647794E-4,1.618791744E-2,-3.191768378E-2
8.588924022E2,-1.695149764E-2,5.421425030E-2,2.076940238E-2
8.593965852E2,6.872228812E-3,7.070759684E-2,8.491020650E-2
8.599007681E2,-1.908952370E-2,-2.855792828E-2,2.382372692E-2
8.604049510E2,6.108647678E-3,1.282816008E-2,3.115410358E-2
8.609091339E2,-2.504545636E-2,2.687804960E-2,3.817904741E-2
8.614133166E2,3.817904973E-3,-4.337139800E-2,-8.552107029E-3
8.619174992E2,3.512472380E-3,-2.107483521E-2,2.596175298E-3
8.624216812E2,-3.054323897E-4,2.657261863E-2,1.710421406E-2
8.629258625E2,-7.024944760E-3,-2.306014486E-2,3.512472380E-3
8.634300428E2,-6.872228812E-3,2.687804960E-2,2.641990222E-2
8.639342221E2,5.650499370E-3,1.572976820E-2,-1.527161920E-3
8.644384006E2,-1.023198478E-2,-3.634645417E-2,-1.649334840E-2
8.649425781E2,1.053741761E-2,-1.527161949E-4,-6.414080039E-3
8.654467548E2,-1.847865991E-2,2.443459118E-3,2.977965772E-2
8.659509307E2,1.359174121E-2,-3.359756246E-2,-6.108647678E-3
8.664551058E2,7.941242307E-3,-3.054323897E-4,-1.038470119E-2
8.669592805E2,-1.832594397E-3,-4.123337101E-3,1.527161920E-3
8.674634555E2,1.069013402E-2,-1.832594350E-2,-1.298087649E-2
8.679676309E2,4.428769462E-3,1.221729559E-3,-3.054323897E-4
8.684718070E2,-2.443459118E-3,-4.581485991E-4,3.359756200E-3
8.689759836E2,-2.443459118E-3,-4.581485991E-4,3.665188793E-3
8.694801607E2,-3.359756200E-3,-2.443459118E-3,4.581485991E-4
8.699843383E2,-9.162971983E-4,-4.581485991E-4,2.443459118E-3
8.704885163E2,-2.748891478E-3,1.527161920E-3,9.162971983E-4
8.709926946E2,2.321286127E-2,-3.665188793E-3,-2.015853859E-2
8.714968729E2,-5.497782957E-3,8.857538924E-3,8.857538924E-3
8.720010516E2,1.679878100E-3,-1.023198478E-2,-2.596175298E-3
8.725052303E2,-0.000000000E0,3.817904973E-3,-9.162971983E-4
8.730094089E2,1.374445739E-3,-7.635809598E-4,4.581485991E-4
8.735135876E2,7.635809598E-4,-1.374445739E-3,9.162971983E-4
8.740177664E2,3.054323897E-4,-0.000000000E0,4.581485991E-4
8.745219453E2,4.581485991E-4,1.527161949E-4,7.635809598E-4
8.750261244E2,-3.359756200E-3,1.206457894E-2,1.221729559E-3
8.755303034E2,1.832594397E-3,-6.414080039E-3,-1.527161920E-3
8.760344825E2,3.970621154E-3,-3.054323839E-3,-4.428769462E-3
8.765386616E2,1.313359290E-2,6.108647678E-3,-1.084284950E-2
8.770428408E2,-4.123337101E-3,7.941242307E-3,2.443459118E-3
8.775470199E2,3.207040019E-3,-4.734201822E-3,7.483093534E-3
8.780511991E2,-1.221729559E-3,7.330377586E-3,3.207040019E-3
8.785553783E2,3.665188793E-3,-4.886918236E-3,3.665188793E-3
8.790595576E2,2.138026757E-3,-3.207040019E-3,-1.832594397E-3
8.795637370E2,5.803215317E-3,-5.955931731E-3,-3.970621154E-3
8.800679164E2,-5.650499370E-3,1.802051067E-2,5.345067009E-3
8.805720958E2,9.926552884E-3,-2.244928107E-2,-1.954767294E-2
8.810762749E2,-1.450803876E-2,4.581485689E-2,3.207040019E-3
8.815804541E2,1.466075517E-2,-2.321286127E-2,7.941242307E-3
8.820846335E2,4.276053514E-3,-1.374445739E-3,-2.748891478E-3
8.825888132E2,9.468403645E-3,-2.046396956E-2,-9.162971750E-3
8.830929932E2,-8.552107029E-3,1.038470119E-2,-3.359756200E-3
8.835971736E2,-1.221729536E-2,-4.428769462E-3,-3.512472380E-3
8.841013546E2,-2.015853859E-2,-1.985310577E-2,3.512472380E-3
8.846055360E2,-1.435532235E-2,4.703658819E-2,1.481347065E-2
8.851097179E2,2.977965772E-2,2.809977904E-2,3.817904973E-3
8.856139001E2,4.581485875E-3,-2.871064469E-2,5.803215317E-3
8.861180825E2,-1.053741761E-2,8.552107029E-3,-2.138026757E-3
8.866222650E2,1.175914705E-2,2.031125315E-2,5.955931731E-3
8.871264476E2,-6.108647678E-3,-1.985310577E-2,-1.420260593E-2
8.876306304E2,-4.276053514E-3,5.803215317E-3,-6.566796452E-3
8.881348134E2,2.138026757E-3,1.374445739E-3,2.596175298E-3
8.886389964E2,1.221729559E-3,-1.527161920E-3,7.177661173E-3
8.891431796E2,-5.192350596E-3,1.832594397E-3,6.719512399E-3
8.896473628E2,8.093958721E-3,1.221729536E-2,0.000000000E0
8.901515463E2,-1.053741761E-2,1.267544460E-2,1.237001177E-2
8.906557301E2,3.970621154E-3,2.061668597E-2,2.015853859E-2
8.911599140E2,-1.023198478E-2,-1.374445739E-3,2.489273995E-2
8.916640981E2,-8.399390616E-3,-5.955931731E-3,4.337139800E-2
8.921682823E2,1.069013379E-3,7.116574794E-2,4.031707719E-2
8.926724668E2,-1.313359290E-2,-8.093958348E-2,3.665188793E-3
8.931766513E2,1.695149764E-2,-3.023780696E-2,2.138026757E-3
8.936808358E2,-1.069013379E-3,-2.122755162E-2,-2.580903657E-2
8.941850203E2,1.511890348E-2,-3.558287397E-2,-6.383536756E-2
8.946892047E2,3.375028074E-2,1.178968996E-1,-1.954767294E-2
8.951933890E2,1.374445739E-3,-6.872228812E-3,-2.855792828E-2
8.956975733E2,4.428769462E-3,-4.917461425E-2,-1.725693047E-2
8.962017576E2,-2.031125315E-2,5.833758786E-2,9.926552884E-3
8.967059420E2,-1.985310577E-3,-6.108647794E-4,1.099556591E-2
8.972101266E2,3.268126398E-2,8.048143238E-2,-8.781181276E-2
8.977143115E2,-1.374445739E-3,-1.007926911E-1,-2.046396956E-2
8.982184965E2,-3.848448023E-2,3.313941509E-2,-2.916879393E-2
8.987226818E2,-9.621120058E-3,2.138026804E-2,-1.985310577E-3
8.992268676E2,-1.221729536E-2,-8.032871783E-2,1.542433538E-2
8.997310536E2,-1.863137633E-2,7.070759684E-2,-6.719512399E-3
9.002352396E2,1.038470119E-2,1.664606482E-2,-2.092211880E-2
9.007394256E2,-9.162971983E-4,7.024944760E-3,-1.084284950E-2
9.012436118E2,1.282816008E-2,5.650499370E-3,-1.725693047E-2
9.017477981E2,-6.566796452E-3,-7.360920310E-2,-4.184423760E-2
9.022519877E2,4.398226365E-2,2.122755162E-2,-4.993819445E-2
9.027561708E2,-2.199113183E-2,8.384118974E-2,7.635809947E-3
9.032603569E2,2.367101051E-2,-8.093958721E-3,2.443459118E-3
9.037645427E2,-1.435532235E-2,5.375609919E-2,5.268708616E-2
9.042687283E2,8.093958721E-3,8.399390616E-3,2.962694131E-2
9.047729133E2,-1.664606482E-2,-4.948004708E-2,4.581485875E-3
9.052770975E2,2.748891478E-3,1.420260593E-2,1.466075517E-2
9.057812807E2,-5.345067009E-3,-1.404988952E-2,-6.566796452E-3
9.062854629E2,3.512472380E-3,1.252272818E-2,4.123337101E-3
9.067896443E2,4.428769462E-3,1.420260593E-2,1.985310577E-3
9.072938248E2,-2.443459118E-3,-3.588830680E-2,-1.221729559E-3
9.077980048E2,3.970621154E-3,1.527161949E-4,9.010255337E-3
9.083021846E2,6.566796452E-3,-1.343902480E-2,-1.527161920E-3
9.088063647E2,-1.832594350E-2,-4.978547990E-2,-1.252272818E-2
9.093105451E2,1.572976820E-2,3.069595434E-2,8.552107029E-3
9.098147254E2,2.901607659E-3,4.184423760E-2,2.901607659E-3
9.103189054E2,-9.162971983E-4,-1.012508348E-1,-3.252854943E-2
9.108230850E2,-4.963276163E-2,-1.847865991E-2,-6.108647678E-3
9.113272642E2,6.261363626E-2,-1.320995092E-1,-1.983783394E-1
9.118314430E2,-1.099556591E-2,-8.659008145E-2,1.611155868E-1
9.123356213E2,2.718348242E-2,3.268126398E-2,1.623373181E-1
9.128397990E2,-7.635809947E-3,-3.604102135E-2,1.618791744E-2
9.133439762E2,2.504545636E-2,3.176496923E-2,8.857538924E-3
9.138481532E2,-2.687804960E-2,2.993237413E-2,1.160643063E-2
9.143523303E2,2.306014486E-2,9.621120058E-3,-3.054323897E-4
9.148565076E2,-1.771507785E-2,1.221729536E-2,7.788525894E-3
9.153606851E2,1.466075517E-2,2.519817278E-2,1.145371422E-2
9.158648627E2,-2.290742844E-2,-3.100138716E-2,1.924224012E-2
9.163690402E2,1.298087649E-2,1.572976820E-2,3.619373962E-2
9.168732177E2,3.817904973E-3,3.054323979E-2,3.940077871E-2
9.173773953E2,-1.206457894E-2,-6.872228812E-3,3.451386094E-2
9.178815729E2,1.374445762E-2,-7.483093441E-2,-3.817904973E-3
9.183857508E2,-1.023198478E-2,-6.352993846E-2,-2.962694131E-2
9.188899290E2,4.276053514E-3,3.268126398E-2,-2.611446939E-2
9.193941078E2,-2.748891478E-3,-2.657261863E-2,-3.161225095E-2
9.198982873E2,1.527161949E-4,1.023198478E-2,-2.641990222E-2
9.204024671E2,-7.024944760E-3,4.550942779E-2,-6.719512399E-3
9.209066473E2,-3.054323897E-4,4.810560122E-2,-2.290742937E-3
9.214108281E2,1.145371422E-2,-2.703076601E-2,-8.399390616E-3
9.219150094E2,-1.359174121E-2,8.093958721E-3,1.221729559E-3
9.224191909E2,1.496618707E-2,3.512472380E-3,4.123337101E-3
9.229233724E2,-8.857538924E-3,-4.581485991E-4,5.955931731E-3
9.234275538E2,-1.374445739E-3,9.162971983E-4,1.053741761E-2
9.239317350E2,-1.145371422E-2,1.786779426E-2,5.803215317E-3
9.244359161E2,4.413498193E-2,1.588248461E-2,4.581485875E-3
9.249400973E2,-2.687804960E-2,-4.581485875E-3,6.414080039E-3
9.254442789E2,3.008509055E-2,7.635809598E-4,1.069013379E-3
9.259484610E2,-2.825249545E-2,1.221729536E-2,-8.246674202E-3
9.264526438E2,-2.336557768E-2,-7.727439702E-2,-1.466075517E-2
9.269568269E2,-1.343902480E-2,1.143844277E-1,-1.069013379E-3
9.274610103E2,1.313359290E-2,-4.092793912E-2,-9.162971983E-4
9.279651943E2,9.010255337E-3,-8.246674389E-2,-4.734202102E-2
9.284693791E2,1.832594397E-3,-4.291325063E-2,-4.031707719E-2
9.289735649E2,7.788525894E-3,1.924224012E-2,-3.573558852E-2
9.294777512E2,4.581485875E-3,-6.108647794E-4,-3.237583488E-2
9.299819378E2,-2.596175298E-3,3.268126398E-2,-3.741546720E-2
9.304861244E2,0.000000000E0,1.817322709E-2,-1.878409274E-2
9.309903109E2,-2.000582218E-2,2.626718581E-2,1.435532235E-2
9.314944976E2,1.450803876E-2,4.169152305E-2,1.618791744E-2
9.319986844E2,-1.832594397E-3,9.468403645E-3,3.344484791E-2
9.325028714E2,7.483093534E-3,1.496618707E-2,3.680460155E-2
9.330070587E2,-9.621120058E-3,-1.588248461E-2,3.726275265E-2
9.335112456E2,4.428769462E-3,-1.206457894E-2,3.313941509E-2
9.340154322E2,2.596175298E-3,6.872228812E-3,4.108065739E-2
9.345196182E2,-1.130099874E-2,-3.985892609E-2,9.315688163E-3
9.350238037E2,6.108647794E-4,7.024944760E-3,9.010255337E-3
9.355279890E2,-1.527161949E-4,-6.108647678E-3,7.635809947E-3
9.360321740E2,5.650499370E-3,1.221729559E-3,-3.665188793E-3
9.365363587E2,-2.000582218E-2,2.290742937E-3,-9.162971983E-4
9.370405433E2,-2.290742937E-3,1.970038936E-2,2.138026804E-2
9.375447279E2,-5.497782957E-3,-1.466075517E-2,-3.817904973E-3
9.380489124E2,-1.374445739E-3,5.650499370E-3,-8.246674202E-3
9.385530965E2,5.497782957E-3,2.015853859E-2,-4.886918236E-3
9.390572803E2,-1.618791744E-2,-9.926552884E-3,2.183841541E-2
9.395614639E2,-2.871064469E-2,3.970621154E-2,4.138609022E-2
9.400656471E2,-3.451386094E-2,-1.710421406E-2,5.070177838E-2
9.405698300E2,1.618791744E-2,7.101303339E-2,1.817322709E-2
9.410740124E2,2.535088919E-2,-1.053741761E-2,-1.221729536E-2
9.415781943E2,-5.497782957E-3,-1.010981202E-1,-2.764163166E-2
9.420823758E2,2.138026757E-3,2.290742937E-3,-7.483093534E-3
9.425865569E2,4.886918236E-3,9.773836471E-3,4.734201822E-3
9.430907379E2,-6.108647794E-4,-1.634063199E-2,-3.665188793E-3
9.435949187E2,1.649334840E-2,-6.108647678E-3,-2.061668597E-2
9.440990994E2,1.038470119E-2,1.206457894E-2,-1.450803876E-2
9.446032800E2,4.550942779E-2,-2.947422490E-2,-3.497200832E-2
9.451074607E2,2.596175298E-3,-1.069013379E-3,5.497782957E-3
9.456116415E2,3.054323897E-4,-4.581485991E-4,8.399390616E-3
9.461158219E2,-4.276053514E-3,6.719512399E-3,1.053741761E-2
9.466200021E2,1.038470119E-2,-7.635809598E-4,2.138026757E-3
9.471241821E2,-3.054323839E-3,-8.399390616E-3,5.345067009E-3
9.476283619E2,2.138026757E-3,-1.145371422E-2,1.175914705E-2
9.481325414E2,5.497782957E-3,2.535088919E-2,-3.970621154E-3
9.486367206E2,-6.566796452E-3,-1.878409274E-2,-5.192350596E-3
9.491408997E2,4.123337101E-3,3.512472380E-3,-2.596175298E-3
9.496450784E2,2.443459118E-3,9.162971750E-3,1.069013379E-3
9.501492568E2,1.740964688E-2,2.290742937E-3,1.374445739E-3
9.506534348E2,-1.924224012E-2,-1.908952370E-2,6.108647678E-3
9.511576125E2,2.596175298E-3,-1.649334840E-2,-3.054323897E-4
9.516617897E2,-3.420842811E-2,3.268126398E-2,1.404988952E-2
9.521659666E2,-6.566796452E-3,-1.389717404E-2,2.138026757E-3
9.526701433E2,-2.229656465E-2,2.382372692E-2,2.031125315E-2
9.531743197E2,3.023780696E-2,-3.451386094E-2,-1.863137633E-2
9.536784958E2,-2.718348242E-2,5.894844979E-2,1.939495653E-2
9.541826717E2,2.458730713E-2,-5.467239767E-2,-7.788525894E-3
9.546868471E2,1.679878100E-3,5.803215504E-2,1.023198478E-2
9.551910220E2,-7.024944760E-3,-1.099556591E-2,-9.162971983E-4
9.556951960E2,-7.635809598E-4,-2.107483521E-2,-2.061668597E-2
9.561993693E2,-3.665188793E-3,-3.268126398E-2,-3.924806044E-2
9.567035416E2,-1.053741761E-2,-3.558287397E-2,-6.963858753E-2
9.572077132E2,-8.093958721E-3,-7.559451461E-2,-1.130099818E-1
9.577118839E2,-1.420260593E-2,-9.132428467E-2,-1.247691289E-1
9.582160539E2,-8.552107029E-3,6.566796452E-3,-2.040288299E-1
9.587202231E2,-1.572976820E-2,1.404988952E-2,-2.134972364E-1
9.592243916E2,-4.978547990E-2,8.399390616E-3,-1.979201883E-1
9.597285595E2,-2.489273995E-2,2.397644334E-2,-2.003636509E-1
9.602327267E2,-2.535088919E-2,4.505127668E-2,-1.715002805E-1
9.607368933E2,1.679878123E-2,6.444623321E-2,-1.453858167E-1
9.612410594E2,9.162971983E-4,4.703658819E-2,-9.422589093E-2
9.617452249E2,-2.596175298E-3,7.941242307E-3,-4.169152305E-2
9.622493901E2,-4.886918236E-3,1.180496216E-1,-5.650499370E-3
9.627535559E2,6.872228812E-3,7.788525894E-3,4.886918236E-3
9.632577228E2,-3.084867075E-2,-2.886336111E-2,9.468403645E-3
9.637618907E2,2.855792828E-2,-1.908952370E-2,-3.054323897E-4
9.642660594E2,-3.558287397E-2,6.475166976E-2,1.649334840E-2
9.647702286E2,7.635809947E-3,-3.252854943E-2,-1.069013402E-2
9.652743982E2,7.635809598E-4,1.298087649E-2,1.771507785E-2
9.657785682E2,3.359756200E-3,8.552107029E-3,-4.581485991E-4
9.662827384E2,-5.192350596E-3,1.221729559E-3,3.665188793E-3
9.667869087E2,-6.108647678E-3,-1.175914705E-2,-4.886918236E-3
9.672910791E2,-0.000000000E0,1.206457894E-2,2.443459118E-3
9.677952494E2,-3.054323897E-4,5.039634649E-3,-3.207040019E-3
9.682994197E2,-3.359756200E-3,-9.926552884E-3,-7.024944760E-3
9.688035900E2,1.527161920E-3,5.100720748E-2,8.552107029E-3
9.693077601E2,-6.108647794E-4,3.772090003E-2,2.993237413E-2
9.698119303E2,1.145371422E-2,5.955931544E-2,7.574722916E-2
9.703161003E2,-7.024944760E-3,2.840521187E-2,8.872810751E-2
9.708202702E2,-1.572976820E-2,1.466075517E-2,1.505781710E-1
9.713244398E2,-1.802051067E-2,-9.468403645E-3,1.487455666E-1
9.718286093E2,-2.916879393E-2,3.161225095E-2,1.631008983E-1
9.723327786E2,-4.123337194E-2,8.246674202E-3,1.832594275E-1
9.728369476E2,-5.024362728E-2,-1.038470119E-2,2.075413018E-1
9.733411165E2,-4.337139800E-2,8.246674202E-3,1.937968582E-1
9.738452853E2,3.970621154E-3,-1.847865991E-2,1.004872546E-1
9.743494539E2,-4.581485991E-4,-3.530798554E-1,-4.978547990E-2
9.748536224E2,-7.024944760E-3,-1.661552191E-1,1.035415828E-1
9.753577906E2,1.099556591E-2,1.481347084E-1,8.613193035E-2
9.758619586E2,1.634063199E-2,1.359174121E-2,1.649334840E-2
9.763661265E2,-1.343902480E-2,-2.443459118E-3,1.070540547E-1
9.768702942E2,-1.542433538E-2,1.160643063E-2,1.847865991E-2
9.773744619E2,7.009673119E-2,-6.719512399E-3,2.122755162E-2
9.778786294E2,-4.505127668E-2,2.412915789E-2,-1.094975099E-1
9.783827968E2,1.588248461E-2,-3.375028074E-2,9.621120058E-3
9.788869640E2,5.803215317E-3,5.497782957E-3,1.985310577E-3
9.793911311E2,1.481347065E-2,3.298669681E-2,1.985310577E-3
9.798952980E2,3.802633286E-2,2.443459118E-3,-9.162971750E-3
9.803994647E2,-2.138026804E-2,-5.054906011E-2,1.069013402E-2
9.809036314E2,2.214384824E-2,-2.901607752E-2,1.695149764E-2
9.814077980E2,-1.053741761E-2,3.207040206E-2,8.399390616E-3
9.819119645E2,-5.772672221E-2,-2.443459071E-2,-6.261364091E-3
9.824161309E2,-7.024944760E-3,-5.253437161E-2,-3.817904973E-3
9.829202972E2,4.581485875E-3,6.872228533E-2,1.069013402E-2
9.834244634E2,4.138609022E-2,-3.054323839E-3,6.108647794E-4
9.839286295E2,0.000000000E0,7.070759684E-2,1.450803876E-2
9.844327955E2,9.621120058E-3,-4.749473557E-2,-3.817904973E-3
9.849369614E2,-1.557705179E-2,-1.603520103E-2,1.114828233E-2
9.854411274E2,6.872228812E-3,-9.468403645E-3,7.483093534E-3
9.859452932E2,-8.552107029E-3,6.872228812E-3,3.970621154E-3
9.864494592E2,-1.527161989E-2,-4.581485991E-4,-1.771507785E-2
9.869536251E2,-1.527161989E-2,-1.007926930E-2,-4.276053514E-3
9.874577911E2,5.345067009E-3,3.054323897E-4,-1.114828233E-2
9.879619571E2,7.941242307E-3,-9.040798992E-2,-7.269290835E-2
9.884661231E2,-1.832594397E-3,1.985310577E-3,-8.414662629E-2
9.889702891E2,-7.788525894E-3,-6.520981342E-2,-1.383608729E-1
9.894744551E2,-1.466075517E-2,-7.192932814E-2,-1.650862098E-1
9.899786211E2,-1.863137633E-2,-5.818486959E-2,-2.119700760E-1
9.904827871E2,-6.673697382E-2,-7.177661173E-3,-2.335030586E-1
9.909869531E2,-4.795288667E-2,-5.467239767E-2,-2.206749022E-1
9.914911197E2,-3.527744114E-2,1.650862098E-1,-2.466366589E-1
9.919952859E2,-3.680460155E-2,1.227838174E-1,-1.485928595E-1
9.924994521E2,-4.581485875E-3,-8.552107029E-3,-6.352993846E-2
9.930036186E2,-4.199695215E-2,8.277218044E-2,1.740964688E-2
9.935077850E2,3.359756200E-3,-3.833176568E-2,8.552107029E-3
9.940119515E2,1.695149764E-2,5.818486959E-2,8.552107029E-3
9.945161179E2,2.718348242E-2,-5.818486959E-2,-2.168569900E-2
9.950202843E2,3.543015569E-2,3.115410358E-2,-7.177661173E-3
9.955244507E2,2.290742937E-3,9.789107740E-2,5.803215504E-2
9.960286170E2,-9.010255337E-3,-8.139773458E-2,-2.489273995E-2
9.965327833E2,-7.941242307E-3,2.871064469E-2,5.497782957E-3
9.970369494E2,1.038470119E-2,3.756818548E-2,1.191186346E-2
9.975411156E2,3.054323897E-4,-3.848448023E-2,-9.162971983E-4
9.980452816E2,-1.679878123E-2,3.543015569E-2,6.108647678E-3
9.985494475E2,8.552107029E-3,-1.466075517E-2,-1.267544460E-2
9.990536134E2,-1.481347065E-2,-1.007926930E-2,-7.483093534E-3
