"Time (s)","Linear Acceleration x (m/s^2)","Linear Acceleration y (m/s^2)","Linear Acceleration z (m/s^2)"
1.063962080E-1,-1.023288250E0,1.260859966E0,-3.242936134E-1
3.080579270E-1,-4.101292133E0,2.541266441E0,-1.057131290E0
8.080579270E-1,-1.523208618E-2,4.852566719E-1,3.028793335E0
1.308057927E0,-1.911077499E-1,-5.500209332E-2,1.713247776E0
1.808057927E0,-2.270145416E-1,-7.870772481E-1,2.376844883E-1
2.308057927E0,3.467149734E-1,1.519575119E-1,-3.797533214E-1
2.808057927E0,5.790901184E-2,-2.284811437E-1,-4.208577275E-1
3.308057927E0,3.177928925E-2,-2.052222937E-1,-8.165657520E-3
3.808057927E0,-9.551525116E-2,-6.008031964E-2,-9.763780236E-2
4.308057927E0,-5.034542084E-2,-1.036231965E-1,-1.018082798E-1
4.808057927E0,2.050189972E-1,-6.939454377E-2,2.494103909E-1
5.308057927E0,-7.287216187E-2,-7.149553299E-2,3.284788132E-2
5.808057927E0,1.941490173E-2,4.543641210E-2,6.396663189E-2
6.308057927E0,3.663063049E-2,-2.759295702E-2,1.775139570E-2
6.808057927E0,-3.086662292E-2,-5.534374714E-2,-7.612538338E-2
7.308057927E0,-1.149654388E-2,-7.063287497E-2,-6.301200390E-2
7.808057927E0,1.905279160E-1,-5.863606930E-3,-2.291899920E-2
8.308057927E0,-2.183437347E-2,-2.139872313E-2,2.329182625E-2
8.808057927E0,-1.312656403E-1,9.323298931E-3,-1.601900309E-1
9.308057927E0,1.122541428E-1,-4.790741205E-2,5.827546120E-3
9.808057927E0,2.036571503E-2,-4.147395492E-2,-9.549742937E-2
1.030805793E1,-1.073350906E-1,-3.217488527E-2,3.290727735E-2
1.080805793E1,-5.477514267E-1,1.371875405E-3,-7.084926963E-1
1.130805793E1,-1.805782318E-1,-3.342755735E-1,-1.144016385E-1
1.180805793E1,-1.032781601E-1,1.186265349E-1,-4.571425915E-1
1.230805793E1,-1.987009048E-1,7.837262750E-1,-8.217232227E-1
1.280805793E1,-9.821128845E-2,6.907862425E-2,-9.072141647E-1
1.330805793E1,-5.396080017E-2,8.454393744E-1,-1.147821903E0
1.380805793E1,-3.860998154E-1,2.193224430E-1,-5.578954220E-1
1.430805793E1,-9.823799133E-3,1.272935867E-1,-5.882096291E-1
1.480805793E1,2.399349213E-2,-9.218764305E-2,1.245663166E-1
1.530805793E1,1.545581818E-1,-3.053438663E-2,1.750257015E-1
1.580805793E1,3.886413574E-2,-7.948672771E-2,6.881273389E-1
1.630805793E1,-1.460742950E-2,-8.803319931E-2,4.839512110E-1
1.680805793E1,1.993150711E-1,-1.552215815E-1,-4.925465584E-1
1.730805793E1,-6.736145020E-1,6.773166656E-1,2.006011903E-1
1.780805793E1,-1.963138580E-2,5.114424229E-2,3.174774051E-1
1.830805793E1,-1.895189285E-1,-9.461352229E-2,2.268708348E-1
1.880805793E1,3.381881714E-1,-1.065345109E-1,6.187696457E-1
1.930805793E1,-7.809162140E-2,-1.008341014E-1,5.750491619E-1
1.980805793E1,1.463966370E-1,-2.061941326E-1,5.270254612E-2
2.030805793E1,1.041212082E-1,-2.189861387E-1,6.785631180E-2
2.080805793E1,-1.484975815E-1,-2.207036614E-1,-2.720111609E-1
2.130805793E1,7.033824921E-2,-6.310069561E-2,-1.427204609E-1
2.180805793E1,-2.217197418E-2,5.762809515E-2,-2.777490616E-1
2.230805793E1,1.654815674E-2,-1.302260160E-2,2.761358023E-2
2.280805793E1,-8.465986252E-1,1.577534676E-1,9.005211294E-2
2.330805793E1,-1.064300537E-3,-5.857005119E-1,-5.143285990E-1
2.380805793E1,-6.733036041E-2,-8.780218363E-1,4.253277183E-1
2.430805793E1,3.127002716E-2,-8.253606558E-1,-3.563612700E-1
2.480805793E1,-1.980886459E-1,-4.055737257E-1,3.851357400E-1
2.530805793E1,1.004352570E-1,-2.014853954E-1,-1.501038671E-1
2.580805793E1,1.801700592E-1,-5.083179474E-1,4.638566673E-1
2.630805793E1,-1.562719345E-1,4.316524267E-1,2.265490592E-1
2.680805793E1,5.135507584E-1,5.594649315E-1,4.161449671E-1
2.730805793E1,1.319217682E-1,9.374434352E-1,-3.531748772E0
2.780805793E1,1.178656101E0,1.116064191E0,5.388283730E-1
2.830805793E1,-9.747037888E-1,9.610095024E-1,1.721811295E-2
2.880805793E1,2.446599007E-1,1.650192738E0,-1.385068893E-2
2.930805793E1,-2.135701180E-1,2.156316757E0,4.408502579E-1
2.980805793E1,-8.074841499E-1,1.853335738E0,1.033005714E0
3.030805793E1,-1.205556870E0,1.121267915E0,1.684908390E0
3.080805793E1,1.135155201E0,1.406657934E0,-3.007469177E-1
3.130805793E1,-8.314533234E-1,7.613277435E-1,1.397116661E0
3.180805793E1,-1.111471653E0,9.232984185E-1,1.228407860E0
3.230805793E1,-1.782315612E0,6.438670158E-1,4.700078964E-1
3.280805793E1,-1.002993941E0,2.511780858E-1,5.060787201E-1
3.330805793E1,-5.093035698E-1,2.408173680E-1,-9.967899323E-2
3.380805793E1,-2.580028772E-1,-7.242864370E-2,-1.015043259E-1
3.430805793E1,-2.212047577E-1,-3.880215287E-1,1.726064682E-1
3.480805793E1,1.550879240E0,-1.470021367E0,2.291297913E-2
3.530805793E1,9.982233047E-1,-9.299234152E-1,6.528282166E-2
3.580805793E1,2.960841656E-1,-3.115946651E-1,-3.161525726E-1
3.630805793E1,2.504847050E-1,-7.964243889E-1,-5.487327576E-1
3.680805793E1,1.543915510E0,-5.777838230E-1,2.024364471E-2
3.730805793E1,3.634469509E-1,-3.701022863E-1,-2.581691742E-1
3.780805793E1,3.279554844E-1,-4.924312830E-1,-7.134008408E-1
3.830805793E1,8.446071148E-1,-5.270121098E-1,5.925369263E-2
3.880805793E1,1.924741268E-1,-4.415550232E-1,-2.790803909E-1
3.930805793E1,2.082743645E-1,-1.371998787E-1,-2.057514191E-1
3.980805793E1,2.855486870E-1,-7.161557674E-2,-6.125831604E-2
4.030805793E1,9.844350815E-2,4.204869270E-3,1.889343262E-1
4.080805793E1,-3.166913986E-2,4.455602169E-2,-2.391138077E-1
4.130805793E1,-1.091253757E-1,8.040583134E-2,2.166957855E-1
4.180805793E1,-1.353213787E-1,-2.020442486E-2,4.716110229E-2
4.230805793E1,1.276979446E-1,-8.371150494E-2,-1.537370682E-1
4.280805793E1,-2.209148407E-1,-2.080141306E-1,-2.018079758E-1
4.330805793E1,-3.873045444E-1,4.934763908E-2,3.001050949E-1
4.380805793E1,-8.373427391E-2,-2.489778996E-1,-2.582740784E-2
4.430805793E1,-1.598274708E-1,-1.065111160E-1,3.287563324E-1
4.480805793E1,-4.040019512E-1,-2.555370331E-3,-3.291702271E-2
4.530805793E1,4.356455803E-2,-4.665541649E-2,-2.812833786E-1
4.580805793E1,1.628775597E-1,-5.420207977E-2,2.703523636E-1
4.630805793E1,-1.560282707E-1,-8.413791656E-2,1.103191376E-1
4.680805793E1,1.153700352E-1,1.499979496E-1,-1.787805557E-1
4.730805793E1,-1.020839214E-1,8.159756660E-2,-5.053997040E-2
4.780805793E1,-7.696509361E-2,3.583002090E-2,3.822584152E-1
4.830805793E1,-9.154651165E-1,1.286500692E-1,3.636970520E-1
4.880805793E1,-7.960091829E-1,1.424485445E-1,2.057647705E-1
4.930805793E1,-3.678163290E-1,2.051305771E-2,-1.146459579E-1
4.980805793E1,-2.311589718E-1,-4.619503021E-2,7.239151001E-2
5.030805793E1,-1.141766310E-1,-1.214219332E-1,1.195402145E-1
5.080805793E1,-1.006520987E-1,-1.041606665E-1,4.715919495E-3
5.130805793E1,4.309773445E-3,-1.456916332E-1,-1.364316940E-1
5.180805793E1,-9.714186192E-3,-1.195701361E-1,-4.132270813E-3
5.230805793E1,3.491365910E-2,-2.118750811E-1,5.683708191E-2
5.280805793E1,1.962344646E-1,-1.842318773E-1,-2.242136002E-1
5.330805793E1,5.895775557E-1,-2.842545509E-1,-2.926206589E-1
5.380805793E1,4.878120422E-1,-1.892306805E-1,-1.640567780E-1
5.430805793E1,1.188868761E0,-4.659779072E-1,-2.845916748E-1
5.480805793E1,3.511676788E-1,-1.180738926E0,-2.714872360E-1
5.530805793E1,1.782157421E-1,-5.946607590E-1,-2.502756119E-1
5.580805793E1,3.177893162E-1,-3.865015507E-1,-3.256263733E-1
5.630805793E1,4.338495731E-1,-7.966470718E-2,-1.329317093E-1
5.680805793E1,2.273306847E-1,8.542954922E-1,5.985927582E-2
5.730805793E1,3.535730839E-1,7.704613209E-1,-3.790378571E-2
5.780805793E1,6.684803963E-2,3.454167843E-1,-2.659130096E-2
5.830805793E1,4.380035400E-2,3.638298512E-1,1.810388565E-1
5.880805793E1,1.379132271E-1,9.710121155E-2,-5.477428436E-2
5.930805793E1,-4.472589493E-2,1.133736372E-1,4.511356354E-2
5.980805793E1,2.388210297E-1,1.463764906E-1,9.343051910E-2
6.030805793E1,-5.308818817E-2,-1.442551613E-2,-5.639743805E-2
6.080805793E1,1.076364517E-2,-6.251144409E-2,-7.242965698E-2
6.130805793E1,1.155037880E-1,9.912562370E-2,-4.189205170E-1
6.180805793E1,3.225722313E-1,-9.655594826E-3,1.899242401E-2
6.230805793E1,-3.101015091E-2,-3.245222569E-2,5.338382721E-2
6.280805793E1,-3.752517700E-2,1.503852606E-1,-2.886934280E-1
6.330805793E1,-2.590036392E-2,-1.273763180E-2,-1.639080048E-2
6.380805793E1,-7.035303116E-2,-2.142758369E-1,-1.170015335E-1
6.430805793E1,1.792836189E-1,1.703166962E-2,1.562356949E-1
6.480805793E1,-1.434693336E-1,-2.196455002E-2,2.182865143E-2
6.530805793E1,3.109836578E-2,-1.552617550E-2,1.618661880E-1
6.580805793E1,-2.292375565E-1,-3.039753437E-2,1.530170441E-2
6.630805793E1,-5.465149879E-2,-7.127714157E-2,1.617822647E-1
6.680805793E1,-6.987886429E-1,-1.921195984E-1,-2.860641479E-2
6.730805793E1,-2.622847557E-1,-7.534813881E-2,3.206634521E-2
6.780805793E1,-5.210661888E-2,-3.438079357E-2,2.587165833E-1
6.830805793E1,9.458732605E-2,-8.055210114E-3,-7.774639130E-2
6.880805793E1,1.008837223E-1,5.776882172E-3,2.294168472E-1
6.930805793E1,-2.134487629E-1,-3.032898903E-2,-1.373043060E-1
6.980805793E1,2.032630444E-1,5.912089348E-2,9.824657440E-2
7.030805793E1,-1.997823715E-1,-3.256559372E-2,-1.112079620E-2
7.080805793E1,1.378564835E-1,-8.255541325E-2,2.153301239E-1
7.130805793E1,3.708007336E-1,-2.173464298E-1,8.037719727E-1
7.180805793E1,-3.226993084E-1,-9.779691696E-3,1.488113403E-2
7.230805793E1,2.625582218E-1,-1.068198681E-1,2.662086487E-1
7.280805793E1,-2.067697048E-1,-6.423985958E-2,-2.961921692E-1
7.330805793E1,-1.516926289E-1,-6.173729897E-2,5.230617523E-2
7.380805793E1,2.760715485E-1,-1.573300362E-2,2.437486649E-1
7.430805793E1,-2.106525898E-1,-6.900048256E-2,-3.424005508E-1
7.480805793E1,-4.136371613E-2,-5.842065811E-2,2.707681656E-1
7.530805793E1,-1.118168831E-1,-4.360506535E-1,-8.539676666E-2
7.580805793E1,-2.654266357E-2,-1.557466984E-1,1.361398697E-1
7.630805793E1,2.674078941E-2,-4.756736755E-2,-1.044988632E-1
7.680805793E1,-4.875421524E-2,-1.004171371E-2,3.217506409E-2
7.730805793E1,4.544019699E-2,7.703781128E-3,-1.533689499E-1
7.780805793E1,-6.573343277E-2,-3.731656075E-2,1.695356369E-1
7.830805793E1,-2.247352600E-1,-3.144202232E-1,-1.352472305E-1
7.880805793E1,1.294589043E-2,-2.429015636E-1,-3.999233246E-2
7.930805793E1,-2.472136021E-1,-2.939677238E-1,-1.879568100E-1
7.980805793E1,-2.900378704E-1,-7.142090797E-2,-4.034709930E-1
8.030805793E1,1.991012096E-1,-3.229284286E-2,2.284326553E-1
8.080805793E1,1.230456829E-1,1.283421516E-1,7.667541504E-3
8.130805793E1,-5.109715462E-2,-1.006033421E-1,-7.355594635E-2
8.180805793E1,4.072046280E-2,2.373218536E-3,-2.083301544E-2
8.230805793E1,-5.741786957E-2,1.864480972E-2,-3.189754486E-2
8.280805793E1,-1.029760838E-1,-1.251323223E-1,-6.642627716E-2
8.330805793E1,6.406307220E-4,3.231992722E-1,6.734657288E-2
8.380805793E1,3.063559532E-2,2.498250008E-1,6.899642944E-2
8.430805793E1,-2.694606781E-3,1.464970112E-1,-7.473278046E-2
8.480805793E1,-8.515572548E-2,-7.941818237E-2,-1.254434586E-1
8.530805793E1,-1.407053471E-1,-5.803740025E-1,-1.664848328E-1
8.580805793E1,-2.142703533E-1,-3.847632408E-1,-1.366510391E-1
8.630805793E1,3.792762756E-3,6.411886215E-2,1.450662613E-1
8.680805793E1,8.288025856E-2,1.211502552E-1,-1.624584198E-2
8.730805793E1,4.721283913E-2,2.499320507E-1,2.416133881E-2
8.780805793E1,2.542686462E-2,2.369904518E-2,1.258087158E-2
8.830805793E1,2.537775040E-2,-5.810046196E-2,-5.442714691E-2
8.880805793E1,-2.542543411E-2,7.063961029E-2,2.832794189E-2
8.930805793E1,3.345227242E-2,1.994693279E-1,4.065036774E-2
8.980805793E1,2.916307449E-1,6.306359768E-1,2.098741531E-1
9.030805793E1,9.121632576E-2,1.951153278E-1,2.663612366E-3
9.080805793E1,3.929042816E-2,1.062152386E-1,3.300571442E-2
9.130805793E1,-1.080036163E-4,2.554464340E-2,2.346134186E-2
9.180805793E1,2.547025681E-3,-1.454472542E-2,-2.297401428E-3
9.230805793E1,-1.821231842E-2,8.226871490E-3,1.271629333E-2
9.280805793E1,-8.053779602E-3,-2.285003662E-3,4.513454437E-2
9.330805793E1,2.346444130E-2,-1.966261864E-2,-4.359436035E-2
9.380805793E1,-2.254629135E-2,3.420114517E-3,8.763313293E-3
9.430805793E1,-1.372885704E-2,1.515078545E-2,1.463603973E-2
9.480805793E1,1.399898529E-2,4.746675491E-3,-1.265811920E-2
9.530805793E1,-3.135919571E-3,-1.136779785E-3,5.614280701E-3
9.580805793E1,8.771419525E-3,5.194425583E-3,-8.282661438E-3
9.630805793E1,1.407766342E-2,9.560585022E-3,-6.877899170E-3
9.680805793E1,-2.310156822E-2,-1.268148422E-3,1.826953888E-2
9.730805793E1,-5.520343781E-3,7.569074631E-3,5.802154541E-3
9.780805793E1,-4.363775253E-3,8.943319321E-3,-4.094123840E-3
9.830805793E1,1.112704277E-1,8.331537247E-3,-4.554557800E-2
9.880805793E1,-5.836749077E-2,9.844064713E-3,-1.091957092E-3
9.930805793E1,2.152228355E-1,3.026223183E-2,-7.930755615E-2
9.980805793E1,9.411811829E-3,8.075237274E-4,4.115200043E-2
1.003080579E2,-1.121470928E-1,-4.369378090E-2,3.261089325E-2
1.008080579E2,5.234003067E-3,-1.850867271E-2,-3.276634216E-2
1.013080579E2,1.646804810E-2,-5.587100983E-3,3.896713257E-3
1.018080579E2,1.266074181E-2,-6.425619125E-3,-1.996898651E-2
1.023080579E2,6.777524948E-3,1.320648193E-2,-3.466606140E-3
1.028080579E2,-1.126933098E-2,-1.162433624E-2,-8.948326111E-3
1.033080579E2,-2.630186081E-2,-2.960920334E-3,5.696296692E-3
1.038080579E2,-2.294397354E-2,7.230520248E-3,-3.935813904E-3
1.043080579E2,-7.414579391E-3,-5.994081497E-3,-1.688957214E-3
1.048080579E2,-1.580309868E-2,-1.265048981E-2,-2.297401428E-3
1.053080579E2,-9.398221970E-3,-1.032114029E-3,-6.790161133E-3
1.058080579E2,1.320052147E-2,-1.081204414E-2,-8.622169495E-3
1.063080579E2,-3.461909294E-2,4.586935043E-3,4.293441772E-3
1.068080579E2,-1.992249489E-2,-2.147674561E-2,9.661674500E-3
1.073080579E2,-5.996704102E-3,6.473541260E-3,-3.642082214E-3
1.078080579E2,-1.556658745E-2,-8.005857468E-3,1.712226868E-2
1.083080579E2,-7.990360260E-3,-1.193284988E-3,-1.152229309E-2
1.088080579E2,1.674747467E-2,3.538131714E-4,-3.521919250E-3
1.093080579E2,-1.053380966E-2,2.025842667E-3,-3.462791443E-3
1.098080579E2,-1.010656357E-3,5.620241165E-3,1.081180573E-2
1.103080579E2,3.117728233E-2,-6.350040436E-3,-1.274204254E-2
1.108080579E2,-1.277518272E-2,-4.675149918E-3,2.576828003E-3
1.113080579E2,1.014637947E-2,1.386880875E-3,-4.546165466E-3
1.118080579E2,-8.861303329E-3,-1.045942307E-3,1.950263977E-3
1.123080579E2,2.870798111E-3,-6.160020828E-3,6.227493286E-3
1.128080579E2,-4.907131195E-3,5.761861801E-3,-7.235527039E-3
1.133080579E2,1.990604401E-2,6.055116653E-3,4.725456238E-3
1.138080579E2,-2.022290230E-2,-1.966714859E-3,1.640510559E-2
1.143080579E2,1.741433144E-2,-1.145458221E-2,-8.487701416E-5
1.148080579E2,1.614403725E-2,-9.177923203E-3,-6.525993347E-3
1.153080579E2,3.131151199E-3,5.954980850E-3,6.384849548E-3
1.158080579E2,5.244731903E-3,5.598783493E-3,-1.007270813E-2
1.163080579E2,2.127170563E-2,1.421403885E-2,-8.290290833E-3
1.168080579E2,5.350351334E-3,-9.526252747E-3,5.903244019E-4
1.173080579E2,-1.272749901E-2,6.020545959E-3,1.189994812E-2
1.178080579E2,2.981853485E-2,7.387638092E-3,-9.850502014E-3
1.183080579E2,3.111338615E-2,-8.580207825E-3,-1.045417786E-2
1.188080579E2,4.141330719E-4,-3.433465958E-3,4.551887512E-3
1.193080579E2,5.664587021E-3,7.713794708E-3,-3.731727600E-3
1.198080579E2,5.297660828E-3,3.274679184E-3,1.690769196E-2
1.203080579E2,-6.908893585E-3,-7.431268692E-3,1.489925385E-2
1.208080579E2,6.354093552E-3,6.408929825E-3,1.639366150E-3
1.213080579E2,-7.730245590E-3,-3.613471985E-3,3.792762756E-3
1.218080579E2,1.359724998E-2,-1.074171066E-2,3.752708435E-3
1.223080579E2,2.652072906E-2,7.871866226E-3,-1.515769958E-2
1.228080579E2,-1.101493835E-4,-4.173994064E-3,-3.734588623E-3
1.233080579E2,1.012206078E-2,7.485628128E-3,2.800941467E-3
1.238080579E2,1.043486595E-2,9.882211685E-3,-5.809783936E-3
1.243080579E2,2.615594864E-2,6.590461731E-2,1.177787781E-3
1.248080579E2,8.873677254E-2,3.620783091E-1,1.127910614E-2
1.253080579E2,3.651492596E-1,1.348373413E0,1.428794861E-1
1.258080579E2,6.589794159E-2,2.283000946E-1,-1.569557190E-2
1.263080579E2,9.696078300E-2,7.728004456E-2,-5.952835083E-3
1.268080579E2,-1.704359055E-2,-6.698548794E-2,-3.725051880E-2
1.273080579E2,3.115844727E-2,1.346028447E-1,1.257171631E-1
1.278080579E2,-2.846479416E-3,1.222461462E-1,7.217502594E-2
1.283080579E2,5.666732788E-2,-1.528308392E-1,-9.597492218E-2
1.288080579E2,1.215715408E-1,1.469318867E-1,9.733104706E-2
1.293080579E2,-1.379489899E-2,1.579760313E-1,-1.395940781E-1
1.298080579E2,1.141164303E-1,1.032050252E-1,-3.456783295E-2
1.303080579E2,-1.910483837E-1,1.321822405E-1,-5.473041534E-2
1.308080579E2,2.223246098E-1,1.804185510E-1,-1.662216187E-1
1.313080579E2,-3.410234451E-1,-2.509258986E-1,1.389608383E-1
1.318080579E2,-7.720446587E-2,-6.902301311E-2,-3.383445740E-2
1.323080579E2,8.416175842E-4,-4.261827469E-2,-1.293277740E-2
1.328080579E2,-2.700591087E-2,-4.879081249E-2,-5.284023285E-2
1.333080579E2,1.718568802E-2,-6.942152977E-3,7.827186584E-2
1.338080579E2,-3.164196014E-2,-6.643617153E-2,-1.192102432E-1
1.343080579E2,4.158616066E-2,-4.517734051E-2,7.892227173E-2
1.348080579E2,-1.509690285E-2,2.053892612E-2,7.441425323E-2
1.353080579E2,-3.508067131E-2,1.792681217E-2,-1.188783646E-1
1.358080579E2,8.444237709E-2,-1.439499855E-2,1.400089264E-2
1.363080579E2,5.916523933E-2,2.517390251E-2,-8.695793152E-2
1.368080579E2,-1.967608929E-1,3.744673729E-2,-5.065345764E-2
1.373080579E2,6.780381203E-1,-2.230209112E-1,7.728004456E-1
1.378080579E2,-1.000776291E-1,-3.900659084E-2,-3.904542923E-1
1.383080579E2,2.384772301E-1,9.418153763E-2,-3.135423660E-1
1.388080579E2,-1.037375927E-1,-2.511441708E-2,1.353483200E-1
1.393080579E2,9.762573242E-2,-2.624332905E-2,9.809207916E-2
1.398080579E2,3.398990631E-2,3.539800644E-3,-3.201484680E-2
1.403080579E2,2.252507210E-2,8.723616600E-3,1.397514343E-2
1.408080579E2,1.326570511E-1,8.373260498E-3,3.163433075E-2
1.413080579E2,4.404497147E-2,-1.284921169E-2,1.957988739E-2
1.418080579E2,1.025638580E-1,-4.161965847E-2,-2.358398438E-1
1.423080579E2,-1.992495060E-1,-5.749332905E-2,1.449928284E-1
1.428080579E2,-7.386713028E-1,-1.281664371E-1,-8.597469330E-1
1.433080579E2,-1.236190796E-1,1.150301695E-1,-2.023553848E-1
1.438080579E2,-2.063562870E-1,-8.230721951E-2,-3.160648346E-1
1.443080579E2,1.724362373E-2,-4.814052582E-2,1.941280365E-1
1.448080579E2,-2.120776176E-1,-6.651878357E-4,-3.939542770E-1
1.453080579E2,-1.706409454E-2,2.581155300E-2,1.015472412E-1
1.458080579E2,5.882573128E-2,1.882219315E-2,-1.349925995E-1
1.463080579E2,3.515410423E-2,5.985629559E-2,-8.438587189E-2
1.468080579E2,6.299185753E-2,-1.023530960E-2,-2.505016327E-2
1.473080579E2,-1.734828949E-2,3.805017471E-2,-1.800441742E-2
1.478080579E2,-7.716917992E-2,1.693892479E-2,-8.736133575E-2
1.483080579E2,6.008291245E-2,2.120316029E-2,3.627014160E-2
1.488080579E2,-3.314256668E-3,-1.615178585E-2,1.048650742E-1
1.493080579E2,-4.114389420E-2,-1.505672932E-2,-1.810073853E-2
1.498080579E2,-5.863165855E-2,-1.177275181E-2,-1.962184906E-2
1.503080579E2,2.141687870E-1,6.586658955E-2,-3.794670105E-2
1.508080579E2,4.086399078E-1,5.600190163E-2,2.003622055E-1
1.513080579E2,-5.498895645E-1,5.738222599E-2,-1.078128815E-2
1.518080579E2,9.942913055E-2,7.198345661E-2,-1.154823303E-1
1.523080579E2,-1.453781128E-1,2.413034439E-3,2.629108429E-1
1.528080579E2,2.297747135E-1,5.657315254E-3,4.970836639E-2
1.533080579E2,2.945876122E-2,1.334035397E-2,7.096004486E-2
1.538080579E2,3.950974941E-1,-4.061651230E-2,8.579254150E-3
1.543080579E2,-4.756090641E-1,-2.135789394E-2,-1.232557297E-1
1.548080579E2,-1.660969257E-1,4.257798195E-3,-6.612148285E-1
1.553080579E2,4.314310551E-1,2.015805244E-2,2.413616180E-1
1.558080579E2,-2.330982685E-1,-5.105161667E-2,-5.862808228E-2
1.563080579E2,7.403779030E-2,-8.965730667E-3,2.306461334E-2
1.568080579E2,5.083799362E-3,5.249369144E-2,3.311357498E-1
1.573080579E2,-1.043176651E-2,-1.205873489E-2,-4.810571671E-1
1.578080579E2,2.419180870E-1,1.807692051E-1,9.907150269E-2
1.583080579E2,-3.561007977E-1,-1.392993927E-1,-4.304571152E-1
1.588080579E2,6.304161549E-1,-1.862788200E-1,3.285837173E-1
1.593080579E2,2.993860245E-1,-1.861422062E-1,-1.197767258E-1
1.598080579E2,2.024433613E-1,-5.146074295E-2,3.306646347E-1
1.603080579E2,-4.061217308E-1,2.110952139E-1,-3.425979614E-2
1.608080579E2,4.778802395E-1,1.014986038E-1,-5.174188614E-1
1.613080579E2,-3.547170162E-1,5.622792244E-2,8.569812775E-2
1.618080579E2,-4.436278343E-2,-1.384544373E-2,1.600141525E-1
1.623080579E2,-1.812708378E-1,2.578973770E-3,-8.874893188E-2
1.628080579E2,-3.101036549E-1,-1.081204414E-2,-6.316852570E-2
1.633080579E2,1.595151424E-1,-5.855798721E-3,1.262292862E-1
1.638080579E2,-1.730957031E-1,5.738735199E-4,2.908039093E-2
1.643080579E2,1.455545425E-3,2.854251862E-2,-5.103015900E-2
1.648080579E2,-4.973697662E-2,-7.456004620E-2,1.004762650E-1
1.653080579E2,-1.308236122E-1,5.139863491E-2,-8.363246918E-2
1.658080579E2,2.533435822E-2,-3.748679161E-2,-4.173917770E-1
1.663080579E2,2.216541767E-1,-2.514705658E-1,1.038813591E0
1.668080579E2,1.433038712E-1,-7.870697975E-2,4.821872711E-1
1.673080579E2,1.850626469E-1,-1.012077332E-1,-2.987556458E-1
1.678080579E2,3.975627422E-1,-2.007637024E-1,1.683979034E-1
1.683080579E2,-2.507996559E-2,-5.069613457E-2,4.679679871E-3
1.688080579E2,-7.133221626E-2,-9.937286377E-2,1.714811325E-1
1.693080579E2,4.164290428E-2,8.009672165E-3,-1.019449234E-1
1.698080579E2,4.711151123E-3,-9.283614159E-2,-1.076745987E-1
1.703080579E2,-1.410262585E-1,9.111809731E-2,-2.050180435E-1
1.708080579E2,-6.204295158E-2,-6.426119804E-2,-3.294944763E-3
1.713080579E2,5.234479904E-2,6.452798843E-3,2.237024307E-1
1.718080579E2,2.142417431E-1,6.924986839E-2,-4.330015182E-1
1.723080579E2,1.011762619E-1,2.748799324E-2,-4.427909851E-3
1.728080579E2,1.063218117E-1,1.946616173E-2,3.857040405E-2
1.733080579E2,7.821154594E-2,-1.289391518E-1,2.128229141E-1
1.738080579E2,-1.677370071E-2,6.673789024E-2,1.719903946E-1
1.743080579E2,-6.648018360E-1,2.026796341E-2,-2.798633575E-1
1.748080579E2,5.462691784E-1,-2.145195007E-2,-1.053781509E-1
1.753080579E2,-4.420840740E-1,2.384157181E-1,-3.362350464E-1
1.758080579E2,2.012727261E-1,-3.875613213E-1,6.006765366E-1
1.763080579E2,5.565764904E-1,3.285758495E-1,1.253362656E0
1.768080579E2,-4.572827816E-1,-1.578767300E-1,-5.849351883E-1
1.773080579E2,3.360126019E-1,7.593727112E-2,1.679207802E0
1.778080579E2,-6.336998940E-1,9.361028671E-2,-3.485860825E-1
1.783080579E2,-1.648490429E-1,2.364716530E-1,4.086637497E-1
1.788080579E2,-8.227396011E-2,-5.616903305E-3,3.211975098E-2
1.793080579E2,1.792907715E-3,-8.690357208E-4,1.674003601E-1
1.798080579E2,1.786906719E-1,-9.259653091E-2,-3.642368317E-2
1.803080579E2,-3.857836723E-1,-1.219108105E-1,9.920082092E-1
1.808080579E2,-3.239426613E-1,1.758382320E-1,-1.838865280E-1
1.813080579E2,1.652061939E-1,-4.911279678E-2,-1.547107697E-1
1.818080579E2,-5.781550407E-1,-5.220723152E-2,1.463537216E-1
1.823080579E2,7.629537582E-2,-4.979705811E-2,1.008596420E-1
1.828080579E2,9.530687332E-2,9.285068512E-2,-3.025722504E-1
1.833080579E2,4.406578541E-1,-3.266096115E-3,2.532491684E-1
1.838080579E2,-2.163989544E-1,4.149150848E-2,2.279653549E-1
1.843080579E2,-7.630157471E-2,-3.047013283E-2,-1.017866135E-1
1.848080579E2,-3.598383665E-1,-3.470826149E-2,-1.014585495E-1
1.853080579E2,-2.818784714E-1,-1.228531599E-1,7.424354553E-3
1.858080579E2,-1.206891537E-1,1.221314669E-1,-1.798410416E-1
1.863080579E2,-6.519114971E-2,7.628023624E-2,4.451017380E-1
1.868080579E2,1.962502003E-1,-1.481950283E-2,-1.745328903E-1
1.873080579E2,1.607776880E-1,-1.474030018E-1,2.338390350E-1
1.878080579E2,2.034691572E-1,-5.629551411E-2,2.482414246E-1
1.883080579E2,-6.032657623E-2,-8.227527142E-2,-2.900438309E-1
1.888080579E2,-8.300268650E-2,7.257819176E-3,3.635301590E-1
1.893080579E2,2.895474434E-2,-2.195024490E-2,-1.264657974E-1
1.898080579E2,-3.226780891E-2,4.608666897E-2,-2.442140579E-1
1.903080579E2,3.912993670E-1,-2.360168695E-1,2.027931213E-1
1.908080579E2,-5.298054218E-2,-1.507338285E-1,6.811017990E-1
1.913080579E2,2.169826031E-1,-1.139614582E-1,-2.288751602E-1
1.918080579E2,8.024513721E-1,-4.317474365E-2,1.280994415E-1
1.923080579E2,1.548457146E-1,-1.734161377E-1,5.484676361E-2
1.928080579E2,1.619977951E-1,1.873385906E-1,-3.105487823E-1
1.933080579E2,1.024115324E0,1.118178368E-1,-4.521484375E-1
1.938080579E2,4.280505180E-1,-1.134014130E-1,9.752273560E-3
1.943080579E2,-3.822839260E-1,1.416635513E-2,1.564016342E-1
1.948080579E2,-1.023221016E-1,1.109747887E-1,3.712654114E-3
1.953080579E2,3.683609962E-1,-1.337077618E-1,-3.919687271E-1
1.958080579E2,-9.286618233E-2,1.686811447E-3,2.894401550E-3
1.963080579E2,1.221106052E-1,2.299952507E-2,-4.308748245E-1
1.968080579E2,-2.482168674E-1,1.331090927E-2,2.139081955E-1
1.973080579E2,4.624533653E-2,1.400399208E-2,-2.345933914E-1
1.978080579E2,8.288669586E-2,-2.809572220E-2,-6.171321869E-2
1.983080579E2,8.397030830E-2,3.273057938E-2,8.217239380E-2
1.988080579E2,5.978202820E-2,-7.327294350E-2,1.377592087E-1
1.993080579E2,-2.235841751E-2,-2.718162537E-2,7.952499390E-2
1.998080579E2,-3.637623787E-2,-2.222418785E-2,-1.470565796E-2
2.003080579E2,1.218843460E-2,-4.897904396E-2,7.805824280E-3
2.008080579E2,-3.016808033E-1,2.228283882E-2,6.891345978E-2
2.013080579E2,4.707012177E-1,2.407097816E-2,-6.124610901E-1
2.018080579E2,2.977766991E-1,-3.480648994E-2,-9.377956390E-2
2.023080579E2,2.729630470E-2,-3.850364685E-2,-1.162910461E-2
2.028080579E2,5.164980888E-2,-5.714488029E-2,-1.086359024E-1
2.033080579E2,-2.190408707E-1,-1.682810783E-1,-1.149415970E-1
2.038080579E2,2.756290436E-1,2.251029015E-2,-5.992984772E-2
2.043080579E2,5.279183388E-2,-7.102465630E-2,1.928567886E-1
2.048080579E2,-1.100177765E-1,-6.142020226E-2,-2.092733383E-1
2.053080579E2,5.839757919E-1,4.296469688E-2,-4.990606308E-1
2.058080579E2,2.900419235E-1,-2.099599838E-1,3.194808960E-1
2.063080579E2,6.941566467E-1,-1.390922070E-1,3.167667389E-1
2.068080579E2,-1.350088120E-1,-1.744174957E-2,1.410388947E-2
2.073080579E2,1.400203705E-1,2.574467659E-2,3.321838379E-2
2.078080579E2,-1.310000420E-1,-2.516627312E-2,-3.453507423E-1
2.083080579E2,-4.539082050E-1,1.803493500E-1,-2.133426666E-1
2.088080579E2,-3.304481506E-4,2.313709259E-2,-4.558563232E-2
2.093080579E2,-3.113160133E-1,3.902554512E-2,4.031658173E-2
2.098080579E2,1.389541626E-1,5.868840218E-2,-5.368041992E-2
2.103080579E2,6.614303589E-2,8.864569664E-2,-1.776800156E-1
2.108080579E2,1.663770676E-1,-5.371212959E-2,-2.137479782E-1
2.113080579E2,6.026411057E-2,1.609444618E-2,-2.355394363E-1
2.118080579E2,-9.203004837E-2,-7.423257828E-2,1.412181854E-1
2.123080579E2,1.406979561E-1,8.949398994E-2,2.783775330E-3
2.128080579E2,-7.892091274E-1,1.178379059E-1,-7.782826424E-1
2.133080579E2,3.462467194E-1,5.515098572E-2,9.615993500E-2
2.138080579E2,-7.799680233E-1,-1.674544811E-1,-2.958688736E-1
2.143080579E2,6.370086670E-1,-2.559440136E-1,4.808425903E-2
2.148080579E2,-8.772165775E-1,1.861546040E-1,-1.075139523E0
2.153080579E2,4.559783936E-1,1.215164661E-1,-6.814408302E-1
2.158080579E2,-1.708335876E-1,-3.905644417E-1,-1.546354294E-1
2.163080579E2,7.156181335E-2,-3.030416965E-1,-1.795101166E-1
2.168080579E2,5.888724327E-1,-3.759846687E-1,-1.668696404E-1
2.173080579E2,-1.696629524E-1,-3.203630447E-3,-2.606825829E-1
2.178080579E2,6.873655319E-2,-5.538005829E-1,3.526525497E-1
2.183080579E2,-4.033708572E-2,-2.321043015E-1,-3.686141968E-1
2.188080579E2,1.727776527E-1,-9.676098824E-2,-1.684679985E-1
2.193080579E2,-5.800104141E-2,-4.636979103E-2,-1.201157570E-1
2.198080579E2,3.957223892E-2,-6.703829765E-2,1.209692955E-1
2.203080579E2,2.403259277E-3,-4.169535637E-2,-1.848654747E-1
2.208080579E2,-6.535196304E-2,-3.507232666E-2,-1.407914162E-1
2.213080579E2,-4.982328415E-1,4.248619080E-3,3.242015839E-1
2.218080579E2,-7.008483410E-1,2.696421146E-1,5.529870987E-1
2.223080579E2,-1.213118076E0,2.780609131E-1,6.024265289E-1
2.228080579E2,-1.712018728E0,4.583551884E-1,7.191104889E-1
2.233080579E2,-6.194632053E-1,2.551167011E-1,9.562301636E-2
2.238080579E2,-1.465935707E-1,5.728721619E-3,-5.384922028E-2
2.243080579E2,1.357507706E-1,-8.102226257E-2,2.076158524E-1
2.248080579E2,-1.501421928E-1,-5.035805702E-2,-7.303047180E-2
2.253080579E2,5.294964314E-1,-1.973767281E-1,1.680183411E-2
2.258080579E2,1.487731934E-4,-1.685614586E-1,4.772758484E-2
2.263080579E2,2.534635067E-1,3.261756897E-2,-2.606081963E-1
2.268080579E2,1.838796139E-1,3.209900856E-2,-1.312351227E-2
2.273080579E2,2.844839096E-1,8.331775665E-3,-4.982185364E-2
2.278080579E2,-1.863217354E-1,-6.580352783E-4,6.679248810E-2
2.283080579E2,3.435554504E-1,1.588106155E-3,-8.490705490E-2
2.288080579E2,1.086807251E-1,-5.320143700E-2,-4.237413406E-2
2.293080579E2,1.703438759E-1,-1.215934753E-2,1.574678421E-1
2.298080579E2,-3.574423790E-1,1.041858196E-1,-1.071701050E-1
2.303080579E2,4.599246979E-1,-3.628778458E-1,-3.669533730E-1
2.308080579E2,1.783609390E-2,-2.640025616E-1,5.515766144E-2
2.313080579E2,-1.797015667E-1,-3.349552155E-1,8.824443817E-2
2.318080579E2,2.358274460E-1,-1.102509499E-1,-9.377002716E-2
2.323080579E2,-2.880842686E-1,1.739447117E-1,2.121009827E-1
2.328080579E2,-3.124585152E-1,3.211116791E-2,2.109851837E-1
2.333080579E2,-2.610018253E-1,-3.135893345E-1,-2.335920334E-1
2.338080579E2,-2.741868496E-1,-4.304425716E-1,-2.906017303E-1
2.343080579E2,-2.090551853E-1,-1.306896210E-1,1.542558670E-1
2.348080579E2,-5.387759209E-2,2.424027920E-1,3.381729126E-2
2.353080579E2,8.393049240E-2,-2.345480919E-1,-3.377342224E-2
2.358080579E2,-5.857706070E-2,1.500601768E-1,-4.735755920E-2
2.363080579E2,-2.932782173E-1,5.143089294E-1,8.779621124E-2
2.368080579E2,-6.342196465E-2,4.312243462E-1,9.460830688E-2
2.373080579E2,-1.052926421E0,5.859758854E-1,6.599988937E-1
2.378080579E2,-1.236289978E0,4.660525322E-1,6.719703674E-1
2.383080579E2,-4.652195871E-1,-5.955457687E-2,4.290618896E-1
2.388080579E2,-8.340021372E-1,-6.817913055E-2,3.724145889E-1
2.393080579E2,-4.663595557E-1,-3.089840412E-1,8.805751801E-2
2.398080579E2,5.148300529E-2,-2.966058254E-1,-3.265752792E-1
2.403080579E2,-4.069324583E-2,-4.234368801E-1,6.952476501E-2
2.408080579E2,-2.105174214E-1,-2.766644955E-1,-2.267618179E-1
2.413080579E2,-1.826228946E-1,-3.182289600E-1,5.611324310E-2
2.418080579E2,1.894630790E-1,-2.559998035E-1,-2.064085007E-1
2.423080579E2,7.935738564E-2,-2.585656643E-1,-1.261262894E-1
2.428080579E2,1.049515486E0,-4.190096855E-1,-5.222787857E-1
2.433080579E2,1.169531465E0,-5.236909389E-1,-7.108535767E-1
2.438080579E2,6.582016945E-1,-3.703746796E-1,-4.326658249E-1
2.443080579E2,8.929264545E-1,3.599796295E-1,-1.756753922E-1
2.448080579E2,6.974644661E-1,1.309711933E-1,-3.607130051E-1
2.453080579E2,8.694543839E-1,-1.132490635E-1,-5.072937012E-1
2.458080579E2,3.106136322E-1,4.353148341E-1,2.210121155E-1
2.463080579E2,6.629729271E-1,5.636664033E-1,-4.045515060E-1
2.468080579E2,1.946394444E-1,2.242019176E-1,1.828126907E-1
2.473080579E2,-2.924847603E-2,1.664874554E-1,-2.837982178E-1
2.478080579E2,2.273607254E-2,6.856361032E-2,1.480293274E-2
2.483080579E2,-2.146387100E-2,2.111140341E-1,-1.887140274E-1
2.488080579E2,-3.120248318E-1,3.167087734E-1,-9.430313110E-1
2.493080579E2,4.009556770E-1,-8.436362147E-1,1.088297844E0
2.498080579E2,3.669192791E-1,-4.826292396E-1,7.506923676E-1
2.503080579E2,4.932713509E-2,-2.968043685E-1,1.608591080E-1
2.508080579E2,2.513017654E-1,-3.198150992E-1,-4.936599731E-1
2.513080579E2,-2.321336269E-1,-6.584811211E-2,-3.321714401E-1
2.518080579E2,3.237812519E-1,-1.858646870E-1,4.507637024E-2
2.523080579E2,2.129466534E-1,-1.148250699E-1,7.929897308E-2
2.528080579E2,-2.194666862E-2,-1.806491613E-2,-2.972602844E-2
2.533080579E2,4.222981930E-1,-1.118026972E-1,9.968757629E-2
2.538080579E2,-1.568784714E-1,-2.187688947E-1,5.855093002E-1
2.543080579E2,-6.343102455E-2,-4.419982433E-3,-4.894638062E-2
2.548080579E2,-4.332542419E-3,2.805435658E-2,2.694797516E-2
2.553080579E2,-1.111745834E-3,-7.012575865E-2,3.393554688E-2
2.558080579E2,-1.222593784E-1,2.544075251E-2,-2.355384827E-2
2.563080579E2,-2.796149254E-2,4.835730791E-2,-1.581392288E-1
2.568080579E2,-1.165032387E-2,-6.974226236E-2,4.929542542E-3
2.573080579E2,6.441473961E-2,1.704585552E-2,6.702423096E-2
2.578080579E2,2.875185013E-2,-6.733340025E-2,1.969242096E-2
2.583080579E2,-8.207345009E-2,-2.981817722E-2,2.272500992E-1
2.588080579E2,1.895694733E-1,9.205162525E-3,-2.631578445E-1
2.593080579E2,-1.154193878E-1,2.180427313E-2,3.017902374E-2
2.598080579E2,-1.353564262E-1,9.200453758E-3,-5.956077576E-2
2.603080579E2,1.476693153E-2,4.323661327E-3,-8.865737915E-2
2.608080579E2,6.940317154E-2,2.983480692E-2,-3.206539154E-2
2.613080579E2,-3.055095673E-3,-1.508665085E-2,-6.801223755E-2
2.618080579E2,2.889795303E-1,7.710665464E-2,2.828311920E-2
2.623080579E2,-1.266002655E-1,3.774797916E-2,-1.241645813E-1
2.628080579E2,-6.567096710E-2,-2.530229092E-2,2.788448334E-2
2.633080579E2,1.716489792E-1,-3.248614073E-2,1.784620285E-1
2.638080579E2,-9.643959999E-2,1.799626946E-1,-2.255163193E-1
2.643080579E2,-3.273775578E-1,-9.713137150E-2,-1.001905441E0
2.648080579E2,6.121106148E-1,-1.692469120E-1,-1.820468903E-1
2.653080579E2,1.650176048E-1,-1.066881418E-1,-2.106447220E-1
2.658080579E2,1.429662704E-1,1.034070253E-1,-1.184806824E-1
2.663080579E2,2.031250000E-1,1.648640633E-2,-1.715698242E-1
2.668080579E2,1.343684196E-1,-1.069214344E-1,-9.440326691E-2
2.673080579E2,1.592273712E-1,7.673501968E-2,3.393840790E-2
2.678080579E2,-5.678629875E-2,-4.167807102E-2,-1.853113174E-1
2.683080579E2,1.241509914E-1,-2.414023876E-2,9.368801117E-2
2.688080579E2,-6.962442398E-2,4.658770561E-2,-1.744346619E-1
2.693080579E2,1.101541519E-1,-3.881216049E-2,-1.644973755E-1
2.698080579E2,6.710457802E-2,2.073132992E-2,-8.338069916E-2
2.703080579E2,1.462745667E-1,-3.975713253E-2,-9.918498993E-2
2.708080579E2,1.429843903E-2,1.780867577E-3,-5.199909210E-2
2.713080579E2,8.665704727E-2,-3.529798985E-2,3.858852386E-2
2.718080579E2,-2.120780945E-1,-1.995456219E-2,-4.802703857E-2
2.723080579E2,1.713292599E-1,-4.092121124E-2,-1.309099197E-1
2.728080579E2,1.027913094E-1,-9.534513950E-2,1.497268677E-4
2.733080579E2,-2.629709244E-2,5.482220650E-2,-1.870422363E-1
2.738080579E2,-4.965066910E-2,-3.466987610E-2,-8.817577362E-2
2.743080579E2,-1.778323650E-1,-1.306569576E-2,1.151762009E-1
2.748080579E2,-3.528141975E-2,-7.275223732E-3,7.798194885E-3
2.753080579E2,7.836866379E-2,-1.109910011E-1,-2.871036530E-2
2.758080579E2,-9.895825386E-2,1.041495800E-2,-1.173601151E-1
2.763080579E2,2.437400818E-2,-1.210916042E-1,-6.180191040E-2
2.768080579E2,1.642279148E0,2.639870644E-1,-3.983736038E-1
2.773080579E2,3.767335415E-1,2.055261135E-1,-4.462928772E-1
2.778080579E2,-4.992961884E-2,2.996122837E-2,-5.991363525E-2
2.783080579E2,-4.250884056E-2,5.024743080E-2,4.894733429E-2
2.788080579E2,-4.744236469E-1,3.603854179E-1,3.865165710E-1
2.793080579E2,-5.192677975E-1,1.091254950E-1,-1.032857895E-1
2.798080579E2,-8.236670494E-2,8.628845215E-3,4.967746735E-1
2.803080579E2,-2.743067741E-1,5.981136560E-1,-8.324050903E-2
2.808080579E2,-1.149251461E-1,-1.998279095E-1,-8.480520248E-1
2.813080579E2,-2.154049873E-1,3.095734119E-2,-7.470893860E-2
2.818080579E2,1.445753574E-1,-2.018213272E-4,-3.981018066E-1
2.823080579E2,-1.671378613E-1,6.288266182E-2,1.807909012E-1
2.828080579E2,1.616544724E-1,4.230606556E-2,-1.154699326E-1
2.833080579E2,1.231048107E-1,9.699380398E-2,3.129978180E-1
2.838080579E2,-1.312868595E-1,-6.768906116E-2,-1.921081543E-2
2.843080579E2,-6.264657974E-1,1.034585238E-1,5.443143845E-1
2.848080579E2,-1.745707989E-1,1.145032644E-1,-1.708049774E-1
2.853080579E2,-5.688190460E-2,-1.473293304E-1,3.680276871E-1
2.858080579E2,-3.298356533E-1,2.630740404E-1,9.391260147E-1
2.863080579E2,-3.238298893E-1,-7.808089256E-2,-6.684598923E-1
2.868080579E2,-1.859850883E-1,1.797026396E-1,5.529499054E-1
2.873080579E2,-3.858184814E-1,6.036043167E-2,-1.320228577E-1
2.878080579E2,6.364867687E-1,7.085299492E-2,-3.950233459E-1
2.883080579E2,3.663518429E-1,-4.809200764E-2,-3.022909164E-1
2.888080579E2,-7.787418365E-2,8.158338070E-2,-1.272649765E-1
2.893080579E2,1.484658718E-1,-1.285582781E-1,-1.786308289E-1
2.898080579E2,-3.519582748E-2,1.018774509E-2,2.380189896E-1
2.903080579E2,-1.250979900E-1,9.622216225E-3,-6.317615509E-2
2.908080579E2,1.108794212E-1,-8.113658428E-2,7.168960571E-2
2.913080579E2,-2.820394039E-1,1.022707224E-1,-1.834096909E-1
2.918080579E2,7.161903381E-2,-1.195791960E-1,-1.300411224E-1
2.923080579E2,2.007076740E-1,-1.880552769E-1,5.977516174E-1
2.928080579E2,-2.591073513E-1,-5.690801144E-2,-1.139106750E-1
2.933080579E2,3.996388912E-1,-1.830960512E-1,-1.317720413E-1
2.938080579E2,-1.051936150E-1,-1.709711552E-2,1.130104065E-2
2.943080579E2,-4.192423820E-2,-2.840995789E-2,2.185726166E-2
2.948080579E2,2.731037140E-2,-1.892340183E-2,-8.316707611E-2
2.953080579E2,-9.804916382E-2,3.495466709E-2,2.258396149E-2
2.958080579E2,5.854058266E-2,1.415455341E-2,-6.172466278E-2
2.963080579E2,-1.126544476E-1,-7.347583771E-3,7.218456268E-2
2.968080579E2,5.567002296E-2,6.809234619E-4,2.172470093E-2
2.973080579E2,-6.434392929E-2,-1.532196999E-2,-1.129827499E-1
2.978080579E2,-2.776384354E-2,5.102157593E-3,6.496524811E-2
2.983080579E2,-1.983702183E-1,2.134072781E-2,-1.273593903E-1
2.988080579E2,6.147360802E-2,-5.285263062E-3,-1.005134583E-1
2.993080579E2,-2.009534836E-2,4.568946362E-2,2.812500000E-1
2.998080579E2,5.055785179E-2,-3.018021584E-2,-1.036605835E-1
3.003080579E2,-1.632351875E-1,7.159554958E-2,1.202907562E-1
3.008080579E2,1.214287281E-1,-6.785440445E-2,-1.099710464E-1
3.013080579E2,4.702425003E-2,7.180297375E-2,1.101961136E-1
3.018080579E2,1.189470291E-1,-1.335859299E-3,-3.342189789E-1
3.023080579E2,-6.694436073E-2,-2.249288559E-2,6.348514557E-2
3.028080579E2,-1.925826073E-2,-4.368066788E-3,1.080799103E-2
3.033080579E2,1.493959427E-1,-5.859899521E-2,-1.449193954E-1
3.038080579E2,-2.891635895E-2,-6.573557854E-3,4.862785339E-3
3.043080579E2,-6.218528748E-2,3.785181046E-2,-8.703804016E-2
3.048080579E2,-9.229803085E-2,1.845359802E-3,-1.521587372E-2
3.053080579E2,-6.341195107E-2,3.643715382E-2,1.234092712E-1
3.058080579E2,7.832837105E-2,8.697390556E-3,-1.177663803E-1
3.063080579E2,-2.704238892E-2,-3.568077087E-2,1.775503159E-1
3.068080579E2,5.777812004E-2,4.409551620E-3,9.643840790E-2
3.073080579E2,-1.680493355E-2,-2.386593819E-2,-2.110023499E-1
3.078080579E2,2.984929085E-2,-1.600074768E-2,1.045980453E-1
3.083080579E2,-1.323337555E-1,-8.033633232E-3,-2.967739105E-2
3.088080579E2,-2.419233322E-2,2.008771896E-2,-4.283046722E-2
3.093080579E2,7.707262039E-2,1.992368698E-2,-4.366874695E-3
3.098080579E2,-8.204221725E-3,-1.395714283E-2,4.869174957E-2
3.103080579E2,7.585668564E-2,-4.313147068E-2,3.252410889E-2
3.108080579E2,1.678917408E-1,-2.907788754E-2,8.454608917E-2
3.113080579E2,-4.387736320E-2,-4.891037941E-3,-1.593875885E-2
3.118080579E2,7.687115669E-2,1.213407516E-2,-8.465671539E-2
3.123080579E2,-6.893467903E-2,-2.458417416E-2,8.154678345E-2
3.128080579E2,-2.163279057E-1,8.483815193E-2,9.104061127E-2
3.133080579E2,-3.259711266E-1,-9.396302700E-2,-1.863508701E0
3.138080579E2,4.187865257E-1,-4.050775766E-1,7.085037231E-2
3.143080579E2,-5.154542923E-1,1.340639591E-1,1.115493774E-1
3.148080579E2,1.648046970E-1,1.952240467E-1,-2.833633423E-1
3.153080579E2,1.582996845E-1,8.165884018E-2,-5.773830414E-2
3.158080579E2,1.735408306E-1,1.010484695E-1,2.025890350E-2
3.163080579E2,9.984660149E-2,-6.456935406E-2,7.965278625E-2
3.168080579E2,-5.196571350E-3,2.784788609E-2,1.935300827E-1
3.173080579E2,2.361583710E-2,1.652276516E-2,-9.461879730E-2
3.178080579E2,9.473395348E-2,-3.838574886E-2,5.123519897E-2
3.183080579E2,-5.691909790E-2,-1.561903954E-2,1.137952805E-1
3.188080579E2,-5.163431168E-3,3.897655010E-2,-1.955928802E-1
3.193080579E2,-9.566235542E-2,1.868247986E-3,-2.035274506E-1
3.198080579E2,-9.333014488E-2,-5.267059803E-2,1.911268234E-1
3.203080579E2,-4.175329208E-2,6.138205528E-3,-9.321689606E-2
3.208080579E2,8.393669128E-2,-5.755817890E-2,1.265716553E-2
3.213080579E2,5.469322205E-3,-1.737701893E-2,5.015468597E-2
3.218080579E2,5.226755142E-2,-3.618550301E-2,-9.988880157E-2
3.223080579E2,1.552343369E-3,-1.790869236E-2,1.906061172E-1
3.228080579E2,-8.194446564E-4,1.582717896E-2,-1.341218948E-1
3.233080579E2,9.647846222E-2,-1.558899879E-3,7.653617859E-2
3.238080579E2,8.139133453E-3,4.153728485E-3,6.308460236E-2
3.243080579E2,-1.016891003E-1,5.362212658E-2,-8.140659332E-2
3.248080579E2,8.146667480E-2,-6.023883820E-2,9.860992432E-4
3.253080579E2,2.917993069E-1,-3.242552280E-2,1.633405685E-1
3.258080579E2,-1.438772678E-1,-5.969798565E-2,-1.669588089E-1
3.263080579E2,7.662966251E-1,-1.107764244E-1,4.873638153E-1
3.268080579E2,-4.290883541E-1,2.709496021E-2,4.741287231E-2
3.273080579E2,4.304242134E-2,2.811110020E-2,1.312627792E-1
3.278080579E2,7.760024071E-2,2.634406090E-3,-7.092761993E-2
3.283080579E2,-8.725261688E-2,3.677845001E-2,2.243518829E-2
3.288080579E2,-2.513041496E-1,1.778209209E-2,-5.489063263E-2
3.293080579E2,2.091491222E-1,5.864560604E-2,5.345439911E-2
3.298080579E2,-8.775472641E-3,-1.153099537E-2,4.838657379E-2
3.303080579E2,3.489518166E-2,4.862153530E-2,2.170820236E-1
3.308080579E2,-6.675720215E-2,-2.367353439E-2,-1.217889786E-1
3.313080579E2,5.229234695E-3,-3.346669674E-2,-4.455661774E-2
3.318080579E2,-5.266535282E-1,1.541862488E-1,-3.055725098E-1
3.323080579E2,1.920437813E-2,-3.847539425E-2,8.243274689E-2
3.328080579E2,-7.603812218E-2,9.960782528E-2,1.391992569E-1
3.333080579E2,-8.449149132E-2,5.104231834E-2,-5.028028488E-1
3.338080579E2,2.234666348E-1,-6.862246990E-2,3.285503387E-2
3.343080579E2,-2.758388519E-1,1.055128574E-1,-1.099586487E-2
3.348080579E2,-8.588147163E-2,6.655335426E-3,-2.754774094E-1
3.353080579E2,-1.624577045E-1,2.532005310E-2,1.583585739E-1
3.358080579E2,-3.041100502E-2,2.675735950E-2,3.114414215E-2
3.363080579E2,1.482956409E-1,-1.002836227E-2,-6.682491302E-2
3.368080579E2,-9.148120880E-2,-4.261338711E-2,-1.960563660E-2
3.373080579E2,3.826689720E-2,2.438712120E-2,1.354389191E-1
3.378080579E2,-1.728093624E-1,2.712262869E-1,-8.070812225E-1
3.383080579E2,2.734780312E-1,-1.423954964E-3,2.677936554E-1
3.388080579E2,-1.617367268E-1,1.616671085E-1,1.307802200E-1
3.393080579E2,1.074817181E-1,-1.296826601E-1,-4.298686981E-2
3.398080579E2,3.447592258E-1,-3.861963749E-2,-1.154899597E-1
3.403080579E2,1.580786705E-2,-1.006327868E-1,6.041049957E-2
3.408080579E2,-1.744363308E-1,5.906641483E-2,-7.568740845E-2
3.413080579E2,-9.317898750E-2,-2.345185280E-1,-5.815219879E-2
3.418080579E2,-3.307714462E-1,1.088493466E-1,-3.268718719E-2
3.423080579E2,9.658901691E-1,2.674210668E-1,-1.664037704E-1
3.428080579E2,6.277513504E-2,1.428717375E-1,7.534503937E-2
3.433080579E2,3.127534389E-1,-8.698761463E-2,-1.275911331E-1
3.438080579E2,1.281545162E-1,-4.584908485E-3,1.452894211E-1
3.443080579E2,-9.061026573E-2,-1.496278048E-1,-4.228115082E-2
3.448080579E2,7.254004478E-2,-2.953708172E-2,-2.793197632E-1
3.453080579E2,-1.111576557E-1,-3.169298172E-3,2.830505371E-3
3.458080579E2,-1.461610794E-1,4.456186295E-2,5.801868439E-2
3.463080579E2,-3.237524033E-1,-4.640579224E-2,-1.547241211E-1
3.468080579E2,1.419580698E0,3.088569641E-1,-4.567337036E-2
3.473080579E2,-2.358164072E0,7.863532305E-1,-1.177911758E-1
3.478080579E2,1.243600965E0,8.222736716E-1,2.118867874E0
3.483080579E2,-3.175866127E0,-5.579327345E-1,-6.518630981E-1
3.488080579E2,-1.067897916E0,2.819842994E-1,7.572908401E-1
3.493080579E2,-5.910543203E-1,4.158072174E-1,4.776639938E-1
3.498080579E2,1.153155684E0,3.510159850E-1,1.678485870E-1
3.503080579E2,-2.481077909E-1,2.780088782E-1,-1.147556305E-2
3.508080579E2,2.078619003E-1,1.518006325E-1,8.428573608E-3
3.513080579E2,-1.989006996E-3,-1.253575087E-2,2.063484192E-1
3.518080579E2,-1.340566874E-1,9.188348055E-2,-1.508674622E-1
3.523080579E2,2.072402239E-1,-3.362524509E-2,-2.729949951E-1
3.528080579E2,-1.304045916E-1,-6.615084410E-2,2.292108536E-1
3.533080579E2,3.927657604E-1,-2.091699839E-1,-6.481847763E-1
3.538080579E2,2.850772142E-1,-1.683490276E-1,3.014783859E-1
3.543080579E2,-1.754702330E-1,-7.352060080E-2,-1.820678711E-1
3.548080579E2,7.877802849E-2,-4.050552845E-3,-4.344129562E-1
3.553080579E2,-1.109850407E-1,1.655834317E-1,7.012205124E-1
3.558080579E2,-5.622558594E-1,2.701615691E-1,-6.715879440E-1
3.563080579E2,-1.022289991E-1,1.069459915E-1,3.400812149E-1
3.568080579E2,-5.386995077E-1,7.866096497E-2,3.876667023E-1
3.573080579E2,1.919507980E-2,2.203291655E-2,1.720733643E-1
3.578080579E2,-1.474261284E-1,8.771854639E-2,-1.108417511E-1
3.583080579E2,1.476686001E-1,-7.935154438E-2,2.139806747E-1
3.588080579E2,-2.712179422E-1,2.943217754E-3,6.037025452E-1
3.593080579E2,2.679072618E-1,5.409860611E-2,-1.793441772E-1
3.598080579E2,1.679611206E-1,-6.023466587E-3,-4.767417908E-2
3.603080579E2,-3.886222839E-4,-1.373803616E-2,9.857273102E-2
3.608080579E2,-6.977760792E-2,6.138205528E-3,-6.843852997E-2
3.613080579E2,-5.862128735E-2,6.230038404E-2,6.307506561E-2
3.618080579E2,-1.703510284E-1,4.564565420E-2,-1.124448776E-1
3.623080579E2,1.057428122E-1,-1.768314838E-2,2.327060699E-1
3.628080579E2,-1.389416456E-1,1.294813752E-1,3.566894531E-1
3.633080579E2,-1.518719196E-1,2.999629378E-1,-1.730513096E0
3.638080579E2,4.659838676E-1,-1.628228426E-1,-3.020229340E-1
3.643080579E2,-1.102330685E-1,6.453633308E-2,1.351673126E0
3.648080579E2,2.767822742E-1,-9.620738029E-2,-5.474519730E-1
3.653080579E2,7.389805317E-1,-2.148857713E-1,-2.877712250E-2
3.658080579E2,1.459050179E-2,-6.999164820E-2,-2.344160080E-1
3.663080579E2,1.210156679E-1,-1.235259175E-1,-2.271184921E-1
3.668080579E2,-1.366839409E-1,1.886045933E-2,-3.356838226E-2
3.673080579E2,4.215061665E-2,-5.444377661E-2,3.078651428E-2
3.678080579E2,-4.823219776E-2,4.186379910E-2,9.497547150E-2
3.683080579E2,1.629381180E-1,-3.031694889E-2,-1.004657745E-1
3.688080579E2,2.689838409E-3,1.386392117E-2,3.956317902E-2
3.693080579E2,-5.622351170E-2,-4.280960560E-2,3.068447113E-2
3.698080579E2,1.477220058E-1,-4.179799557E-2,-4.978656769E-2
3.703080579E2,1.557898521E-2,2.025061846E-2,-6.721019745E-2
3.708080579E2,1.793636084E-1,2.887398005E-2,-5.016517639E-2
3.713080579E2,7.324826717E-2,6.368684769E-2,3.219318390E-2
3.718080579E2,-1.607975960E-1,-2.057480812E-2,4.842281342E-2
3.723080579E2,-5.578327179E-2,3.547519445E-2,2.606945038E-1
3.728080579E2,-1.648621559E-1,2.186840773E-2,-7.356166840E-2
3.733080579E2,-1.030601263E-1,-2.204960585E-2,-1.485109329E-1
3.738080579E2,3.964304924E-3,2.887207270E-2,3.733348846E-2
3.743080579E2,1.052445173E-1,-1.296675205E-2,-2.670726776E-1
3.748080579E2,-2.227807045E-2,6.541746855E-2,1.883516312E-1
3.753080579E2,-9.353077412E-2,2.944648266E-3,-5.866909027E-2
3.758080579E2,1.008827686E-1,-5.017483234E-2,1.183958054E-1
3.763080579E2,4.845654964E-2,-2.590668201E-2,1.059131622E-1
3.768080579E2,2.343428135E-2,2.543121576E-2,1.079912186E-1
3.773080579E2,3.717517853E-2,1.762503386E-2,-1.137094498E-1
3.778080579E2,-8.521258831E-2,-7.857650518E-2,2.186689377E-1
3.783080579E2,4.812049866E-2,1.462358236E-2,-1.801271439E-1
3.788080579E2,9.936892986E-2,-7.557392120E-3,-2.707004547E-2
3.793080579E2,-1.044905186E-1,-9.193778038E-3,-7.204914093E-2
3.798080579E2,1.102731228E-1,-3.232562542E-2,-1.483144760E-1
3.803080579E2,-9.175324440E-2,1.668214798E-2,1.011886597E-1
3.808080579E2,-1.776756048E-1,5.192101002E-3,-1.108837128E-1
3.813080579E2,2.090437412E-1,-3.301864862E-2,1.350841522E-1
3.818080579E2,-9.124374390E-2,3.573805094E-2,1.230983734E-1
3.823080579E2,1.436331272E-1,-6.097817421E-2,-1.329517365E-2
3.828080579E2,1.242210865E-1,3.723365068E-2,2.142677307E-1
3.833080579E2,-5.568027496E-2,-6.310874224E-2,-2.525472641E-1
3.838080579E2,1.610251665E-1,-6.510436535E-3,1.936407089E-1
3.843080579E2,-1.297341585E-1,-6.130635738E-3,-1.398515701E-1
3.848080579E2,-1.213926077E-1,-4.003059864E-2,-1.203784943E-1
3.853080579E2,2.533833981E-1,1.036011577E-1,-2.369737625E-1
3.858080579E2,8.132278919E-2,-2.597022057E-2,7.619380951E-2
3.863080579E2,-2.153905630E-1,6.923615932E-3,1.314249039E-1
3.868080579E2,2.006670237E-1,2.047497034E-2,-8.563995361E-2
3.873080579E2,-2.904859781E-1,-6.588476896E-2,-1.770782471E-2
3.878080579E2,-1.068067551E-2,-3.482419252E-2,2.293815613E-1
3.883080579E2,-1.270252466E-1,-7.200002670E-3,2.343244553E-1
3.888080579E2,-1.018910408E-1,-2.189886570E-2,-2.579765320E-1
3.893080579E2,1.487853527E-1,-1.554924250E-1,1.422986984E-1
3.898080579E2,-6.084954739E-2,2.204322815E-2,-5.308628082E-2
3.903080579E2,-1.967537403E-2,-5.417454243E-2,-9.115409851E-2
3.908080579E2,1.753449440E-2,-5.593621731E-2,-1.938953400E-1
3.913080579E2,-1.183807850E-2,3.740191460E-3,2.880563736E-1
3.918080579E2,-3.011496067E-1,4.940617085E-2,-5.623245239E-1
3.923080579E2,-1.029887199E-1,-8.740782738E-2,6.018638611E-3
3.928080579E2,-6.754962206E-1,-8.466959000E-3,-1.398067474E-1
3.933080579E2,3.986039162E-1,2.592486143E-2,-2.181472778E-1
3.938080579E2,1.321852207E-2,2.657628059E-2,1.330461502E-1
3.943080579E2,5.218744278E-3,-7.591545582E-2,1.550502777E-1
3.948080579E2,4.085230827E-2,3.601014614E-3,-2.977371216E-3
3.953080579E2,1.398720741E-1,-2.393305302E-2,-9.244251251E-2
3.958080579E2,-9.761357307E-2,-7.912111282E-2,1.241731644E-1
3.963080579E2,1.341880560E-1,9.594917297E-3,-7.233238220E-2
3.968080579E2,-2.473210096E-1,-5.597883463E-2,-2.914333344E-2
3.973080579E2,1.640632153E-1,8.750307560E-2,1.096563339E-1
3.978080579E2,1.836609840E-2,-8.084869385E-2,-3.672208786E-1
3.983080579E2,9.787428379E-2,7.024461031E-2,4.404907227E-1
3.988080579E2,2.659779787E-1,1.373982430E-2,-1.373081207E-1
3.993080579E2,-1.181052923E-1,-6.938302517E-2,-5.672264099E-2
3.998080579E2,2.408894300E-1,8.000111580E-2,-7.568264008E-2
4.003080579E2,2.324652672E-2,-5.292618275E-2,-1.482734680E-1
4.008080579E2,-1.047765017E-1,1.072621346E-2,1.140708923E-1
4.013080579E2,3.474748135E-2,3.920322657E-2,-2.063894272E-1
4.018080579E2,8.843445778E-2,-4.388540983E-2,1.074113846E-1
4.023080579E2,1.101663113E-1,2.630096674E-2,1.265783310E-1
4.028080579E2,9.187459946E-2,-5.723810196E-2,-2.197828293E-1
4.033080579E2,-1.877179146E-1,3.420889378E-3,2.218208313E-1
4.038080579E2,-1.448166370E-1,4.300117493E-3,-2.689094543E-1
4.043080579E2,7.123708725E-3,2.260923386E-2,-2.041816711E-3
4.048080579E2,-1.804387569E-1,5.810916424E-3,8.240985870E-2
4.053080579E2,3.841476440E-1,1.330393553E-2,5.380249023E-2
4.058080579E2,1.588141918E-1,5.810862780E-2,5.871295929E-2
4.063080579E2,3.510510921E-2,-6.344914436E-2,1.172332764E-1
4.068080579E2,-4.190278053E-2,8.570551872E-3,2.307100296E-1
4.073080579E2,-1.598715782E-3,-7.591414452E-2,-1.920490265E-1
4.078080579E2,-9.617519379E-2,-1.263205409E-1,1.041269302E-1
4.083080579E2,2.087296247E-1,1.220865250E-1,-2.550153732E-1
4.088080579E2,3.189890385E-1,5.011999607E-2,-5.209178925E-1
4.093080579E2,2.747302055E-1,-5.362629890E-3,7.216424942E-1
4.098080579E2,7.156038284E-2,-2.254760265E-2,1.536540985E-1
4.103080579E2,8.257071972E-1,-1.663215160E-1,-3.434686661E-1
4.108080579E2,3.144977093E-1,-1.660912037E-1,1.842784882E-2
4.113080579E2,2.210371494E-1,-7.988286018E-2,-1.606693268E-1
4.118080579E2,1.643953323E-1,-7.185578346E-3,-2.143812180E-1
4.123080579E2,-8.996891975E-2,-1.051729918E-1,-8.316993713E-3
4.128080579E2,-2.463891506E-1,4.988455772E-2,1.198968887E-1
4.133080579E2,-3.643074036E-1,2.241730690E-2,-2.270412445E-2
4.138080579E2,-2.071044445E-1,-4.329109192E-2,8.549976349E-2
4.143080579E2,1.091597080E-1,-2.534258366E-2,1.801891327E-1
4.148080579E2,-3.693265915E-1,-7.472705841E-2,-1.401271820E-1
4.153080579E2,-5.532860756E-2,-1.073431969E-2,1.937360764E-1
4.158080579E2,-7.533646822E-1,1.974391937E-2,-3.318586349E-1
4.163080579E2,-4.715026617E-1,5.902457237E-2,-2.402591705E-1
4.168080579E2,-3.415147066E-1,2.093279362E-2,3.485870361E-2
4.173080579E2,2.058769464E-1,1.959580183E-2,-3.826618195E-2
4.178080579E2,-2.154163122E-1,-3.438133001E-2,2.942819595E-1
4.183080579E2,-6.913328171E-2,5.144447088E-2,1.631441116E-1
4.188080579E2,5.709123611E-2,-2.141928673E-2,-8.153820038E-2
4.193080579E2,-1.052597761E-1,-4.765176773E-2,8.090305328E-2
4.198080579E2,5.231583118E-2,2.336448431E-2,-1.483364105E-1
4.203080579E2,2.171516418E-2,-1.973450184E-2,-1.018362045E-1
4.208080579E2,1.843205690E-1,-1.795089245E-2,-1.159763336E-2
4.213080579E2,-9.927082062E-2,2.895534039E-2,9.937381744E-2
4.218080579E2,-1.166715622E-1,-3.519850969E-2,2.398872375E-2
4.223080579E2,4.549360275E-2,4.952812195E-2,4.090309143E-3
4.228080579E2,1.335549355E-2,-1.535892487E-3,1.463460922E-1
4.233080579E2,-1.719933748E-1,5.281263590E-2,1.392402649E-1
4.238080579E2,2.379384041E-1,-3.976285458E-3,-8.811283112E-2
4.243080579E2,-9.149289131E-2,-4.461526871E-2,2.981805801E-1
4.248080579E2,3.313517570E-2,2.387623787E-1,-4.700183868E-2
4.253080579E2,-2.127850056E-2,-4.705765247E-1,-1.528284073E0
4.258080579E2,2.942333221E-1,-2.835416198E-1,6.656084061E-1
4.263080579E2,-5.275174379E-1,-1.099231243E-1,-3.469524384E-1
4.268080579E2,5.829613209E-1,-2.575963736E-1,-3.867826462E-1
4.273080579E2,-3.936165571E-1,-1.171933413E-1,2.863140106E-1
4.278080579E2,-1.067738533E-1,-2.273012400E-1,8.140850067E-2
4.283080579E2,-1.467796564E-1,-8.141839504E-2,1.041126251E-2
4.288080579E2,-1.671530008E-1,-1.974928379E-2,-5.847930908E-2
4.293080579E2,1.348158121E-1,-3.486049175E-2,-7.767677307E-2
4.298080579E2,1.392006874E-1,-1.411948204E-1,2.887506485E-1
4.303080579E2,7.047986984E-2,2.180598378E-1,-6.678104401E-2
4.308080579E2,-2.309498787E-1,4.563009739E-2,-1.046819687E-1
4.313080579E2,6.146916151E-1,-4.217386246E-3,7.903671265E-2
4.318080579E2,-1.557997465E-1,4.913330078E-3,1.746273041E-2
4.323080579E2,-4.441869259E-2,8.518487215E-2,1.149225235E-1
4.328080579E2,-7.077872753E-2,5.001085997E-2,1.550197601E-2
4.333080579E2,1.838314533E-2,4.130804539E-2,-1.440134048E-1
4.338080579E2,1.311935186E-1,2.229195833E-2,-8.279895782E-2
4.343080579E2,3.918635845E-2,-2.526749372E-1,2.905178070E-2
4.348080579E2,-1.564024687E-1,-1.614136696E-1,2.413187027E-1
4.353080579E2,4.541790485E-2,-3.141009808E-2,-2.071580887E-1
4.358080579E2,2.231718302E-1,2.593994141E-4,-4.981994629E-2
4.363080579E2,-1.927477121E-1,9.752690792E-2,-1.274414062E-1
4.368080579E2,1.130505800E-1,-7.817625999E-3,-9.038734436E-2
4.373080579E2,2.104437351E-2,-2.877986431E-2,4.307556152E-2
4.378080579E2,-1.033838987E-1,-5.534219742E-2,5.987644196E-2
4.383080579E2,-1.793352365E-1,2.979695797E-2,1.685914993E-1
4.388080579E2,-3.716933727E-2,-7.911956310E-2,-1.273822784E-2
4.393080579E2,-1.794569492E-1,6.716966629E-3,2.749204636E-1
4.398080579E2,-1.661971807E-1,-1.776337624E-3,-1.985979080E-1
4.403080579E2,-1.277042627E-1,7.914602757E-2,5.340862274E-2
4.408080579E2,-2.029041052E-1,-1.239525080E-1,-2.399053574E-1
4.413080579E2,3.844472170E-1,1.491756439E-1,9.245252609E-1
4.418080579E2,1.035726070E-2,9.357571602E-3,-4.120292664E-1
4.423080579E2,1.562708616E-1,1.517245173E-1,2.950925827E-1
4.428080579E2,2.175613642E-1,2.799487114E-2,-1.258964539E-1
4.433080579E2,-3.773522973E-1,1.909720898E-2,1.945705414E-1
4.438080579E2,1.897591352E-1,-1.255824566E-1,-1.451559067E-1
4.443080579E2,-2.596091032E-1,3.159588575E-2,2.267599106E-1
4.448080579E2,-3.199374974E-1,2.858459949E-3,-4.439640045E-1
4.453080579E2,-1.363362074E-1,-1.945555806E-1,4.583387375E-1
4.458080579E2,3.153477311E-1,-1.591656208E-1,-4.133138657E-1
4.463080579E2,1.590442061E-1,-1.798924208E-1,-1.047649384E-1
4.468080579E2,-3.876864910E-3,-5.126404762E-2,6.855869293E-2
4.473080579E2,1.661330462E-2,-7.346534729E-2,-1.939182281E-1
4.478080579E2,6.946192980E-1,-1.057528257E-1,-2.648477554E-1
4.483080579E2,2.955754995E-1,-7.863652706E-2,-5.451393127E-2
4.488080579E2,2.138549089E-1,-1.143503189E-2,1.166591644E-1
4.493080579E2,1.649979353E-1,-1.872066259E-1,-9.196281433E-3
4.498080579E2,1.682316065E-1,2.436743975E-1,1.382493973E-1
4.503080579E2,1.816947460E-1,-3.071799278E-1,-1.121330261E0
4.508080579E2,3.798615932E-1,-4.454445839E-2,7.188930511E-1
4.513080579E2,2.332651615E-1,-1.311303377E-1,-4.351139069E-2
4.518080579E2,7.391691208E-2,-4.887783527E-2,-8.460712433E-2
4.523080579E2,1.553254128E-1,-5.052864552E-2,-2.026205063E-1
4.528080579E2,-9.215605259E-2,2.526175976E-2,2.287330627E-1
4.533080579E2,-1.323643923E-1,-1.849246025E-2,-2.541570663E-1
4.538080579E2,-9.924137592E-2,2.897179127E-2,6.139850616E-2
4.543080579E2,7.522308826E-2,-2.469539642E-2,-2.176084518E-1
4.548080579E2,3.389464617E-1,-5.748760700E-2,-5.374526978E-2
4.553080579E2,-4.346170425E-1,-4.030239582E-2,-7.189750671E-2
4.558080579E2,-1.640506983E-1,1.154339314E-2,6.599998474E-2
4.563080579E2,-2.187592983E-1,-4.112839699E-2,-1.855411530E-1
4.568080579E2,8.605253696E-2,-1.892673969E-2,8.726978302E-2
4.573080579E2,-1.374480724E-1,1.222014427E-2,-1.794328690E-1
4.578080579E2,6.020832062E-2,-1.985194683E-1,-9.715080261E-3
4.583080579E2,-6.980597973E-2,-1.214128733E-1,-5.446243286E-2
4.588080579E2,1.203398705E-1,-4.288983345E-2,-2.108917236E-1
4.593080579E2,-1.959731579E-1,-2.319958210E-1,1.604747772E-1
4.598080579E2,-6.370198727E-2,-1.905705929E-1,-1.063537598E-1
4.603080579E2,-8.048939705E-2,-1.770098209E-1,3.825283051E-2
4.608080579E2,-7.396936417E-3,8.984565735E-2,1.449413300E-1
4.613080579E2,3.448983431E-1,-5.331680775E-1,-3.258218765E-1
4.618080579E2,7.751214504E-1,2.842924595E-1,-3.112993240E-1
4.623080579E2,1.173750162E0,7.580406666E-1,-3.094472885E-1
4.628080579E2,1.247564554E-1,6.081036329E-1,-5.291404724E-1
4.633080579E2,-3.475392461E-1,7.364181280E-1,1.077095032E0
4.638080579E2,-1.549674630E0,1.149414062E0,5.880603790E-1
4.643080579E2,-1.509338140E0,1.243399382E0,1.148738861E-1
4.648080579E2,-1.046683908E0,1.006284833E0,4.063577652E-1
4.653080579E2,-9.652996063E-2,7.799329162E-1,-3.728866577E-3
4.658080579E2,7.910560369E-1,1.088073254E0,1.364154816E-1
4.663080579E2,8.571491241E-1,5.192740560E-1,-2.640457153E-1
4.668080579E2,3.156390190E-1,1.914898753E-1,-9.611415863E-2
4.673080579E2,2.748143673E-1,6.027549505E-2,-1.334476471E-2
4.678080579E2,2.879858017E-2,1.076586246E-1,-1.499519348E-1
4.683080579E2,-2.286416292E-1,4.460835457E-2,-1.654319763E-1
4.688080579E2,-5.921707153E-1,1.100532413E-1,1.455478668E-1
4.693080579E2,5.873394012E-2,2.286696434E-2,4.426765442E-2
4.698080579E2,3.453457355E-2,-3.061622381E-2,4.743957520E-2
4.703080579E2,-1.445463896E-1,-1.347044110E-1,-6.092453003E-2
4.708080579E2,-3.742563725E-2,-3.701126575E-2,7.394409180E-2
4.713080579E2,2.426532507E-1,-1.947057247E-2,-3.847694397E-2
4.718080579E2,-3.897070885E-3,6.793439388E-2,1.735210419E-2
4.723080579E2,-4.867470264E-2,-3.092724085E-2,-2.245616913E-2
4.728080579E2,2.849673033E-1,-1.980447769E-2,7.791519165E-3
4.733080579E2,-1.202932596E-1,-4.784703255E-3,-1.284379959E-1
4.738080579E2,1.339471340E-2,4.490613937E-3,-9.160041809E-2
4.743080579E2,1.118381023E-1,-3.262484074E-2,5.358314514E-2
4.748080579E2,1.519525051E-2,-5.670273304E-2,5.124378204E-2
4.753080579E2,8.404254913E-4,-9.701883793E-2,-4.104995728E-2
4.758080579E2,-1.702690125E-2,-8.904540539E-2,8.135032654E-2
4.763080579E2,1.344952583E-1,-7.344937325E-2,5.887126923E-2
4.768080579E2,1.482760906E-1,-3.003871441E-2,1.574516296E-3
4.773080579E2,-6.490993500E-2,6.231760979E-2,4.833030701E-2
4.778080579E2,-1.651525497E-1,1.366865635E-2,-3.870964050E-2
4.783080579E2,8.589029312E-2,6.796109676E-2,3.628072739E-1
4.788080579E2,-6.374901533E-1,1.395534277E-1,-2.310714722E-1
4.793080579E2,2.197084427E-1,1.920294762E-2,-3.434419632E-1
4.798080579E2,-9.654700756E-2,-3.810000420E-2,1.723623276E-1
4.803080579E2,3.051489592E-1,-1.972782612E-2,1.009502411E-1
4.808080579E2,-6.367126703E-1,1.399030685E-1,-5.769729614E-3
4.813080579E2,2.200055122E-2,4.334664345E-2,1.486978531E-1
4.818080579E2,-7.001484632E-1,1.296972036E-1,-1.384258270E-2
4.823080579E2,-6.561446190E-2,-1.318573952E-3,4.280567169E-2
4.828080579E2,-1.360969543E-1,1.265299320E-2,-3.750801086E-3
4.833080579E2,-8.220094442E-2,9.647047520E-2,-1.697320938E-1
4.838080579E2,3.876745701E-3,-2.621638775E-2,-8.618450165E-2
4.843080579E2,6.000000238E-2,6.893092394E-2,1.713685989E-1
4.848080579E2,-5.255585909E-2,-3.768038750E-2,-8.683414459E-1
4.853080579E2,2.917381525E-1,2.452433109E-2,2.473354340E-2
4.858080579E2,-1.101979017E-1,4.595875740E-3,-9.191036224E-2
4.863080579E2,6.373837590E-1,-2.640113831E-1,-1.448755264E-1
4.868080579E2,-2.421325147E-1,3.387826681E-1,6.789541245E-1
4.873080579E2,2.844928503E-1,-3.496718407E-2,-1.174657822E0
4.878080579E2,-3.304362297E-3,7.840692997E-2,1.272877693E0
4.883080579E2,-7.621520758E-2,3.537601829E-1,-4.839820862E-1
4.888080579E2,5.813921690E-1,-2.834486961E-2,-6.990528107E-2
4.893080579E2,1.213554144E-1,7.989633083E-2,1.572341919E-1
4.898080579E2,2.911542654E-1,6.908738613E-2,-7.804775238E-2
4.903080579E2,-2.819418907E-2,1.220381260E-2,4.538822174E-2
4.908080579E2,-8.075988293E-2,4.194140434E-2,-1.078100204E-1
4.913080579E2,5.024325848E-2,3.171741962E-3,-5.912780762E-2
4.918080579E2,-6.433039904E-2,-2.594769001E-3,-4.868602753E-2
4.923080579E2,-3.345537186E-2,-2.212327719E-2,-1.168136597E-1
4.928080579E2,-3.680527210E-2,1.925128698E-2,2.719774246E-1
4.933080579E2,-7.723188400E-2,2.451485395E-2,-1.645555496E-1
4.938080579E2,1.193395853E-1,-5.728477240E-2,1.911830902E-2
4.943080579E2,-7.206118107E-2,2.948158979E-2,-3.808975220E-3
4.948080579E2,4.852020741E-2,3.624767065E-2,-1.749515533E-2
4.953080579E2,2.471668720E-1,-4.114383459E-2,-2.167901993E-1
4.958080579E2,-1.330959797E-1,-5.121189356E-2,1.240758896E-1
4.963080579E2,-6.356513500E-2,-3.635287285E-3,1.039953232E-1
4.968080579E2,1.307554245E-1,-1.042240858E-2,-1.830053329E-1
4.973080579E2,-4.704737663E-2,3.272491693E-2,-1.240682602E-1
4.978080579E2,-1.165578365E-1,1.092994213E-2,-1.608562469E-2
4.983080579E2,5.341410637E-3,-3.786396980E-2,-9.631443024E-2
4.988080579E2,-9.740865231E-2,-4.017531872E-3,-1.252450943E-1
4.993080579E2,-7.018136978E-2,-3.552711010E-2,2.296161652E-2
4.998080579E2,-6.072187424E-2,-9.112524986E-2,-1.402187347E-2
5.003080579E2,3.424012661E-2,-7.712483406E-2,1.100816727E-1
5.008080579E2,-9.854841232E-2,-4.436063766E-2,-4.385185242E-2
5.013080579E2,-1.294398308E-1,-2.685372829E-1,-8.129024506E-2
5.018080579E2,-1.167119145E-1,-2.532012463E-1,1.048994064E-1
5.023080579E2,-4.726469517E-2,-3.679969311E-1,-1.147508621E-1
5.028080579E2,7.618814707E-2,-6.498575211E-2,-1.181697845E-2
5.033080579E2,1.186507940E-2,2.737355232E-2,1.468973160E-1
5.038080579E2,5.445623398E-2,3.197653294E-1,-2.599143982E-1
5.043080579E2,3.120572567E-1,7.521915436E-2,2.701454163E-1
5.048080579E2,8.561623096E-1,6.380844116E-2,-7.265758514E-2
5.053080579E2,1.391527891E0,1.886940002E-2,-3.104400635E-1
5.058080579E2,4.175574780E-1,-3.739452362E-2,1.143455505E-3
5.063080579E2,1.340429783E-1,4.951924086E-1,1.317577362E-1
5.068080579E2,-7.756252289E-1,7.296196222E-1,-2.099514008E-1
5.073080579E2,-1.624174595E0,1.038073063E0,1.015376091E0
5.078080579E2,-1.689595103E0,1.173012376E0,6.192970276E-2
5.083080579E2,-2.053719997E0,1.025667071E0,2.735691071E-1
5.088080579E2,-1.627037883E0,8.179125786E-1,1.895866394E-1
5.093080579E2,-6.301994324E-1,3.970481157E-1,-4.131851196E-1
5.098080579E2,6.990891695E-1,-7.475078106E-1,2.670917511E-1
5.103080579E2,2.607436657E0,1.179729581E0,-1.030632019E0
5.108080579E2,9.242570400E-1,-1.143704176E0,-2.165803909E-1
5.113080579E2,1.545125723E0,2.999975383E-1,-4.129762650E-1
5.118080579E2,8.502740860E-1,6.842079163E-1,-3.386039734E-1
5.123080579E2,1.064261198E0,4.637936354E-1,-2.143192291E-1
5.128080579E2,2.400939465E-1,2.129860520E-1,6.714534760E-2
5.133080579E2,8.963298798E-2,1.821690500E-1,-6.795597076E-2
5.138080579E2,-8.970308304E-2,3.514656425E-2,-8.775615692E-2
5.143080579E2,1.552824974E-1,4.361277819E-2,-6.367588043E-2
5.148080579E2,-1.753363609E-1,-7.975158095E-2,9.665775299E-2
5.153080579E2,1.235692501E-1,4.202625155E-2,-5.215835571E-2
5.158080579E2,-1.209063530E-1,-2.572318912E-2,-1.139688492E-1
5.163080579E2,8.681440353E-2,-1.798042655E-2,1.667346954E-1
5.168080579E2,2.348351479E-2,1.203417778E-3,-7.933044434E-2
5.173080579E2,4.436659813E-2,-1.412957907E-2,4.118442535E-2
5.178080579E2,-1.415402889E-1,-3.300198913E-2,9.188652039E-3
5.183080579E2,4.495835304E-2,-5.295792222E-2,-5.761814117E-2
5.188080579E2,9.629201889E-2,-2.698323131E-2,1.721572876E-2
5.193080579E2,4.424595833E-2,3.040781617E-2,7.400798798E-2
5.198080579E2,-1.344704628E-2,-6.768026948E-2,-1.437807083E-1
5.203080579E2,-6.674695015E-2,-3.486290574E-2,3.323087692E-1
5.208080579E2,1.442742348E-2,1.942932606E-3,-1.696691513E-1
5.213080579E2,-2.789688110E-1,-5.134367943E-2,-3.681278229E-2
5.218080579E2,9.984803200E-2,-2.014213800E-2,-1.521768570E-1
5.223080579E2,-6.053709984E-2,-1.003038883E-2,1.463050842E-1
5.228080579E2,1.196956635E-2,-6.633186340E-2,-7.133483887E-2
5.233080579E2,4.387092590E-2,2.895623446E-3,-4.349040985E-2
5.238080579E2,1.525311470E-1,-2.233356237E-2,-2.041988373E-1
5.243080579E2,2.605195045E-1,-5.792412162E-2,-9.381866455E-2
5.248080579E2,1.393370628E-1,-1.306250691E-2,-3.496265411E-2
5.253080579E2,6.614065170E-2,-6.153407693E-2,-4.940223694E-2
5.258080579E2,1.973261833E-1,9.506171942E-2,-8.229732513E-2
5.263080579E2,-8.238935471E-2,-1.453229785E-2,1.946926117E-2
5.268080579E2,-5.302381516E-2,-3.874614835E-2,2.399682999E-1
5.273080579E2,1.178870201E-1,6.317362189E-2,1.250791550E-1
5.278080579E2,-7.488510609E-1,-2.858987451E-2,1.137542725E-1
5.283080579E2,-8.585596085E-2,3.049007058E-2,-2.916336060E-3
5.288080579E2,-4.690353870E-1,-6.079798937E-2,1.206064224E-1
5.293080579E2,-3.900456429E-2,-3.909260035E-3,1.726951599E-1
5.298080579E2,-8.487725258E-2,4.196500778E-2,-2.537117004E-1
5.303080579E2,1.218416691E-1,3.398236632E-2,1.523609161E-1
5.308080579E2,-1.589529514E-1,-1.190379262E-2,6.866550446E-2
5.313080579E2,2.085621357E-1,-3.026309609E-2,-7.757663727E-2
5.318080579E2,-1.130080223E-2,5.387142301E-2,-3.334522247E-2
5.323080579E2,-6.623888016E-2,-6.275036931E-2,-8.589458466E-2
5.328080579E2,5.846691132E-2,3.608882427E-2,2.390384674E-2
5.333080579E2,1.783299446E-2,5.160540342E-3,-1.383399963E-2
5.338080579E2,2.295677662E-1,5.369740725E-2,-1.133422852E-1
5.343080579E2,6.757855415E-2,2.141392231E-2,-1.644802094E-2
5.348080579E2,-3.521704674E-2,5.884766579E-2,-5.874443054E-2
5.353080579E2,-1.507196426E-1,2.418050170E-2,-1.660594940E-1
5.358080579E2,2.060315609E-1,8.996778727E-2,6.376361847E-2
5.363080579E2,-3.530955315E-2,-4.196661711E-2,-7.624626160E-3
5.368080579E2,-1.588883400E-1,7.636868954E-2,-1.748628616E-1
5.373080579E2,-7.877635956E-2,8.114016056E-2,1.571798325E-1
5.378080579E2,-4.678821564E-1,9.892669320E-2,-1.781473160E-1
5.383080579E2,-2.555727959E-2,7.549881935E-2,3.671836853E-2
5.388080579E2,-2.448482513E-1,6.214097142E-2,1.783084869E-2
5.393080579E2,-1.125919819E-1,-8.677634597E-2,2.308750153E-2
5.398080579E2,-1.096024513E-1,6.031367183E-2,-1.038808823E-1
5.403080579E2,4.376227856E-1,1.335569322E-1,5.953788757E-2
5.408080579E2,-1.085275888E0,4.965247512E-1,4.550838470E-1
5.413080579E2,1.061895132E0,7.466320992E-1,1.123075485E-1
5.418080579E2,-7.314620018E-1,1.870554984E-1,1.050861359E0
5.423080579E2,-1.447284222E-1,1.731252670E-1,3.800640106E-1
5.428080579E2,1.356644630E-1,3.450059891E-2,-1.393175125E-1
5.433080579E2,5.157756805E-2,-3.095028400E-1,4.737281799E-1
5.438080579E2,-4.962940216E-1,-1.742188931E-1,5.840320587E-1
5.443080579E2,-5.326101780E-1,-4.434633255E-1,-5.769920349E-1
5.448080579E2,7.441020012E-2,-2.656352520E-1,6.453733444E-1
5.453080579E2,-3.608930111E-1,-3.645724058E-1,-1.466970444E-1
5.458080579E2,1.189637184E-2,-6.242585182E-2,2.107124329E-1
5.463080579E2,-1.521389484E-1,-1.036260128E-1,-5.690479279E-2
5.468080579E2,-1.462483406E-2,-7.394909859E-2,2.269029617E-1
5.473080579E2,8.085727692E-3,1.385462284E-1,1.207828522E-2
5.478080579E2,-1.130790710E-1,-9.233355522E-2,-1.492738724E-1
5.483080579E2,-7.385277748E-2,-1.204729080E-2,3.360586166E-1
5.488080579E2,-1.158267260E-1,-8.927583694E-3,7.210445404E-2
5.493080579E2,-1.146851778E-1,-1.391441822E-1,1.039009094E-1
5.498080579E2,5.115079880E-2,9.400343895E-2,-2.136516571E-2
5.503080579E2,5.555763245E-1,-1.655960083E-2,-1.405735016E-1
5.508080579E2,-1.773964167E-1,-3.674721718E-2,-1.680469513E-2
5.513080579E2,9.650897980E-2,7.957565784E-2,-1.175212860E-1
5.518080579E2,7.252049446E-2,-7.188582420E-2,6.354904175E-2
5.523080579E2,-1.572566032E-1,-5.540680885E-2,1.703538895E-1
5.528080579E2,-1.133832932E-1,4.041004181E-2,5.589389801E-2
5.533080579E2,-4.238069057E-2,-2.952146530E-2,-1.952838898E-2
5.538080579E2,3.374505043E-2,3.786730766E-2,-3.960227966E-2
5.543080579E2,-5.663323402E-2,-3.969144821E-2,-1.576576233E-1
5.548080579E2,3.516745567E-2,1.785874367E-2,1.643466949E-2
5.553080579E2,-4.856598377E-2,-1.998400688E-2,-3.980255127E-2
5.558080579E2,-1.667940617E-2,4.415941238E-2,7.355022430E-2
5.563080579E2,5.214095116E-2,-6.926441193E-2,1.167593002E-1
5.568080579E2,-5.026543140E-2,4.588842392E-3,2.481985092E-1
5.573080579E2,3.294360638E-2,-1.682448387E-2,-1.283578873E-1
5.578080579E2,-1.181452274E-1,-1.936316490E-2,-1.266002655E-2
5.583080579E2,1.233434677E-2,7.590055466E-3,5.550670624E-2
5.588080579E2,2.491462231E-2,5.827665329E-3,4.122562408E-1
5.593080579E2,-3.553991318E-1,6.604671478E-3,-5.791206360E-1
5.598080579E2,6.264269352E-2,4.956221581E-2,6.138801575E-3
5.603080579E2,1.431858540E-2,1.556563377E-2,-3.056335449E-1
5.608080579E2,3.769087791E-2,-2.286744118E-2,1.037626266E-1
5.613080579E2,6.346368790E-2,4.792952538E-2,-6.259059906E-2
5.618080579E2,-4.762291908E-2,5.486965179E-3,1.045379639E-1
5.623080579E2,-2.011048794E-2,-2.305984497E-2,-1.630878448E-2
5.628080579E2,9.678125381E-3,-4.313540459E-2,8.851528168E-2
5.633080579E2,-2.403436899E-1,-1.616549492E-2,-3.031568527E-1
5.638080579E2,2.030813694E-1,8.716368675E-2,-3.546428680E-2
5.643080579E2,1.484918594E-2,-6.450390816E-2,-6.888389587E-2
5.648080579E2,-1.107846498E-1,-1.418066025E-2,1.539564133E-1
5.653080579E2,-9.964513779E-2,-1.993823051E-2,-1.654586792E-1
5.658080579E2,-8.173072338E-2,6.506299973E-2,-1.793031693E-1
5.663080579E2,9.872925282E-2,-9.101271629E-2,2.034378052E-1
5.668080579E2,-6.653726101E-1,-6.704354286E-2,-7.072429657E-1
5.673080579E2,7.470356226E-1,2.216995955E-1,-2.276306152E-1
5.678080579E2,-5.520610809E-1,-5.779147148E-2,8.068084717E-3
5.683080579E2,2.091684341E-1,1.821036339E-1,-6.956987381E-1
5.688080579E2,1.174434423E-1,8.397340775E-3,-4.856681824E-2
5.693080579E2,-1.228071451E-1,-5.324816704E-2,-2.133741379E-1
5.698080579E2,1.667370796E-1,7.139039040E-2,3.996181488E-2
5.703080579E2,3.047120571E-2,-1.459622383E-2,2.531147003E-2
5.708080579E2,1.148034334E-1,-2.956438065E-2,6.704711914E-2
5.713080579E2,-6.465053558E-2,-4.873585701E-2,3.032016754E-2
5.718080579E2,-1.673353910E-1,2.873587608E-2,-4.878711700E-2
5.723080579E2,1.061437130E-1,4.736733437E-2,-3.613567352E-2
5.728080579E2,-7.132685184E-2,6.296992302E-2,-1.847343445E-1
5.733080579E2,1.418410540E-1,1.196360588E-2,8.268547058E-2
5.738080579E2,-2.563203573E-1,-8.632993698E-2,-3.274726868E-2
5.743080579E2,6.065428257E-2,-1.453876495E-3,-3.935632706E-1
5.748080579E2,-6.448376179E-2,-2.507710457E-2,1.513519287E-1
5.753080579E2,1.623785496E-2,-1.314783096E-2,-1.558389664E-1
5.758080579E2,2.015140057E-1,3.545379639E-2,-1.190347672E-1
5.763080579E2,-1.399731636E-2,7.231950760E-3,9.016513824E-2
5.768080579E2,2.598619461E-2,-7.654738426E-2,9.744834900E-2
5.773080579E2,6.568090916E-1,1.003944874E-1,-1.160631180E-1
5.778080579E2,6.322503090E-2,-3.359389305E-2,5.035305023E-2
5.783080579E2,9.198904037E-3,-3.579068184E-2,4.940128326E-2
5.788080579E2,-3.260731697E-2,5.972218513E-2,-9.381198883E-2
5.793080579E2,-9.479451180E-2,-5.264282227E-4,-3.176593781E-2
5.798080579E2,-8.390808105E-2,-8.545398712E-3,-5.147075653E-2
5.803080579E2,9.255719185E-2,-2.416205406E-2,-7.273674011E-3
5.808080579E2,-4.845857620E-2,6.484270096E-3,6.081581116E-3
5.813080579E2,-9.612464905E-2,-4.855728149E-2,1.103343964E-1
5.818080579E2,-2.647322416E-1,-1.320099831E-2,1.052865982E-1
5.823080579E2,-2.372711897E-1,-7.576990128E-2,-6.460762024E-2
5.828080579E2,-3.522408009E-2,3.959774971E-2,-1.083087921E-2
5.833080579E2,-2.989530563E-3,-4.597902298E-3,-2.766017914E-1
5.838080579E2,-6.341147423E-2,-3.952074051E-2,-2.937221527E-2
5.843080579E2,4.924309254E-2,3.727030754E-2,2.435398102E-2
5.848080579E2,2.907812595E-2,3.989911079E-2,4.519844055E-2
5.853080579E2,7.062554359E-3,-9.552431107E-2,-6.888389587E-2
5.858080579E2,-1.187032461E-1,1.051185131E-1,-2.656946182E-1
5.863080579E2,-8.456408978E-2,-1.215684414E-1,6.569862366E-3
5.868080579E2,-2.166670561E-1,4.357576370E-3,-4.268484116E-1
5.873080579E2,3.202095032E-1,1.244878769E-1,-3.269653320E-1
5.878080579E2,4.312765598E-2,-1.327347755E-2,1.506013870E-1
5.883080579E2,8.926284313E-2,6.677627563E-3,-9.877777100E-2
5.888080579E2,-1.226902008E-1,-3.887653351E-3,8.931446075E-2
5.893080579E2,7.370638847E-2,-1.225543022E-2,1.089849472E-1
5.898080579E2,-1.498761177E-1,-9.330391884E-2,8.130550385E-2
5.903080579E2,3.804421425E-2,3.768777847E-2,1.276159286E-1
5.908080579E2,4.329550266E-2,-8.485317230E-4,-1.107587814E-1
5.913080579E2,-2.140449286E-1,-1.072571278E-1,6.116199493E-2
5.918080579E2,2.114499807E-1,-1.041965485E-1,-1.145820618E-1
5.923080579E2,3.090941906E-2,-1.044988632E-3,1.255798340E-2
5.928080579E2,-1.076931953E-1,-3.620100021E-2,-2.366323471E-1
5.933080579E2,-6.313621998E-2,-5.314445496E-2,6.537437439E-3
5.938080579E2,1.309489012E-1,3.466629982E-2,1.697893143E-1
5.943080579E2,9.808647633E-2,-1.109313965E-2,-3.574371338E-3
5.948080579E2,1.650059223E-2,5.562639236E-2,1.045160294E-1
5.953080579E2,6.239998341E-2,-3.020429611E-2,1.963710785E-2
5.958080579E2,-1.098543406E-1,-5.375790596E-2,-4.005432129E-5
5.963080579E2,7.273674011E-2,-4.394054413E-3,-3.477001190E-2
5.968080579E2,-1.653194427E-3,-7.306575775E-3,5.898666382E-2
5.973080579E2,9.536588192E-2,-7.180929184E-3,-4.639625549E-3
5.978080579E2,-1.177008152E-1,-1.375269890E-2,4.398727417E-2
5.983080579E2,1.224743128E-1,1.929497719E-2,-1.057729721E-1
5.988080579E2,-1.220217943E-1,-9.975218773E-2,6.634902954E-2
5.993080579E2,1.338530779E-1,-4.475522041E-2,6.542110443E-2
5.998080579E2,6.088137627E-2,-3.453128338E-1,-7.405376434E-2
6.003080579E2,1.566525698E-1,-1.612327099E-1,7.373142242E-2
6.008080579E2,-2.376112938E-1,-6.110763550E-2,1.094579697E-1
6.013080579E2,3.238232136E-1,5.041718483E-2,-2.230882645E-1
6.018080579E2,-5.669653416E-2,2.498960495E-2,8.745956421E-2
6.023080579E2,-6.405091286E-2,1.999711990E-2,-2.332792282E-1
6.028080579E2,1.364805698E-1,-2.402544022E-3,9.915447235E-2
6.033080579E2,-2.253013849E-1,-2.705030441E-1,-1.776590347E-1
6.038080579E2,6.295442581E-3,-1.543996334E-1,9.837055206E-2
6.043080579E2,-1.720846891E-1,7.739210129E-2,6.683826447E-2
6.048080579E2,-9.236574173E-3,1.892113686E-2,1.410760880E-1
6.053080579E2,1.402103901E-1,-2.483015060E-1,-5.852699280E-3
6.058080579E2,-1.954972744E-2,-3.462409973E-2,-1.183729172E-1
6.063080579E2,4.104912281E-2,1.277613640E-2,1.981821060E-1
6.068080579E2,1.856720448E-2,2.220201492E-2,5.431461334E-2
6.073080579E2,-1.223552227E-2,7.575297356E-2,-2.673053741E-2
6.078080579E2,-2.399753332E-1,-1.059823036E-1,1.434354782E-1
6.083080579E2,1.324714422E-1,1.276624203E-1,-1.993255615E-1
6.088080579E2,5.063596964E-1,-3.857722282E-1,-2.546501160E-2
6.093080579E2,1.970922947E-1,1.240956783E-1,3.481292725E-2
6.098080579E2,8.733749390E-2,1.721420288E-1,1.091098785E-2
6.103080579E2,8.658719063E-2,-1.138544083E-1,-7.362651825E-2
6.108080579E2,-5.130530596E-1,5.264387131E-1,2.280149460E-1
6.113080579E2,-4.638648033E-1,5.647704601E-1,4.536285400E-1
6.118080579E2,-1.803593636E-1,7.195051908E-1,2.451925278E-1
6.123080579E2,1.994419098E-2,4.726911783E-1,1.438694000E-1
6.128080579E2,4.317539930E-1,4.074152708E-1,1.520061493E-2
6.133080579E2,9.107279778E-2,-2.974357605E-1,2.953653336E-1
6.138080579E2,1.197942257E0,1.191372871E-1,-3.780889511E-1
6.143080579E2,7.303614616E-1,-2.405513525E-1,-2.346782684E-1
6.148080579E2,1.273246765E0,-1.623070240E-2,-3.089275360E-1
6.153080579E2,1.383308411E0,-1.148531437E-1,-6.135263443E-1
6.158080579E2,1.239786625E0,-1.963120699E-1,-1.176748276E-1
6.163080579E2,1.552990437E0,-6.700735092E-1,-2.169857025E-1
6.168080579E2,7.678771019E-1,-3.158935308E-1,-2.465286255E-1
6.173080579E2,2.843532562E-1,-2.564245462E-1,-3.213624954E-1
6.178080579E2,5.100092888E-1,-7.928287983E-2,-3.746299744E-1
6.183080579E2,-1.229272604E0,9.407520294E-2,-5.383310318E-1
6.188080579E2,-1.095667362E0,-4.260960221E-1,8.686923981E-1
6.193080579E2,-2.373331308E0,-4.225175977E-1,3.892879486E-1
6.198080579E2,-1.296513200E0,-3.329868317E-1,1.153249741E-1
6.203080579E2,-3.080564737E-1,3.114187717E-2,4.791545868E-2
6.208080579E2,-2.933329344E-1,-1.292303801E-1,1.315670013E-1
6.213080579E2,4.331506491E-1,-5.472838879E-2,7.757406235E-1
6.218080579E2,-5.386602879E-2,1.539421082E-2,-3.616819382E-1
6.223080579E2,3.591203690E-1,-2.442182302E-1,7.809076309E-1
6.228080579E2,-2.233322859E-1,-7.784509659E-1,-4.343957901E-1
6.233080579E2,-1.409894228E-1,-4.110239744E-1,1.731348038E-1
6.238080579E2,-8.095777035E-2,-1.498887539E-1,1.976013184E-3
6.243080579E2,-8.530712128E-2,-7.410883904E-2,-1.846437454E-1
6.248080579E2,-1.424869299E-1,-4.634976387E-2,2.351865768E-1
6.253080579E2,1.680189371E-1,2.268004417E-2,-7.998752594E-2
6.258080579E2,-1.923505068E-1,-5.023241043E-3,-4.353523254E-2
6.263080579E2,-1.033510208E0,1.284431219E-1,7.403717041E-1
6.268080579E2,-1.161988735E0,3.146934509E-1,-5.843353271E-2
6.273080579E2,-9.817820787E-1,8.929896355E-2,3.948688507E-1
6.278080579E2,-3.900623322E-1,4.770159721E-2,-3.186225891E-3
6.283080579E2,-3.082269430E-1,-6.669819355E-2,1.096124649E-1
6.288080579E2,-1.087270975E-1,-3.268587589E-2,2.816963196E-2
6.293080579E2,-4.510867596E-2,-8.249127865E-2,6.217956543E-3
6.298080579E2,-6.391108036E-2,-1.481050253E-1,-3.360366821E-2
6.303080579E2,-1.480114460E-1,-1.197884083E-1,8.671760559E-3
6.308080579E2,-1.616553068E-1,-1.789462566E-1,1.572799683E-2
6.313080579E2,1.055730581E-1,-1.011897326E-1,-4.184789658E-1
6.318080579E2,-1.540139914E-1,-1.526160240E-1,5.332279205E-2
6.323080579E2,7.344231606E-1,-2.033487558E-1,-5.521898270E-1
6.328080579E2,-1.010107994E-1,-2.589279413E-1,-1.424789429E-2
6.333080579E2,1.486056447E-1,-1.562297344E-1,-8.035631180E-1
6.338080579E2,1.177364588E0,-1.999464035E-1,-5.297946930E-2
6.343080579E2,3.828588128E-1,-1.485781670E-1,-2.874126434E-1
6.348080579E2,4.191658497E-1,-4.191327095E-2,4.423236847E-2
6.353080579E2,1.847801208E-1,-7.231116295E-3,-1.808729172E-1
6.358080579E2,-5.233973265E-2,-3.749954700E-2,-1.024246216E-3
6.363080579E2,6.013774276E-1,8.408820629E-2,-3.125238419E-1
6.368080579E2,4.188088179E-1,5.030715466E-2,-1.367702484E-1
6.373080579E2,2.529315948E-1,3.696000576E-2,-6.826972961E-2
6.378080579E2,-1.386404037E-4,-4.332876205E-2,1.940183640E-1
6.383080579E2,-1.211959124E-1,-1.289808750E-2,-2.275228500E-1
6.388080579E2,2.288699150E-3,-4.357879162E-1,-3.774547577E-2
6.393080579E2,7.674175501E-2,-1.512713432E-1,4.342269897E-2
6.398080579E2,-2.101975977E-1,-5.697488785E-3,-6.640434265E-3
6.403080579E2,-2.339502871E-1,4.392623901E-3,-1.576290131E-1
6.408080579E2,6.810754538E-2,-6.914496422E-2,8.443546295E-2
6.413080579E2,-2.012745142E-1,-1.799368858E-1,-1.569967270E-1
6.418080579E2,3.209002018E-1,-6.403222084E-1,2.040290833E-2
6.423080579E2,3.716701865E-1,-8.893604279E-1,1.401519775E-2
6.428080579E2,-1.023769975E-1,-8.424522877E-1,-9.460639954E-2
6.433080579E2,-5.963187814E-1,-6.224603653E-1,1.899995804E-1
6.438080579E2,-8.217644691E-2,-3.298935890E-1,1.746816635E-1
6.443080579E2,-4.266953468E-2,1.969277859E-1,-1.205644608E-1
6.448080579E2,5.178761482E-1,1.292449236E0,4.996614456E-1
6.453080579E2,1.773892641E-1,5.783327818E-1,1.271390915E-1
6.458080579E2,1.168862820E0,9.724870920E-1,-2.383670807E-1
6.463080579E2,-1.607531309E-1,2.301449776E-1,1.056051254E-1
6.468080579E2,2.679104805E-1,-2.880129814E-1,8.828830719E-2
6.473080579E2,9.288554192E-1,2.481675148E-2,5.341529846E-3
6.478080579E2,9.095947742E-1,1.856207848E-1,-2.232131958E-1
6.483080579E2,8.063447475E-1,4.962110519E-2,7.076931000E-2
6.488080579E2,4.475677013E-1,-1.881976128E-1,-3.292074203E-1
6.493080579E2,5.973072052E-1,2.010494471E-1,3.270244598E-2
6.498080579E2,7.067098618E-1,1.827542782E-1,-2.185850143E-1
6.503080579E2,4.825029373E-1,2.025145292E-2,-2.056598663E-1
6.508080579E2,-8.623783588E-1,3.674898446E-1,-1.623439789E-2
6.513080579E2,-4.413990974E-1,-4.067915678E-2,-1.627826691E-2
6.518080579E2,-6.327750683E-1,-4.178914428E-1,2.703323364E-1
6.523080579E2,-5.246882439E-1,-1.157394648E-1,1.033916473E-1
6.528080579E2,-1.055202484E-1,-4.417681694E-2,-6.041717529E-2
6.533080579E2,1.179354191E-1,1.962107420E-2,4.074096680E-2
6.538080579E2,-4.572048187E-1,-2.120131254E-1,6.030941010E-2
6.543080579E2,-3.047600985E-1,-2.288824320E-2,8.797550201E-2
6.548080579E2,-4.326796532E-2,-1.963114738E-2,3.733825684E-2
6.553080579E2,-1.947214603E-1,-4.837518930E-2,-2.088308334E-1
6.558080579E2,-9.201300144E-2,-9.300255775E-2,1.589660645E-1
6.563080579E2,1.068683863E-1,-2.784222364E-2,-6.547927856E-3
6.568080579E2,1.076018810E-2,-2.206063271E-2,-7.181835175E-2
6.573080579E2,-2.116558552E-1,-4.384696484E-3,-8.827877045E-2
6.578080579E2,-1.133122444E-1,-2.723920345E-2,-1.048727036E-1
6.583080579E2,-6.964766979E-2,-9.124243259E-2,-1.550111771E-1
6.588080579E2,8.755660057E-2,1.055824757E-2,-3.084850311E-2
6.593080579E2,1.193405390E-1,8.668541908E-3,-1.318836212E-2
6.598080579E2,-2.889817953E-1,2.331209183E-2,-3.810920715E-1
6.603080579E2,-2.149498463E-2,-3.617811203E-2,2.368450165E-1
6.608080579E2,9.066772461E-2,-1.112699509E-3,1.718034744E-1
6.613080579E2,-1.698762178E-1,3.751635551E-2,-7.558155060E-2
6.618080579E2,1.191327572E-1,2.326762676E-2,-1.120958328E-1
6.623080579E2,-1.573094130E-1,-2.326061726E-1,1.960449219E-1
6.628080579E2,3.787090778E-1,-3.555679321E-2,-1.990537643E-1
6.633080579E2,-1.406906843E-1,-2.005181313E-1,7.318496704E-3
6.638080579E2,1.774145365E-1,9.943246841E-4,3.005857468E-1
6.643080579E2,-3.872954845E-2,-1.448210478E-1,-2.307186127E-1
6.648080579E2,7.695555687E-3,-1.631180048E-1,2.072000504E-1
6.653080579E2,-7.399022579E-2,-8.275198936E-2,-2.008447647E-1
6.658080579E2,-1.779818535E-2,-8.328795433E-3,3.572263718E-1
6.663080579E2,-5.237296820E-1,-5.810904503E-2,2.666997910E-1
6.668080579E2,-3.953294158E-1,1.944947243E-2,-4.617786407E-2
6.673080579E2,1.057060063E-1,1.021409035E-2,-4.521179199E-2
6.678080579E2,1.120957136E-1,-5.870068073E-2,1.165380478E-1
6.683080579E2,4.905207157E-1,1.086258888E-2,1.085214615E-1
6.688080579E2,7.075754404E-1,1.686811447E-3,-4.412612915E-1
6.693080579E2,9.764337540E-2,5.323636532E-2,-4.075784683E-1
6.698080579E2,2.994377613E-1,1.027542353E-1,-2.840785980E-1
6.703080579E2,-1.776953936E-1,1.890087128E-2,-7.243442535E-2
6.708080579E2,7.695317268E-2,-4.595208168E-2,4.671001434E-2
6.713080579E2,-3.945553303E-2,-4.770541191E-2,-1.163835526E-1
6.718080579E2,4.522991180E-2,-1.836659908E-1,-4.174137115E-2
6.723080579E2,7.910978794E-2,-1.231653690E-1,4.574775696E-3
6.728080579E2,-1.750538349E-1,1.900033951E-1,1.554937363E-1
6.733080579E2,-1.110464334E-1,8.360004425E-2,-7.915496826E-5
6.738080579E2,-1.185015440E-1,-6.847238541E-2,-1.106071472E-2
6.743080579E2,-7.359516621E-2,-9.581303596E-2,-4.055500031E-2
6.748080579E2,-9.483098984E-2,-2.443418503E-1,-2.581596375E-3
6.753080579E2,1.038582325E-1,-4.103779793E-2,6.241893768E-2
6.758080579E2,-1.571178436E-2,7.251024246E-3,2.285099030E-2
6.763080579E2,7.721316814E-2,2.840170860E-1,4.916381836E-2
6.768080579E2,1.785409451E-2,3.187060356E-2,-4.067897797E-2
6.773080579E2,-6.684768200E-2,-1.959176064E-1,-1.385631561E-1
6.778080579E2,9.203863144E-2,-2.448885441E-1,2.241134644E-3
6.783080579E2,-5.699815154E-1,-4.105224609E-1,2.625341415E-1
6.788080579E2,-5.632167459E-1,9.275441170E-1,2.285833359E-1
6.793080579E2,-9.649643302E-1,1.261822462E0,1.867151260E-1
6.798080579E2,-3.984451294E-1,8.210271597E-1,-2.645778656E-2
6.803080579E2,-4.926190376E-1,2.270718813E-1,2.947187424E-1
6.808080579E2,-2.383294106E-1,6.000330448E-1,-2.186660767E-1
6.813080579E2,-1.024414539E0,8.325476050E-1,2.483196259E-1
6.818080579E2,-6.162910461E-1,1.916141510E-1,-3.571720123E-1
6.823080579E2,-9.199405909E-1,7.527136803E-2,-1.245737076E-1
6.828080579E2,-3.543143272E-1,-6.941759586E-2,1.201925278E-1
6.833080579E2,-2.874567509E-1,4.918992519E-3,-2.114686966E-1
6.838080579E2,-8.576631546E-3,-1.346716285E-1,-3.026819229E-1
6.843080579E2,1.298851490E0,-3.473637104E-1,6.410503387E-2
6.848080579E2,1.080152273E0,-2.795736492E-1,1.066843033E0
6.853080579E2,1.118277073E0,-3.207761049E-1,-5.770835876E-1
6.858080579E2,1.581040621E0,-4.447071552E-1,-2.120494843E-1
6.863080579E2,5.680928230E-1,-1.133089066E-1,-1.674985886E-1
6.868080579E2,3.681005239E-1,-2.471091747E-1,4.796695709E-2
6.873080579E2,5.478918552E-2,1.756989956E-2,-3.790864944E-1
6.878080579E2,-3.688814640E-1,6.610596180E-2,1.874294281E-1
6.883080579E2,-6.170966029E-1,5.103230476E-3,-2.186851501E-1
6.888080579E2,-4.645104706E-1,7.638514042E-2,3.251342773E-1
6.893080579E2,6.725597382E-2,-4.035913944E-2,7.541561127E-2
6.898080579E2,9.667176008E-2,1.983880997E-3,6.053256989E-2
6.903080579E2,7.910120487E-2,-2.172267437E-2,3.654823303E-1
6.908080579E2,2.024463415E-1,-1.042478085E-1,-3.819198608E-1
6.913080579E2,3.824428320E-1,-7.405781746E-2,-1.450376511E-1
6.918080579E2,1.062957048E-1,-7.075524330E-2,-1.117715836E-1
6.923080579E2,-1.327869892E-1,-3.127940893E-1,-1.206865311E-1
6.928080579E2,1.776791811E-1,-2.147250175E-1,9.144115448E-2
6.933080579E2,-3.935294151E-1,-2.978444099E-3,-2.922153473E-1
6.938080579E2,-2.605794072E-1,-5.020856857E-3,1.168184280E-1
6.943080579E2,-1.105402708E-1,-3.011298180E-2,-1.846532822E-1
6.948080579E2,1.388256550E-1,-7.116317749E-2,3.293657303E-1
6.953080579E2,1.540350914E-2,-1.388623714E-1,1.803369522E-1
6.958080579E2,1.272569895E-1,-1.334674358E-1,-7.110977173E-2
6.963080579E2,3.799500465E-1,8.769726753E-2,1.045246124E-1
6.968080579E2,-3.264517784E-1,-7.546806335E-2,8.952331543E-2
6.973080579E2,-4.798508883E-1,-9.457826614E-3,1.886320114E-1
6.978080579E2,-2.384130359E-1,-5.537474155E-2,-1.179132462E-1
6.983080579E2,-4.530640841E-1,-3.913760185E-2,2.153396606E-2
6.988080579E2,1.466480643E-1,3.945350647E-3,-5.730152130E-2
6.993080579E2,-9.800855815E-2,5.733072758E-2,-3.444738388E-1
6.998080579E2,6.146994233E-2,-4.291391373E-2,9.356021881E-2
7.003080579E2,4.152056575E-1,-4.445409775E-2,4.329681396E-2
7.008080579E2,-2.398175001E-2,-6.870508194E-3,-1.215076447E-2
7.013080579E2,-2.649807930E-1,-8.754277229E-2,2.553749084E-2
7.018080579E2,1.837002337E-1,-7.232062817E-1,1.888246536E-1
7.023080579E2,-3.375682235E-2,-2.114984989E-1,-7.237815857E-2
7.028080579E2,-8.710190654E-2,-1.784222126E-1,-2.547731400E-1
7.033080579E2,8.272162080E-2,-9.152960777E-2,3.122615814E-2
7.038080579E2,-1.532813907E-2,-1.364350319E-1,1.568183899E-1
7.043080579E2,-1.193508506E-2,-4.896998405E-2,-3.131437302E-1
7.048080579E2,1.647868454E-1,-3.665556908E-1,-2.784080505E-1
7.053080579E2,-7.221780717E-2,-2.554059029E-1,1.615095139E-1
7.058080579E2,-1.773609817E-1,-2.040493488E-1,2.112016678E-1
7.063080579E2,-1.278719008E-1,-3.923711777E-1,-1.685037613E-1
7.068080579E2,-5.260879397E-1,-3.061392307E-1,7.923126221E-3
7.073080579E2,-8.827771246E-2,2.648591995E-3,-4.843997955E-2
7.078080579E2,8.288087696E-2,6.164622307E-2,3.802776337E-2
7.083080579E2,-6.974063814E-3,1.104187965E-1,1.730356216E-1
7.088080579E2,-4.605128616E-2,1.430032253E-1,-2.779579163E-2
7.093080579E2,-1.062615961E-2,-3.184151649E-2,2.832412720E-3
7.098080579E2,-5.842438340E-2,-2.557849884E-2,-7.368183136E-2
7.103080579E2,3.521516174E-2,4.459857941E-3,4.633808136E-2
7.108080579E2,3.553367555E-1,9.601422548E-1,3.433198929E-1
7.113080579E2,-7.560968399E-3,1.032792807E0,1.485710144E-1
7.118080579E2,-2.531188726E-2,2.109200954E-1,3.650188446E-2
7.123080579E2,1.712172329E-1,3.164721727E-1,1.786050797E-1
7.128080579E2,1.417009234E-1,-2.650737762E-2,4.110431671E-2
7.133080579E2,1.408360302E-1,-2.916908264E-2,-4.138469696E-2
7.138080579E2,-5.052563548E-2,1.376318932E-2,-3.210353851E-2
7.143080579E2,2.551089227E-1,3.838634491E-2,-5.055904388E-2
7.148080579E2,8.596354723E-2,-3.443217278E-2,-3.111839294E-3
7.153080579E2,-2.137552351E-1,-7.312130928E-2,-2.578449249E-2
7.158080579E2,-1.151192561E-2,-2.404904366E-2,4.757881165E-3
7.163080579E2,-5.533550680E-2,7.394552231E-3,-1.273441315E-2
7.168080579E2,4.821471125E-2,6.282806396E-3,7.981586456E-2
7.173080579E2,2.497356012E-2,1.293873787E-2,4.074573517E-2
7.178080579E2,-5.903850123E-2,7.983446121E-3,1.167106628E-2
7.183080579E2,4.570818320E-2,-4.266738892E-3,-2.904129028E-2
7.188080579E2,-1.101226732E-2,-8.842945099E-4,5.715370178E-3
7.193080579E2,-6.892874837E-3,1.825809479E-3,7.972717285E-4
7.198080579E2,1.705959439E-2,-1.995086670E-3,-5.521774292E-4
7.203080579E2,4.351692647E-2,-6.554603577E-3,-1.017475128E-2
7.208080579E2,-5.590324104E-2,8.764529228E-2,9.098243713E-2
7.213080579E2,5.739320070E-2,4.321058989E-1,6.671142578E-2
7.218080579E2,1.244490743E-1,4.291344881E-1,1.004343033E-1
7.223080579E2,-5.671126768E-2,4.725146294E-2,-1.657581329E-2
7.228080579E2,-1.517613232E-1,-1.266591549E-1,-3.171634674E-2
7.233080579E2,-1.258972883E-1,1.947391033E-2,6.904125214E-2
7.238080579E2,-1.647093296E-1,6.865513325E-2,-7.658863068E-2
7.243080579E2,-1.343647987E-1,4.333961010E-2,-7.397365570E-2
7.248080579E2,3.939175606E-2,-1.142108440E-2,2.812099457E-2
7.253080579E2,-1.334978938E-1,-1.908648014E-2,1.256456375E-1
7.258080579E2,2.217720300E-1,2.623777986E-1,-3.285884857E-2
7.263080579E2,3.790700436E-2,-4.696445465E-1,9.178543091E-2
7.268080579E2,2.842443883E-1,1.902306676E-1,5.788421631E-2
7.273080579E2,2.707809210E-2,6.151503325E-2,6.270408630E-3
7.278080579E2,-3.878909349E-2,1.761942506E-1,-2.792263031E-2
7.283080579E2,1.567249894E-1,-3.388913870E-1,-1.216220856E-2
7.288080579E2,7.241863012E-2,8.378505707E-3,-1.678390503E-1
7.293080579E2,3.053712845E-1,-1.326673031E-1,-2.425355911E-1
7.298080579E2,-3.232385516E-1,-8.207523823E-2,-1.364793777E-1
7.303080579E2,-3.182153702E-1,-1.212441921E-1,7.612228394E-3
7.308080579E2,-3.508501500E-2,-1.703548431E-2,-5.473423004E-2
7.313080579E2,1.578979194E-3,-3.857907057E-1,-1.120996475E-1
7.318080579E2,2.733252198E-2,-1.818244457E-1,2.256870270E-2
7.323080579E2,-1.990535855E-1,-9.432387352E-2,1.058578491E-4
7.328080579E2,1.831219196E-1,3.667759895E-2,-1.366004944E-1
7.333080579E2,6.489834785E-1,-8.487010002E-2,-3.046512604E-2
7.338080579E2,3.972402215E-1,-7.615828514E-2,4.139947891E-1
7.343080579E2,8.446574211E-2,2.378652096E-1,-5.732936859E-1
7.348080579E2,-1.042109013E0,2.088339329E-1,2.230739594E-1
7.353080579E2,-1.006017208E0,-5.596709251E-2,-2.791500092E-2
7.358080579E2,-8.595772982E-1,-9.633612633E-2,1.119403839E0
7.363080579E2,-1.504622936E0,9.995317459E-2,-3.160657883E-1
7.368080579E2,-1.515553951E0,1.764702797E-1,-1.577682495E-1
7.373080579E2,-5.324430466E-1,1.914389133E-1,-3.214569092E-1
7.378080579E2,-3.968521655E-1,-2.955150604E-1,5.521469116E-1
7.383080579E2,1.092162848E0,-2.014062405E-1,9.032459259E-1
7.388080579E2,9.073988199E-1,5.824035406E-1,-1.312179565E-1
7.393080579E2,1.465901613E0,2.869362831E-1,3.928108215E-1
7.398080579E2,1.084959269E0,3.821158409E-1,6.396265030E-1
7.403080579E2,1.350620985E-1,3.718250990E-1,1.770114899E-1
7.408080579E2,5.823175311E-1,2.497704029E-1,4.641151428E-2
7.413080579E2,-5.783750862E-2,1.227461100E-1,-2.038345337E-1
7.418080579E2,2.574612200E-1,-6.459927559E-2,7.642078400E-2
7.423080579E2,-3.896670043E-2,-1.956684589E-1,4.907894135E-2
7.428080579E2,-3.025637865E-1,-6.411647797E-2,7.598524094E-1
7.433080579E2,1.133852959E0,3.644943237E-3,-9.845352173E-2
7.438080579E2,3.246723413E-1,-2.065467834E-2,-1.341323853E-1
7.443080579E2,-7.320078462E-2,-4.898691177E-2,-8.426284790E-2
7.448080579E2,-4.558682442E-3,-1.610538960E-1,1.271762848E-1
7.453080579E2,9.654363990E-2,-3.287560940E-1,9.460906982E-1
7.458080579E2,2.802764773E-1,1.818935871E-1,-1.123723030E0
7.463080579E2,1.614348292E-1,9.474802017E-2,-2.075872421E-1
7.468080579E2,1.597556472E-2,-6.339693069E-2,1.037111282E-1
7.473080579E2,-1.050009429E-1,-6.316637993E-2,-4.771804810E-1
7.478080579E2,-5.373868346E-2,-1.828598976E-2,1.797437668E-1
7.483080579E2,9.893393517E-2,1.827483177E-1,-3.573484421E-1
7.488080579E2,-1.541674137E-4,-1.857044697E-1,-4.560756683E-2
7.493080579E2,-4.125890732E-1,-7.896685600E-2,4.415168762E-1
7.498080579E2,9.481418133E-2,1.463420391E-1,-2.857770920E-1
7.503080579E2,-5.732893944E-2,2.671360970E-2,-1.178741455E-3
7.508080579E2,-1.191248000E-1,-6.089305878E-2,4.432649612E-1
7.513080579E2,6.208122969E-1,3.105351925E-1,-1.559493065E0
7.518080579E2,-2.065584064E-1,-7.447557449E-1,-5.817632675E-1
7.523080579E2,-1.242669523E-1,-7.006323338E-1,-4.218683243E-1
7.528080579E2,-3.718361855E-1,-3.841781616E-1,-4.425144196E-2
7.533080579E2,-3.658519387E-1,-1.512870789E-1,7.059192657E-2
7.538080579E2,4.856539071E-1,1.495153904E-1,-6.830787659E-2
7.543080579E2,1.328211427E-1,-8.192467690E-2,6.723403931E-3
7.548080579E2,8.769956827E-1,5.419542789E-1,-3.321657181E-1
7.553080579E2,9.349896908E-1,6.799397469E-1,1.699542999E-2
7.558080579E2,9.569885731E-1,6.257646084E-1,-3.324508667E-2
7.563080579E2,7.632613182E-1,8.664194345E-1,-6.074905396E-3
7.568080579E2,3.112604618E-1,1.290646076E0,1.360559464E-1
7.573080579E2,5.320565701E-1,1.396342754E0,-2.688903809E-1
7.578080579E2,-5.346742868E-1,7.507839799E-1,3.702135086E-1
7.583080579E2,-9.444333315E-1,6.192950010E-1,7.810096741E-1
7.588080579E2,-8.092375994E-1,6.945977211E-1,1.007318497E-1
7.593080579E2,-3.090279102E-1,3.617254198E-1,2.341680527E-1
7.598080579E2,-1.439243555E-1,7.037684321E-2,-7.760334015E-2
7.603080579E2,1.014008522E-1,5.817925930E-2,-3.051090240E-2
7.608080579E2,-6.111729145E-2,-3.108816743E-1,-1.328754425E-2
7.613080579E2,3.773993254E-1,1.849113703E-1,1.656436920E-2
7.618080579E2,-8.696787357E-1,-6.719697118E-1,-2.485189438E-1
7.623080579E2,-6.201857328E-1,-6.646165848E-1,-1.162652969E-1
7.628080579E2,4.105418921E-1,-2.134159803E-1,-9.650802612E-2
7.633080579E2,3.694546223E-2,-4.058670402E-1,4.251098633E-2
7.638080579E2,1.780509949E-3,-2.506478429E-1,-2.842626572E-1
7.643080579E2,-1.926004291E-1,-4.270548820E-1,2.881336212E-2
7.648080579E2,9.405720234E-2,1.602630019E-1,-3.291797638E-2
7.653080579E2,-5.143880844E-2,1.489137709E-1,-1.664257050E-1
7.658080579E2,-1.051656008E-1,2.719148993E-2,-1.364736557E-1
7.663080579E2,8.090209961E-1,1.213694364E-1,-3.147764206E-1
7.668080579E2,7.853894234E-1,3.531551957E-1,3.450737000E-1
7.673080579E2,7.722227573E-1,1.377508998E0,-4.910688400E-1
7.678080579E2,1.809647083E-1,6.320900917E-1,-2.661094666E-1
7.683080579E2,9.809126854E-1,4.569736421E-1,-5.780076981E-1
7.688080579E2,1.211131573E0,4.268506169E-1,-5.280513763E-1
7.693080579E2,4.061326981E-1,5.083528161E-1,1.429271698E-1
7.698080579E2,-7.777643204E-2,5.130578876E-1,5.377197266E-2
7.703080579E2,-1.101464748E0,4.737522602E-1,3.195266724E-1
7.708080579E2,-6.271828413E-1,2.612701654E-1,5.124759674E-2
7.713080579E2,-3.086572289E-1,1.687351465E-1,1.068878174E-2
7.718080579E2,-2.186071277E-1,7.607936859E-4,-1.457605362E-1
7.723080579E2,-6.947004795E-2,-1.953232288E-2,1.847095490E-1
7.728080579E2,-3.629332781E-2,-1.792184114E-1,-2.168502808E-1
7.733080579E2,2.266724110E-1,-8.578062057E-3,-1.163768768E-2
7.738080579E2,-1.744101048E-1,-7.881569862E-2,1.837892532E-1
7.743080579E2,1.845376492E-1,-1.378552914E-1,-1.005430222E-1
7.748080579E2,-2.953166366E-1,-9.043157101E-2,1.266012192E-1
7.753080579E2,2.180445194E-2,4.245424271E-2,-6.037988663E-1
7.758080579E2,1.135661602E-1,1.423252821E-1,-1.727952957E-1
7.763080579E2,-1.806799769E-1,-1.521838903E-1,-2.279939651E-1
7.768080579E2,2.814470530E-1,-5.542246103E-1,2.373132706E-1
7.773080579E2,5.784857273E-2,-4.976364076E-1,-7.545022964E-1
7.778080579E2,5.205377936E-1,-2.493877709E-1,5.107450485E-1
7.783080579E2,-3.897978663E-1,-3.852164745E-1,-5.344390869E-3
7.788080579E2,1.203403473E-1,-2.391183078E-1,7.200145721E-2
7.793080579E2,1.650207639E-1,-1.627067775E-1,1.321563721E-1
7.798080579E2,-8.587539196E-3,-2.777086496E-1,-1.262311935E-1
7.803080579E2,-4.714191258E-1,-7.288994789E-1,2.963066101E-3
7.808080579E2,-9.235513210E-2,4.522857368E-1,-3.473882675E-1
7.813080579E2,-8.346331120E-2,5.754659176E-1,6.378726959E-1
7.818080579E2,3.931039572E-2,-1.525367349E-1,-3.414726257E-2
7.823080579E2,-2.180695534E-2,-2.688263953E-1,2.220201492E-1
7.828080579E2,9.271103144E-2,-4.367857575E-1,6.954479218E-2
7.833080579E2,-3.925317526E-2,-1.302677393E-1,-1.034698486E-1
7.838080579E2,-9.399521351E-2,9.289181828E-1,1.588439941E-1
7.843080579E2,1.937300563E-1,6.774522066E-1,-2.949371338E-1
7.848080579E2,7.883719206E-1,6.252315640E-1,-1.422519684E-1
7.853080579E2,4.317672253E-1,1.306540251E0,-1.928825378E-1
7.858080579E2,8.305931091E-1,8.766894937E-1,-1.604719162E-1
7.863080579E2,1.343583822E0,9.935150146E-1,-2.214698792E-1
7.868080579E2,4.163641930E-1,4.320861101E-1,6.484127045E-2
7.873080579E2,-4.146289825E-2,3.726190925E-1,-5.771923065E-2
7.878080579E2,-2.683435678E-1,2.693471313E-1,-1.400899887E-1
7.883080579E2,-5.732288957E-1,6.955003738E-2,3.900356293E-1
7.888080579E2,-1.369406581E0,-3.532087803E-2,2.078962326E-1
7.893080579E2,-5.183048248E-1,-7.662588358E-2,2.854795456E-1
7.898080579E2,-1.421277761E0,-4.911578298E-1,5.001420975E-1
7.903080579E2,-5.346495509E-1,-4.914306998E-1,-1.278305054E-1
7.908080579E2,-2.957220078E-1,-4.678168297E-1,1.289262772E-1
7.913080579E2,1.182052493E-1,-8.410115838E-1,9.073925018E-2
7.918080579E2,-1.011008024E-2,-7.599331737E-1,1.847553253E-2
7.923080579E2,1.809638739E-2,-1.586755812E-1,7.094478607E-2
7.928080579E2,-7.366943359E-2,-5.802696943E-2,-9.859943390E-2
7.933080579E2,8.764100075E-2,6.544637680E-2,-3.538227081E-2
7.938080579E2,-1.259572804E-1,-3.305609226E-1,2.780523300E-1
7.943080579E2,-1.265538931E-1,-7.412761450E-1,-3.095922470E-1
7.948080579E2,1.279882193E-1,-6.492127180E-1,-1.428031921E-2
7.953080579E2,-3.966650665E-1,-3.120071888E-1,-1.384620667E-1
7.958080579E2,-3.905129731E-1,-2.330248356E-1,-1.369371414E-1
7.963080579E2,-2.535451949E-1,9.601044655E-2,1.540555954E-1
7.968080579E2,-9.893999994E-2,-2.036533356E-1,-5.968475342E-2
7.973080579E2,-1.328938454E-1,-7.393743992E-1,-1.964931488E-1
7.978080579E2,8.329015970E-2,-8.012390137E-2,-3.993034363E-3
7.983080579E2,7.700136304E-2,6.926608086E-2,-6.955528259E-2
7.988080579E2,2.374722660E-1,2.551898956E-1,9.892463684E-3
7.993080579E2,4.132986069E-3,1.484346390E-1,1.078672409E-1
7.998080579E2,-6.883378327E-2,-6.186366081E-2,-3.423404694E-2
8.003080579E2,-4.571653903E-2,-2.223706245E-2,5.002498627E-2
8.008080579E2,-3.051072359E-2,8.081805706E-1,1.202678680E-2
8.013080579E2,1.794553250E-1,1.076722741E0,2.336645126E-1
8.018080579E2,5.878457427E-2,3.748992085E-1,-2.690982819E-2
8.023080579E2,8.278629184E-2,2.363372445E-1,4.625225067E-2
8.028080579E2,-6.576150656E-3,5.635321140E-2,1.786327362E-2
8.033080579E2,-5.187071487E-2,1.589822769E-2,1.702594757E-2
8.038080579E2,-4.133209586E-2,1.844120026E-2,-3.712081909E-2
8.043080579E2,-2.671341598E-2,-1.061344147E-2,-6.711959839E-3
8.048080579E2,2.316549420E-3,-2.600312233E-3,1.639842987E-2
8.053080579E2,9.082928300E-3,1.926779747E-3,2.102851868E-3
8.058080579E2,2.800345421E-3,-7.061243057E-3,2.231597900E-3
8.063080579E2,3.201274574E-2,1.724958420E-3,-5.922889709E-2
8.068080579E2,-2.775010467E-2,1.778805256E-2,1.511096954E-2
8.073080579E2,-1.733410358E-2,-1.737773418E-2,-1.836776733E-3
8.078080579E2,2.116550505E-2,-1.276254654E-2,-1.334190369E-3
8.083080579E2,-3.125271201E-2,1.912236214E-3,1.631832123E-2
8.088080579E2,3.949359059E-3,4.030869007E-1,3.187370300E-2
8.093080579E2,9.081798047E-2,1.233493209E0,2.117710114E-1
8.098080579E2,4.000036418E-2,6.644049883E-1,2.888584137E-2
8.103080579E2,3.776471317E-2,7.001414895E-2,-2.809715271E-2
8.108080579E2,-8.442686498E-2,-3.332170844E-2,1.681995392E-2
8.113080579E2,-1.564019918E-2,-7.841289043E-2,-3.202915192E-2
8.118080579E2,-2.236312628E-2,1.444973797E-1,3.588390350E-2
8.123080579E2,-4.144589901E-1,-1.840242445E-1,7.895278931E-2
8.128080579E2,-8.893944621E-1,-1.651634574E-1,-1.452569962E-1
8.133080579E2,-2.282122374E-1,2.944827676E-1,-1.851491928E-1
8.138080579E2,-3.944686651E-1,8.189245313E-2,-9.563922882E-2
8.143080579E2,-4.326179028E-1,-4.631488025E-2,-2.037925720E-1
8.148080579E2,-3.890792131E-1,-1.409132034E-1,1.759510040E-1
8.153080579E2,1.052508354E-1,-6.091830134E-2,-6.111812592E-2
8.158080579E2,1.172336340E-1,1.653823256E-2,2.972745895E-1
8.163080579E2,1.148260832E-1,-1.907650828E-1,-8.455562592E-2
8.168080579E2,2.593870759E-1,8.668571711E-3,4.892826080E-2
8.173080579E2,1.168499589E-1,1.811212301E-2,-1.506605148E-1
8.178080579E2,7.988250256E-2,-1.971753836E-1,3.852844238E-3
8.183080579E2,2.466696501E-2,-2.177007794E-1,-3.649139404E-2
8.188080579E2,3.301545382E-1,1.698917150E-2,2.102756500E-2
8.193080579E2,-7.147347927E-2,-3.343015909E-2,-1.463251114E-1
8.198080579E2,-3.758966923E-2,-1.644967794E-1,6.978511810E-2
8.203080579E2,-1.056620181E-1,-2.883881330E-2,-2.743654251E-1
8.208080579E2,-9.554016590E-2,-1.375675201E-4,2.460718155E-1
8.213080579E2,-1.401252747E-1,-2.436828613E-2,-5.294418335E-2
8.218080579E2,-9.717845917E-2,-6.132885218E-1,-2.308540344E-1
8.223080579E2,2.151600569E-1,-7.120597363E-2,-3.544530869E-1
8.228080579E2,-3.720996380E-1,-3.611289263E-1,-5.180072784E-1
8.233080579E2,-6.294155121E-2,-1.546941996E-1,4.289064407E-1
8.238080579E2,-6.566971540E-2,-9.723174572E-2,-2.496900558E-1
8.243080579E2,-1.149514616E-1,-9.368956089E-2,2.438249588E-1
8.248080579E2,-1.049286127E-2,3.113460541E-2,-2.946376801E-2
8.253080579E2,-2.201511264E-1,-1.236127615E-1,7.970714569E-2
8.258080579E2,-2.181172073E-1,-3.504446745E-1,3.651304245E-1
8.263080579E2,-2.255339324E-1,1.701557636E-2,-3.346700668E-1
8.268080579E2,2.158116549E-1,1.058871746E-1,-1.289081573E-2
8.273080579E2,3.975577354E-1,4.917135239E-1,2.926540375E-1
8.278080579E2,3.922494054E-1,7.303440571E-2,-8.609371185E-1
8.283080579E2,5.589172840E-1,1.578422785E-1,1.443080902E-1
8.288080579E2,1.314525902E-1,6.148195267E-2,-2.272415161E-2
8.293080579E2,2.332919836E-2,4.047727585E-2,1.490602493E-1
8.298080579E2,-2.769645303E-2,1.291668415E-2,2.835083008E-2
8.303080579E2,-9.726099670E-3,8.232474327E-3,-2.297048569E-1
8.308080579E2,2.111640573E-2,1.067101955E-2,1.208839417E-1
8.313080579E2,5.389471352E-2,8.010387421E-3,-5.862140656E-2
8.318080579E2,-1.906664371E-1,-4.592739344E-1,-1.734371185E-1
8.323080579E2,-7.991987467E-2,-2.545617819E-1,2.185163498E-1
8.328080579E2,-6.743457913E-2,-1.094341278E-3,-2.274351120E-1
8.333080579E2,1.113102883E-1,-2.484171391E-1,-1.430454254E-1
8.338080579E2,-3.879302740E-2,-3.564271927E-1,4.090213776E-2
8.343080579E2,-4.439717531E-1,-1.149618626E0,-4.973754883E-1
8.348080579E2,1.196645498E-1,7.798217535E-1,2.867717743E-1
8.353080579E2,-3.459328115E-1,7.537771463E-1,3.890829086E-1
8.358080579E2,2.530546784E-1,5.967198610E-1,-6.900882721E-2
8.363080579E2,-5.459129810E-3,5.855647922E-1,1.016321182E-1
8.368080579E2,-1.533189416E-2,3.523752093E-1,7.743930817E-2
8.373080579E2,1.793543100E-1,-5.427575111E-2,4.917049408E-2
8.378080579E2,-2.361295223E-1,-1.447090507E-1,-7.051277161E-2
8.383080579E2,-3.813549280E-1,4.016977549E-2,8.394050598E-2
8.388080579E2,-2.930259705E-1,3.818571568E-3,2.187442780E-2
8.393080579E2,-3.718786240E-1,1.510715038E-1,9.603500366E-2
8.398080579E2,4.202389717E-2,-1.068907082E-1,-2.815065384E-1
8.403080579E2,-8.099687099E-1,-8.769762516E-2,1.593322754E-1
8.408080579E2,-6.164865494E-1,-1.367533356E-1,-9.372711182E-3
8.413080579E2,-4.811210632E-1,-2.162677944E-1,8.248043060E-2
8.418080579E2,-3.171892166E-1,-2.277709246E-1,-3.919124603E-2
8.423080579E2,-1.827616692E-1,-2.274319530E-1,-8.469009399E-2
8.428080579E2,-2.276186943E-1,-2.682079971E-1,1.928586960E-1
8.433080579E2,7.637050152E-1,-3.896738887E-1,4.379749298E-2
8.438080579E2,6.370571852E-1,-6.583063304E-2,-1.710777283E-1
8.443080579E2,2.066088200E0,1.801857948E-1,-2.881298065E-1
8.448080579E2,1.985341549E0,-2.021994591E-1,3.018856049E-1
8.453080579E2,1.514191628E0,-3.218426704E-1,-4.708995819E-1
8.458080579E2,7.169432640E-1,-1.340316683E-1,1.588211060E-1
8.463080579E2,1.477193385E-1,-1.136731729E-1,-1.264600754E-1
8.468080579E2,1.526526213E-1,-5.165700614E-2,1.171426773E-1
8.473080579E2,-4.703407362E-2,4.723533988E-3,-1.200637817E-1
8.478080579E2,7.208884507E-2,5.188731104E-2,8.686923981E-2
8.483080579E2,-1.014649346E-1,-8.842483163E-2,-4.576873779E-2
8.488080579E2,1.815360188E-1,4.838889837E-2,-6.707668304E-2
8.493080579E2,-1.378508955E-1,-1.311854720E-1,-3.957405090E-1
8.498080579E2,-3.255017698E-1,-5.411642790E-2,5.752382278E-1
8.503080579E2,-1.159641743E-1,-1.683987975E-1,1.237058640E-1
8.508080579E2,-1.263178140E-1,-4.726165533E-2,1.796922684E-1
8.513080579E2,-2.815976739E-2,-2.294003963E-3,5.601024628E-2
8.518080579E2,-7.397869229E-2,-1.329237223E-2,7.714939117E-2
8.523080579E2,1.733864099E-1,6.590813398E-2,1.557102203E-1
8.528080579E2,1.760323644E-1,1.424583793E-2,1.069812775E-1
8.533080579E2,5.045035481E-2,-1.334186494E-1,-1.044397354E-1
8.538080579E2,6.307801604E-2,-4.263243079E-2,3.732681274E-3
8.543080579E2,5.688218474E-1,-3.819525242E-2,6.145496368E-1
8.548080579E2,4.064506888E-1,-3.508922756E-1,1.480043411E0
8.553080579E2,-2.289096415E-1,1.673460007E-3,-9.454669952E-1
8.558080579E2,-3.526362181E-1,-3.421850204E-1,-4.737796783E-1
8.563080579E2,-9.852461517E-2,-5.128234029E-1,-1.160936356E0
8.568080579E2,-3.822329938E-1,-4.638690948E-1,-3.133344650E-1
8.573080579E2,-1.870374233E-1,-5.098612309E-1,7.867527008E-2
8.578080579E2,5.269708037E-1,-3.712909222E-1,-5.196371078E-1
8.583080579E2,3.756946325E-2,-3.337106705E-1,1.605796814E-2
8.588080579E2,5.243331194E-2,-1.995600462E-1,1.447038651E-1
8.593080579E2,-6.860762835E-2,-9.661900997E-2,2.868747711E-2
8.598080579E2,-6.688205600E-1,-7.694838047E-1,-1.066303253E-1
8.603080579E2,-3.526070714E-1,-4.658395052E-1,-3.135318756E-1
8.608080579E2,5.393975973E-2,-1.464041471E-1,6.125354767E-2
8.613080579E2,-1.966571808E-1,-1.723430157E-1,5.803585052E-2
8.618080579E2,-8.013337851E-2,7.864999771E-2,-2.780828476E-1
8.623080579E2,1.725628972E-1,-1.062550545E-1,-1.711816788E-1
8.628080579E2,-4.771190882E-2,-2.008116245E-1,3.783817291E-1
8.633080579E2,1.687548757E-1,-3.682541847E-2,1.275072098E-1
8.638080579E2,2.778160572E-2,-1.651754379E-1,-1.911487579E-1
8.643080579E2,-1.240258813E-1,-4.923152924E-2,1.329231262E-1
8.648080579E2,-9.471690655E-2,7.329297066E-2,-1.307821274E-1
8.653080579E2,-1.044625044E-2,3.203470707E-1,2.003087997E-1
8.658080579E2,-4.423499107E-3,-4.111740589E-1,-7.520484924E-2
8.663080579E2,-3.051996231E-3,-2.478535175E-1,1.535606384E-2
8.668080579E2,3.565102816E-3,2.225370407E-1,-6.034183502E-2
8.673080579E2,-4.410439730E-2,1.355304718E-1,-2.278423309E-2
8.678080579E2,-2.293899655E-2,1.181437969E-1,-4.349040985E-2
8.683080579E2,3.847002983E-3,2.833691835E-1,2.499389648E-2
8.688080579E2,1.313179731E-3,1.346288919E-1,3.420352936E-2
8.693080579E2,-3.137937188E-2,-9.787273407E-2,-2.028179169E-2
8.698080579E2,-1.267406344E-2,-5.400323868E-2,-3.694534302E-3
8.703080579E2,1.464274526E-2,-1.232002974E-1,-4.760074615E-2
8.708080579E2,-1.976630092E-2,-1.053605080E-1,-4.682540894E-4
8.713080579E2,-1.557084918E-2,2.813971043E-2,-2.278327942E-2
8.718080579E2,2.669835091E-2,1.082112074E0,1.766700745E-1
8.723080579E2,-1.901045442E-2,5.319811106E-1,2.185153961E-2
8.728080579E2,-4.337847233E-3,9.069144726E-2,5.260658264E-2
8.733080579E2,-1.188656688E-2,2.745974064E-2,1.795005798E-2
8.738080579E2,1.683118939E-2,2.804052830E-2,-1.869773865E-2
8.743080579E2,2.401024103E-3,2.548837662E-2,4.796981812E-4
8.748080579E2,2.572134137E-2,8.226633072E-4,2.009201050E-2
8.753080579E2,2.039530873E-2,1.802623272E-2,-7.723236084E-2
8.758080579E2,-7.497069240E-2,1.859152317E-2,-3.434562683E-2
8.763080579E2,-4.401475191E-3,1.640014052E-1,2.516460419E-2
8.768080579E2,1.042890549E-1,9.121689200E-1,-6.954193115E-3
8.773080579E2,1.469749212E-2,5.466447473E-1,1.292600632E-1
8.778080579E2,3.964120150E-2,-5.488922447E-2,-3.501224518E-2
8.783080579E2,5.242079496E-3,-4.633246362E-2,-2.589893341E-2
8.788080579E2,-7.680931687E-2,2.659951150E-2,-3.141689301E-2
8.793080579E2,-8.609056473E-3,1.004986465E-1,1.213741302E-2
8.798080579E2,-6.762444973E-3,2.121673822E-1,-1.974773407E-2
8.803080579E2,8.260610700E-2,-7.814978063E-2,2.902688980E-1
8.808080579E2,1.192825139E-1,1.928244531E-1,-1.049575806E-1
8.813080579E2,4.667147994E-2,-3.923307955E-1,1.857767105E-1
8.818080579E2,2.867603898E-1,-2.951862514E-1,-9.813785553E-2
8.823080579E2,-1.179478765E-1,-5.749243498E-2,9.535789490E-3
8.828080579E2,-6.828045845E-2,-4.928594828E-2,-2.296934128E-1
8.833080579E2,-5.676755309E-2,-2.085998803E-1,1.570558548E-1
8.838080579E2,9.228739142E-2,4.914648086E-2,-7.909393311E-2
8.843080579E2,-3.503826261E-2,-2.859017998E-2,-3.016939163E-1
8.848080579E2,2.309487015E-1,2.109500766E-2,2.890167236E-1
8.853080579E2,1.442509890E-1,-1.284124851E-1,-1.107454300E-1
8.858080579E2,-5.423012972E-1,-1.258111000E-1,7.821149826E-1
8.863080579E2,-9.505793452E-2,-1.075366139E-2,6.361026764E-1
8.868080579E2,2.508365214E-1,-1.213729382E-3,-6.535778046E-1
8.873080579E2,-2.078645229E-1,8.095477521E-2,9.699630737E-2
8.878080579E2,5.433410406E-2,-9.678742290E-2,3.574466705E-2
8.883080579E2,-9.674602747E-2,-1.060771644E-1,-1.151113510E-1
8.888080579E2,-1.274067163E-2,-8.873984218E-2,1.188516617E-1
8.893080579E2,-6.206995249E-2,-5.049586296E-2,4.437255859E-2
8.898080579E2,7.076698542E-2,-5.388432741E-2,-1.653614044E-1
8.903080579E2,-3.920602798E-2,-9.951174259E-3,-2.289819717E-1
8.908080579E2,-6.492215395E-2,-7.277393341E-2,1.013441086E-1
8.913080579E2,-1.650424004E-1,-1.081132889E-2,-3.561115265E-2
8.918080579E2,1.680672169E-2,-1.880234480E-2,-1.527690887E-2
8.923080579E2,-3.998883963E-1,-1.573389769E-2,3.209676743E-1
8.928080579E2,-4.360677004E-1,1.369919777E-1,-1.047086716E-1
8.933080579E2,5.368074179E-1,-2.831399441E-2,8.991527557E-2
8.938080579E2,2.489327192E-1,3.059291840E-2,-2.204084396E-1
8.943080579E2,1.963074505E-1,-9.418940544E-2,-4.321956635E-2
8.948080579E2,9.614524245E-1,-9.916526079E-2,4.028692245E-1
8.953080579E2,2.669767141E-1,-9.023004770E-2,7.017364502E-1
8.958080579E2,-1.749980450E-2,-2.637571096E-1,1.191616058E-2
8.963080579E2,3.775334358E-1,-4.828721285E-2,-2.673330307E-1
8.968080579E2,-5.544239283E-1,-1.727842093E-1,8.770942688E-2
8.973080579E2,-4.932111502E-2,8.633542061E-2,-2.223787308E-1
8.978080579E2,-1.051726460E0,-2.680277228E-1,-1.676523685E0
8.983080579E2,-5.372132063E-1,-1.290458441E-1,6.753644943E-1
8.988080579E2,9.006381035E-3,-2.859730721E-1,1.171379089E-1
8.993080579E2,9.981429577E-2,9.980094433E-2,-3.712148666E-1
8.998080579E2,6.266355515E-1,-2.538037300E-2,1.274299622E-2
9.003080579E2,-2.762964964E-1,-9.230196476E-2,-4.947185516E-1
9.008080579E2,2.528355718E-1,9.229063988E-3,7.092313766E-1
9.013080579E2,-8.008849621E-2,-2.338055372E-1,3.734397888E-2
9.018080579E2,9.692263603E-2,1.093710661E-1,5.378437042E-2
9.023080579E2,9.604799747E-2,-8.421552181E-2,-1.601991653E-1
9.028080579E2,2.807618976E-1,2.192671299E-1,1.092049599E0
9.033080579E2,-3.816999793E-1,-6.818056107E-3,-5.038166046E-1
9.038080579E2,-2.877454758E-1,1.887115240E-1,8.052606583E-1
9.043080579E2,-5.117268562E-1,-1.163657308E-1,-7.195281982E-1
9.048080579E2,-4.848883152E-1,1.387567520E-1,-5.427694321E-1
9.053080579E2,4.099965096E-3,-5.250316858E-2,-6.838321686E-2
9.058080579E2,-1.770104170E-1,2.750450373E-2,1.401624680E-1
9.063080579E2,1.268643141E-1,1.636040211E-2,-3.016090393E-2
9.068080579E2,6.838929653E-2,-4.959940910E-3,4.662227631E-2
9.073080579E2,-1.292924881E-1,3.555047512E-2,2.686691284E-2
9.078080579E2,-1.162767410E-2,-2.099114656E-2,-2.136106491E-1
9.083080579E2,-1.584504843E-1,-7.396084070E-2,8.401966095E-2
9.088080579E2,-5.759274960E-2,-5.071443319E-2,6.891918182E-2
9.093080579E2,-6.456303596E-2,-1.353822947E-1,7.684421539E-2
9.098080579E2,2.048319578E-1,-3.110557795E-2,-1.840114594E-2
9.103080579E2,-4.537900090E-1,6.959736347E-3,-4.190073013E-1
9.108080579E2,1.581638455E-1,2.927248478E-1,1.485061646E-2
9.113080579E2,-3.782275617E-1,2.882087231E-2,-7.893095016E-1
9.118080579E2,5.851204991E-1,5.941029191E-1,5.256586075E-1
9.123080579E2,-8.037205040E-2,-2.126729488E-1,-1.259887695E0
9.128080579E2,-2.828296125E-1,-9.908521175E-2,1.644951820E0
9.133080579E2,1.452576220E-1,-2.196678519E-1,-2.722244263E-1
9.138080579E2,3.925838470E-1,1.264898777E-1,5.242853165E-1
9.143080579E2,-5.650473386E-2,-7.086533308E-2,-1.728639603E-1
9.148080579E2,-3.397822753E-2,1.434892416E-2,5.049848557E-1
9.153080579E2,-1.135212779E-1,-2.091145515E-2,-1.008844376E-1
9.158080579E2,-1.432339251E-1,5.488151312E-2,1.775560379E-1
9.163080579E2,4.414984584E-2,-2.047705650E-2,-5.477304459E-1
9.168080579E2,6.203234196E-3,2.620518208E-3,3.468399048E-1
9.173080579E2,-1.552941799E-1,-5.260241032E-2,7.713222504E-2
9.178080579E2,-1.353897452E-1,-1.570117474E-2,8.412551880E-2
9.183080579E2,-6.052553654E-2,-1.037936211E-1,-1.052007675E-1
9.188080579E2,1.036192656E0,1.140148640E-1,-2.025861740E-1
9.193080579E2,8.814119697E-1,7.573407888E-2,2.769565582E-1
9.198080579E2,3.077865839E-1,-1.262289286E-2,3.506565094E-2
9.203080579E2,2.691120505E-1,3.559887409E-2,3.038501740E-2
9.208080579E2,-1.343798935E-1,-6.832808256E-2,-2.053833008E-2
9.213080579E2,-3.647831082E-2,-9.770172834E-2,3.198394775E-1
9.218080579E2,-3.584997728E-2,-4.492950439E-2,-1.093654633E-1
9.223080579E2,-2.077924758E-1,-6.935375929E-2,1.782989502E-2
9.228080579E2,-3.538511693E-2,5.938529968E-2,5.271530151E-2
9.233080579E2,-1.068617702E-1,-1.326918602E-3,-1.705083847E-1
9.238080579E2,1.869712770E-2,-1.145653725E-1,2.302074432E-2
9.243080579E2,-6.485998631E-2,-6.843328476E-2,-4.881572723E-2
9.248080579E2,2.405496687E-1,-5.733406544E-2,8.535776138E-1
9.253080579E2,-9.657636285E-2,-3.077709675E-2,2.283573151E-2
9.258080579E2,3.579556942E-3,-2.067456245E-1,1.392450333E-1
9.263080579E2,3.909780979E-1,1.139320135E-1,8.807268143E-1
9.268080579E2,-3.348580003E-2,7.329583168E-2,-2.379312515E-1
9.273080579E2,6.295860410E-1,1.247330904E-1,1.401329041E-1
9.278080579E2,-3.548682630E-1,6.862866879E-2,-5.363264084E-1
9.283080579E2,6.505987048E-1,6.721677780E-1,4.788675308E-1
9.288080579E2,6.952410936E-2,1.851950884E-1,-4.853439331E-1
9.293080579E2,6.352477670E-1,3.775506020E-1,3.637771606E-1
9.298080579E2,2.298861146E-1,3.703039885E-2,-2.342319489E-2
9.303080579E2,9.662914276E-2,-4.534542561E-2,1.193943024E-1
9.308080579E2,-3.294765949E-3,-4.839932919E-2,-3.479852676E-1
9.313080579E2,-3.715702891E-1,-1.036376953E-1,-4.824686050E-1
9.318080579E2,-2.700633705E-1,-7.925987244E-2,-2.968788147E-2
9.323080579E2,-4.397121370E-1,-1.613771915E-2,-1.115779877E-1
9.328080579E2,-2.901866436E-1,-3.194785118E-2,-1.153078079E-1
9.333080579E2,-1.119685173E-1,1.906728745E-2,4.428768158E-2
9.338080579E2,3.705567122E-2,-9.854674339E-3,-2.996892929E-1
9.343080579E2,-1.197817922E-1,-5.677270889E-2,1.453266144E-1
9.348080579E2,1.829290688E-1,7.017695904E-2,-1.527242661E-1
9.353080579E2,1.783788204E-3,-1.482685804E-1,-2.631282806E-2
9.358080579E2,1.036940217E-1,-5.277836323E-2,-5.451107025E-2
9.363080579E2,1.093849540E-2,-3.848886490E-2,8.696746826E-2
9.368080579E2,2.241936326E-2,5.528926849E-3,4.777526855E-2
9.373080579E2,2.261593938E-2,-2.117866278E-1,-1.286029816E-1
9.378080579E2,-9.309232235E-2,-3.260321617E-1,4.982948303E-3
9.383080579E2,-3.102099895E-2,1.313948631E-2,-1.692962646E-1
9.388080579E2,-1.087513268E-1,1.399399042E-1,6.124591827E-2
9.393080579E2,4.624518752E-2,-2.456130981E-1,4.066371918E-2
9.398080579E2,1.188302338E-1,-9.409806728E-1,8.519935608E-2
9.403080579E2,-1.972377300E-2,-7.732229233E-1,-2.034168243E-1
9.408080579E2,-4.767793417E-2,-5.245528221E-1,-4.367923737E-2
9.413080579E2,-2.616436481E-1,2.147459984E-2,6.468105316E-2
9.418080579E2,1.756536961E-2,4.059803486E-1,-3.220901489E-1
9.423080579E2,3.179757893E-1,6.426382065E-1,1.772747040E-1
9.428080579E2,1.205219924E-1,5.300452709E-1,9.745883942E-2
9.433080579E2,3.427448869E-2,1.793189049E-1,1.398754120E-2
9.438080579E2,4.346311092E-2,5.748655796E-1,5.436038971E-2
9.443080579E2,6.822293997E-2,9.897109270E-1,1.404609680E-1
9.448080579E2,8.464716375E-2,1.191669226E0,4.715538025E-2
9.453080579E2,1.093255207E-1,2.350783348E0,3.646621704E-1
9.458080579E2,3.570747375E-2,9.736427069E-1,1.163816452E-1
9.463080579E2,1.169360727E-1,3.762034178E-1,5.068683624E-2
9.468080579E2,5.875896662E-2,6.277495623E-2,1.416492462E-2
9.473080579E2,-6.237460673E-2,2.427678704E-1,1.469707489E-2
9.478080579E2,-2.765122801E-2,-1.236058176E-1,-7.280826569E-2
9.483080579E2,-6.491370499E-2,3.291684389E-2,-3.413486481E-2
9.488080579E2,8.345327526E-2,-4.221848845E-1,-4.072494507E-1
9.493080579E2,4.961176217E-2,-3.774281740E-1,-1.741228104E-1
9.498080579E2,-7.650069892E-2,-1.425730586E-1,-1.397876740E-1
9.503080579E2,-2.021968365E-3,1.138919592E-2,3.294467926E-2
9.508080579E2,-5.614575744E-2,-3.198380172E-1,-2.656803131E-1
9.513080579E2,8.953361213E-2,-1.993206292E-1,1.263380051E-1
9.518080579E2,8.079914749E-2,-1.056488603E-1,4.162063599E-1
9.523080579E2,4.360322654E-2,-1.245958544E-2,-2.579278946E-1
9.528080579E2,-2.156233788E-2,-3.613106906E-1,6.856050491E-1
9.533080579E2,-2.932651639E-1,-6.245223880E-1,-4.359960556E-1
9.538080579E2,2.903723121E-1,-6.907045841E-1,1.088616371E0
9.543080579E2,-2.407171726E-1,-1.106450558E0,-4.866027832E-2
9.548080579E2,3.188202381E-1,-7.768183351E-1,5.794525146E-2
9.553080579E2,-1.225933433E-1,-4.215956330E-1,7.783794403E-2
9.558080579E2,-3.321361542E-2,-2.322051525E-1,-1.631765366E-1
9.563080579E2,9.113378078E-2,-7.525157928E-2,8.675956726E-2
9.568080579E2,1.570196301E-1,3.689527512E-4,-7.989120483E-2
9.573080579E2,1.904897690E-1,1.279691458E-1,-7.467746735E-2
9.578080579E2,4.885494709E-1,2.703390718E-1,1.067504883E-1
9.583080579E2,1.134276748E0,1.552736163E-1,-3.394794464E-2
9.588080579E2,7.770929337E-1,1.225145459E-1,-1.740980148E-1
9.593080579E2,2.375581264E-1,6.086051464E-2,-2.619361877E-2
9.598080579E2,7.312011719E-2,-4.538899660E-2,-3.399753571E-2
9.603080579E2,1.730492115E-1,1.442217827E-2,8.091926575E-2
9.608080579E2,-9.163498878E-2,-1.512333453E-1,-5.403804779E-2
9.613080579E2,-7.875226736E-1,-1.296694279E-1,3.575944901E-1
9.618080579E2,-1.101537347E0,-1.338848025E-1,1.898241043E-1
9.623080579E2,-1.511915922E-1,2.143763751E-2,3.080844879E-2
9.628080579E2,-7.777155042E-1,-3.178050518E-1,1.488084793E-1
9.633080579E2,-6.463447809E-1,-7.305535674E-2,-1.076221466E-1
9.638080579E2,-1.700427383E-1,-3.061762452E-1,-1.848955154E-1
9.643080579E2,1.276230216E-1,-2.158625722E-1,9.221506119E-1
9.648080579E2,-5.577268600E-1,-4.764715433E-1,-4.972352982E-1
9.653080579E2,5.415248871E-2,-2.210888863E-1,1.619939804E-1
9.658080579E2,-2.082812041E-1,-1.813813448E-1,-1.642704010E-2
9.663080579E2,-1.824600063E-2,-6.162297726E-2,-6.390285492E-2
9.668080579E2,8.253563941E-2,-6.158113480E-3,3.937816620E-2
9.673080579E2,1.482559741E-1,-6.772196293E-2,-1.149339676E-1
9.678080579E2,-7.854696363E-3,-1.343457699E-1,5.837059021E-2
9.683080579E2,-1.147220284E-1,-6.799852848E-2,-1.739912033E-1
9.688080579E2,2.239486873E-1,-2.625393867E-2,1.494407654E-3
9.693080579E2,-1.373904496E-1,2.875781059E-2,1.492786407E-2
9.698080579E2,1.872771978E-2,9.337007999E-2,9.706020355E-2
9.703080579E2,-4.804433584E-1,1.508640051E-1,-6.174468994E-2
9.708080579E2,-6.973279715E-1,3.371076584E-1,-2.943992615E-3
9.713080579E2,-6.443946362E-1,3.169483542E-1,-7.993412018E-2
9.718080579E2,-9.847617149E-2,1.833931506E-1,3.563499451E-2
9.723080579E2,-3.515281677E-1,-3.879690170E-2,8.505725861E-2
9.728080579E2,-7.512617111E-2,2.986091375E-2,-7.945251465E-2
9.733080579E2,-1.852641106E-1,-4.448622465E-2,4.436206818E-2
9.738080579E2,4.957747459E-2,-1.821892858E-1,-9.021282196E-2
9.743080579E2,-2.616279125E-1,-2.006719112E-1,1.078243256E-1
9.748080579E2,1.262554646E0,7.390153408E-2,-7.810678482E-1
9.753080579E2,2.832927227E0,1.146467924E-1,2.977275848E-2
9.758080579E2,1.539610386E0,3.595283628E-2,-1.826581955E-1
9.763080579E2,1.081899166E0,-6.075328588E-2,-1.839342117E-1
9.768080579E2,5.101779699E-1,-2.864193916E-1,-2.085103989E-1
9.773080579E2,2.703070045E-1,-5.755677223E-1,-1.997900009E-1
9.778080579E2,1.694422215E-1,1.952886581E-2,4.750156403E-2
9.783080579E2,-2.070764154E-1,-4.813873768E-2,-1.622133255E-1
9.788080579E2,2.555633187E-1,2.770805359E-2,-7.050800323E-2
9.793080579E2,1.023318097E-1,1.442016363E-1,-4.179954529E-3
9.798080579E2,-1.062061191E-1,-5.156922340E-2,1.243619919E-1
9.803080579E2,-4.725803435E-2,2.071577907E-1,8.845119476E-1
9.808080579E2,-4.166006744E-1,1.686862707E-1,-4.806594849E-1
9.813080579E2,1.592607647E-1,1.037791371E-1,-3.260517120E-2
9.818080579E2,-2.350071222E-1,5.584353209E-2,4.395008087E-2
9.823080579E2,-4.853277653E-2,1.232251525E-1,-4.733743668E-1
9.828080579E2,1.190545857E-1,-1.561176777E-2,-6.173200607E-1
9.833080579E2,1.119345799E-1,-1.856702566E-1,4.146995544E-1
9.838080579E2,4.006844163E-1,-1.803196669E-1,8.339214325E-2
9.843080579E2,-2.166198790E-1,-4.709721208E-1,1.475505829E-1
9.848080579E2,8.194445074E-2,-4.144495130E-1,-5.876064301E-2
9.853080579E2,-1.682688892E-1,-1.579852104E-1,-1.221952438E-1
9.858080579E2,1.230330467E-1,-1.130944490E-1,2.196416855E-1
9.863080579E2,2.513486147E-2,-2.713948488E-1,8.401679993E-2
9.868080579E2,-8.499407768E-2,-1.735961437E-2,1.694564819E-1
9.873080579E2,3.400998563E-2,-1.248477697E-1,-2.179994583E-1
9.878080579E2,4.821113497E-2,-1.301343441E-1,1.241102219E-1
9.883080579E2,3.393215537E-1,4.195312262E-1,7.737064362E-2
9.888080579E2,5.052325726E-1,2.919441462E-1,5.866336823E-2
9.893080579E2,4.622073174E-1,1.083281040E-1,1.974124908E-1
9.898080579E2,7.233808041E-1,1.111639738E-1,-3.770380020E-1
