"Time (s)","Acceleration x (m/s^2)","Acceleration y (m/s^2)","Acceleration z (m/s^2)"
2.871408000E-3,1.183250785E0,4.810770035E0,8.079365730E0
2.387979400E-2,1.124626637E0,5.122435093E0,7.965108395E0
5.238797940E-1,1.038485050E0,4.887340069E0,8.816354752E0
1.023879794E0,2.327618122E0,5.232504845E0,8.049455643E0
1.523879794E0,-5.102694035E-1,4.150949001E0,7.374679565E0
2.023879794E0,6.999006122E-2,4.779065132E0,9.301499367E0
2.523879794E0,-1.435693651E-1,3.689732552E0,9.640084267E0
3.023879794E0,-2.009970993E-1,3.614358664E0,9.023932457E0
3.523879794E0,-8.434699476E-2,3.581457376E0,9.220742226E0
4.023879794E0,-7.776673883E-2,3.604787350E0,9.040083885E0
4.523879794E0,-2.524427772E-1,3.250649452E0,9.233304024E0
5.023879794E0,-3.050848842E-1,3.495315790E0,9.054440498E0
5.523879794E0,-3.894318938E-1,3.326023579E0,9.181859016E0
6.023879794E0,-3.481557071E-1,3.475574970E0,9.242277145E0
6.523879794E0,-3.320041299E-1,3.651447296E0,9.224929810E0
7.023879794E0,-2.679961324E-1,3.072384357E0,9.652647018E0
7.523879794E0,-2.811566591E-1,3.718446493E0,9.549157143E0
8.023879794E0,-3.128615618E-1,3.203391314E0,9.351150513E0
8.523879794E0,-3.409772217E-1,3.432504177E0,9.322437286E0
9.023879794E0,-3.361915946E-1,3.041875839E0,9.336793900E0
9.523879794E0,-2.679961324E-1,3.568894863E0,9.449854851E0
1.002387979E1,-2.644068897E-1,3.412165165E0,9.268000603E0
1.052387979E1,-3.379862010E-1,3.702294827E0,8.985647202E0
1.102387979E1,-2.231307179E-1,3.204587698E0,9.305088997E0
1.152387979E1,-3.349951804E-1,2.997608662E0,8.988637924E0
1.202387979E1,-2.919243574E-1,3.504288673E0,8.770891190E0
1.252387979E1,-3.619144261E-1,3.365504980E0,9.325428009E0
1.302387979E1,-4.606183469E-1,3.341576815E0,9.402596474E0
1.352387979E1,-2.536391914E-1,3.489931822E0,9.180662155E0
1.402387979E1,-4.229314029E-1,3.480958700E0,9.279366493E0
1.452387979E1,-4.624129832E-1,3.535395384E0,9.293723106E0
1.502387979E1,-3.637090325E-1,3.510869026E0,9.318847656E0
1.552387979E1,-4.390829504E-1,3.453441381E0,9.434301376E0
1.602387979E1,-4.097708762E-1,3.221935749E0,9.378668785E0
1.652387979E1,-4.719842672E-1,3.134597778E0,9.330811501E0
1.702387979E1,-3.493520916E-1,2.991028309E0,9.156135559E0
1.752387979E1,-5.330012441E-1,2.987439156E0,9.344570160E0
1.802387979E1,-4.899304509E-1,2.834896564E0,9.346364975E0
1.852387979E1,-4.965106845E-1,2.995813847E0,9.443872452E0
1.902387979E1,-6.927221417E-1,2.847458839E0,9.425926208E0
1.952387979E1,-6.921239495E-1,3.050250769E0,9.438488960E0
2.002387979E1,-7.800601721E-1,3.158525944E0,9.440881729E0
2.052387979E1,-5.503492355E-1,3.125026464E0,8.730213165E0
2.102387979E1,-6.143572330E-1,2.820539713E0,8.864211082E0
2.152387979E1,-5.874379873E-1,2.924029350E0,8.960522652E0
2.202387979E1,-7.483552694E-1,3.260220766E0,9.070592880E0
2.252387979E1,-8.937192559E-1,2.961117983E0,9.268598557E0
2.302387979E1,-8.919246197E-1,3.092723370E0,9.270991325E0
2.352387979E1,-1.118046403E0,2.936591625E0,9.564710617E0
2.402387979E1,-1.367498159E0,3.305684566E0,9.481559753E0
2.452387979E1,-1.278963685E0,3.105883837E0,9.252447128E0
2.502387979E1,-1.564906001E0,2.812762976E0,8.467600822E0
2.552387979E1,-1.510469317E0,3.257827997E0,9.089735031E0
2.602387979E1,-1.166501045E0,3.474378586E0,9.590433121E0
2.652387979E1,-1.375274777E0,3.142972469E0,9.266803741E0
2.702387979E1,-1.430907965E0,3.244667530E0,9.181859016E0
2.752387979E1,-1.421336651E0,3.262613773E0,8.877371788E0
2.802387979E1,-1.422533035E0,3.099303484E0,9.186644554E0
2.852387979E1,-1.392622828E0,3.102294445E0,9.014959335E0
2.902387979E1,-1.493121386E0,3.339184046E0,8.687741280E0
2.952387979E1,-1.441675663E0,3.233899832E0,9.107083321E0
3.002387979E1,-1.478764415E0,3.339184046E0,9.000003815E0
3.052387979E1,-1.121037364E0,3.410968781E0,8.796015739E0
3.102387979E1,-1.097109199E0,3.340380430E0,8.645866394E0
3.152387979E1,-1.325623751E0,3.970290899E0,7.974679470E0
3.202387979E1,-1.606182218E0,3.571287870E0,9.108279228E0
3.252387979E1,-1.514058471E0,3.473181963E0,9.102297783E0
3.302387979E1,-1.305284739E0,3.793222189E0,9.141778946E0
3.352387979E1,-1.611566067E0,3.607180119E0,9.199805260E0
3.402387979E1,-1.829312921E0,3.686143398E0,9.409774780E0
3.452387979E1,-1.687538147E0,3.608376503E0,9.416953087E0
3.502387979E1,-1.764108539E0,3.288934708E0,9.238089561E0
3.552387979E1,-1.710269928E0,3.429512978E0,9.201001167E0
3.602387979E1,-1.664208174E0,3.418745279E0,8.826524734E0
3.652387979E1,-1.502692580E0,3.359523058E0,8.914461136E0
3.702387979E1,-1.365105271E0,3.396013498E0,8.670392990E0
3.752387979E1,-1.709671736E0,3.482753277E0,8.544171333E0
3.802387979E1,-1.953739643E0,3.267399311E0,9.038887978E0
3.852387979E1,-1.811964989E0,3.433102369E0,8.751749039E0
3.902387979E1,-1.643270969E0,3.560520172E0,8.952147484E0
3.952387979E1,-1.524826288E0,3.461217880E0,9.297312737E0
4.002387979E1,-1.563709617E0,3.227319479E0,9.304491043E0
4.052387979E1,-1.619342685E0,3.308675528E0,9.217152596E0
4.102387979E1,-1.762313843E0,3.346362352E0,9.491130829E0
4.152387979E1,-1.813759565E0,3.405584812E0,9.443274498E0
4.202387979E1,-1.850250125E0,3.270390272E0,9.460023880E0
4.252387979E1,-1.947757602E0,3.451646566E0,8.892925262E0
4.302387979E1,-1.936989903E0,3.263810158E0,9.245866776E0
4.352387979E1,-1.989632010E0,2.983251572E0,9.973284721E0
4.402387979E1,-1.871187329E0,3.619742393E0,9.038887978E0
4.452387979E1,-1.959123492E0,3.863810301E0,8.850452423E0
4.502387979E1,-2.008774519E0,2.987439156E0,9.127422333E0
4.552387979E1,-2.043470621E0,3.158525944E0,9.376275063E0
4.602387979E1,-1.577468276E0,3.245863914E0,8.982656479E0
4.652387979E1,-1.751546144E0,3.413361549E0,8.538787842E0
4.702387979E1,-1.638485312E0,3.316452265E0,8.960522652E0
4.752387979E1,-1.706680775E0,3.229114056E0,9.081958771E0
4.802387979E1,-1.730608940E0,3.212364435E0,9.450452805E0
4.852387979E1,-1.697109461E0,3.305684566E0,9.437292099E0
4.902387979E1,-1.805982947E0,3.433102369E0,9.506086349E0
4.952387979E1,-1.791027784E0,3.308077335E0,9.433703423E0
5.002387979E1,-1.840678811E0,3.232105255E0,9.194420815E0
5.052387979E1,-1.622333765E0,3.288934708E0,8.684151649E0
5.102387979E1,-1.607976794E0,3.214159012E0,8.590232849E0
5.152387979E1,-1.551745534E0,3.375076294E0,8.629714966E0
5.202387979E1,-1.555334687E0,3.053241730E0,8.781659126E0
5.252387979E1,-1.647458434E0,3.490530014E0,8.946166039E0
5.302387979E1,-1.714457393E0,3.463610888E0,9.016156197E0
5.352387979E1,-1.920838356E0,3.056232691E0,1.005284595E1
5.402387979E1,-1.611566067E0,3.192025423E0,9.912865639E0
5.452387979E1,-1.707278967E0,3.109472990E0,9.268000603E0
5.502387979E1,-1.673181176E0,3.064009428E0,9.583852768E0
5.552387979E1,-1.755135417E0,3.090330362E0,9.376873970E0
5.602387979E1,-1.725823283E0,2.991028309E0,9.600004196E0
5.652387979E1,-1.601994753E0,3.148954630E0,9.827920914E0
5.702387979E1,-1.610967875E0,3.070589542E0,9.479166985E0
5.752387979E1,-1.550549030E0,3.199802160E0,9.247062683E0
5.802387979E1,-1.333998680E0,3.318246841E0,9.682557106E0
5.852387979E1,-1.381855130E0,3.345165968E0,9.266205788E0
5.902387979E1,-1.375274777E0,3.262613773E0,8.873783112E0
5.952387979E1,-1.472782373E0,3.208176851E0,8.938388824E0
6.002387979E1,-1.415354609E0,2.880958557E0,9.167501450E0
6.052387979E1,-1.365105271E0,3.433102369E0,8.924032211E0
6.102387979E1,-1.235892892E0,3.209373474E0,8.639286041E0
6.152387979E1,-1.451246977E0,3.049652576E0,8.935996056E0
6.202387979E1,-1.421336651E0,3.225524902E0,9.055637360E0
6.252387979E1,-1.454836130E0,3.367897987E0,9.053244591E0
6.302387979E1,-1.747956991E0,3.091526747E0,8.947361946E0
6.352387979E1,-1.850848317E0,3.302095175E0,9.069993973E0
6.402387979E1,-1.836491346E0,3.052045345E0,9.104091644E0
6.452387979E1,-1.823330879E0,3.206382275E0,9.261420250E0
6.502387979E1,-1.856830359E0,2.815753937E0,9.336793900E0
6.552387979E1,-1.786840320E0,2.775674343E0,9.186644554E0
6.602387979E1,-1.963909149E0,2.799602509E0,9.120243073E0
6.652387979E1,-1.808973908E0,2.986242771E0,9.013164520E0
6.702387979E1,-1.951346874E0,2.630908489E0,9.146564484E0
6.752387979E1,-1.968096614E0,2.891726255E0,9.261420250E0
6.802387979E1,-2.047059774E0,2.884547710E0,9.043673515E0
6.852387979E1,-1.848455548E0,2.994617462E0,8.870791435E0
6.902387979E1,-2.054836512E0,2.898306370E0,9.453444481E0
6.952387979E1,-1.872981906E0,2.911466837E0,9.201599121E0
7.002387979E1,-1.923829436E0,2.770888567E0,9.132207870E0
7.052387979E1,-2.027917147E0,3.037688255E0,9.189635277E0
7.102387979E1,-2.102692842E0,2.967100143E0,9.237491608E0
7.152387979E1,-1.998605132E0,3.094517946E0,9.117850304E0
7.202387979E1,-2.089532375E0,2.841476917E0,9.367302895E0
7.252387979E1,-1.903490424E0,2.959323406E0,9.191430092E0
7.302387979E1,-1.981257200E0,2.798406124E0,9.162715912E0
7.352387979E1,-2.082952023E0,2.874976397E0,9.000602722E0
7.402387979E1,-1.956132531E0,2.759522676E0,8.891729355E0
7.452387979E1,-2.054238319E0,2.995813847E0,9.357730865E0
7.502387979E1,-1.860419631E0,2.960519791E0,8.927022934E0
7.552387979E1,-1.843669891E0,3.025724173E0,8.981459618E0
7.602387979E1,-2.003390789E0,3.008974552E0,9.189635277E0
7.652387979E1,-2.150549412E0,3.128017426E0,9.416953087E0
7.702387979E1,-1.938186288E0,2.918047190E0,8.836095810E0
7.752387979E1,-2.066202402E0,3.200400352E0,9.090931892E0
7.802387979E1,-2.110469580E0,2.974876642E0,9.180662155E0
7.852387979E1,-2.117049932E0,3.145365477E0,9.102297783E0
7.902387979E1,-2.093121529E0,2.930609465E0,8.916853905E0
7.952387979E1,-2.092523336E0,2.932404041E0,9.075378418E0
8.002387979E1,-2.155334949E0,3.195614576E0,9.427721024E0
8.052387979E1,-2.209173441E0,2.851048231E0,9.002995491E0
8.102387979E1,-2.050050735E0,3.308077335E0,9.078369141E0
8.152387979E1,-2.075773716E0,2.774477959E0,8.673383713E0
8.202387979E1,-2.194816589E0,3.145365477E0,9.053244591E0
8.252387979E1,-2.225325108E0,2.947957516E0,9.183652878E0
8.302387979E1,-2.150549412E0,2.807977438E0,9.259027481E0
8.352387979E1,-2.108675003E0,3.155534744E0,9.086145401E0
8.402387979E1,-2.163111687E0,2.793620348E0,9.201001167E0
8.452387979E1,-2.200200319E0,3.083152056E0,9.126225471E0
8.502387979E1,-2.240878344E0,2.882753134E0,9.223134995E0
8.552387979E1,-2.196611166E0,2.974876642E0,9.220144272E0
8.602387979E1,-2.325823545E0,2.936591625E0,8.966505051E0
8.652387979E1,-2.217548370E0,2.989233732E0,8.980861664E0
8.702387979E1,-2.292324066E0,2.907877684E0,9.046664238E0
8.752387979E1,-2.360519648E0,2.901895761E0,9.156135559E0
8.802387979E1,-2.255235434E0,2.910868645E0,8.976674080E0
8.852387979E1,-2.197807550E0,3.001796007E0,9.043673515E0
8.902387979E1,-2.255235434E0,2.897109985E0,8.965308189E0
8.952387979E1,-2.327618122E0,2.949752092E0,9.012566566E0
9.002387979E1,-2.252842426E0,2.924029350E0,9.182456970E0
9.052387979E1,-2.261815548E0,2.975475073E0,9.135796547E0
9.102387979E1,-2.241476536E0,2.817548752E0,9.144171715E0
9.152387979E1,-2.243271112E0,2.914458036E0,9.094520569E0
9.202387979E1,-2.286342144E0,2.869592667E0,9.083154678E0
9.252387979E1,-2.183450699E0,2.935395241E0,9.142376900E0
9.302387979E1,-2.228316069E0,2.908475876E0,9.089137077E0
9.352387979E1,-2.242672920E0,2.889333248E0,9.124430656E0
9.402387979E1,-2.276770830E0,2.846262455E0,9.196813583E0
9.452387979E1,-2.311466694E0,2.752942562E0,9.046664238E0
9.502387979E1,-2.322234392E0,2.955734253E0,9.108279228E0
9.552387979E1,-2.332403898E0,2.804388046E0,9.067601204E0
9.602387979E1,-2.254039049E0,2.863610506E0,9.229715347E0
9.652387979E1,-2.303689957E0,2.885744095E0,9.080163956E0
9.702387979E1,-2.293520451E0,2.845664263E0,9.202795982E0
9.752387979E1,-2.322832584E0,2.837887764E0,9.160921097E0
9.802387979E1,-2.349751949E0,2.759522676E0,9.121439934E0
9.852387979E1,-2.348555326E0,2.816950560E0,9.126225471E0
9.902387979E1,-2.295913219E0,2.850450039E0,9.051449776E0
9.952387979E1,-2.397608280E0,2.766103029E0,9.141778946E0
1.000238798E2,-2.325823545E0,2.852244616E0,9.089137077E0
1.005238798E2,-2.295315027E0,2.854039192E0,9.057432175E0
1.010238798E2,-2.392822742E0,2.745165825E0,9.100502968E0
1.015238798E2,-2.334198475E0,2.739183664E0,9.210572243E0
1.020238798E2,-2.221735716E0,2.927020311E0,9.009575844E0
1.025238798E2,-2.316252232E0,2.766103029E0,9.132805824E0
1.030238798E2,-2.330609322E0,2.846262455E0,9.068798065E0
1.035238798E2,-2.362912416E0,2.851048231E0,9.040083885E0
1.040238798E2,-2.238485575E0,2.857030153E0,9.065208435E0
1.045238798E2,-2.294118643E0,2.787040234E0,9.123234749E0
1.050238798E2,-2.319841623E0,2.708675146E0,9.493523598E0
1.055238798E2,-2.288734913E0,2.740978241E0,9.097511292E0
1.060238798E2,-2.324028969E0,2.788834810E0,9.123234749E0
1.065238798E2,-2.341975212E0,2.752942562E0,9.057432175E0
1.070238798E2,-2.351546526E0,2.810968399E0,8.973084450E0
1.075238798E2,-2.453839540E0,2.697309256E0,9.036494255E0
1.080238798E2,-2.509472847E0,2.738585472E0,9.205786705E0
1.085238798E2,-2.372483730E0,2.694318295E0,9.131011009E0
1.090238798E2,-2.370688915E0,2.764308453E0,9.113663673E0
1.095238798E2,-2.396411896E0,2.633301258E0,9.347561836E0
1.100238798E2,-1.546959877E0,2.865405083E0,9.189635277E0
1.105238798E2,-2.011167526E0,2.697309256E0,9.199206352E0
1.110238798E2,-1.747956991E0,2.880958557E0,9.062217712E0
1.115238798E2,-1.791625977E0,2.738585472E0,9.252447128E0
1.120238798E2,-1.819741607E0,2.664407969E0,9.244071960E0
1.125238798E2,-1.812563181E0,2.739183664E0,9.253643036E0
1.130238798E2,-1.716850281E0,2.748156786E0,9.138788223E0
1.135238798E2,-1.783849239E0,2.746960402E0,9.226723671E0
1.140238798E2,-1.769492388E0,2.753540754E0,9.159725189E0
1.145238798E2,-1.731207132E0,2.790031195E0,8.979664803E0
1.150238798E2,-1.920240164E0,2.568695068E0,9.376275063E0
1.155238798E2,-1.735992789E0,2.706880569E0,9.225527763E0
1.160238798E2,-1.731207132E0,2.702095032E0,9.284152031E0
1.165238798E2,-1.822134495E0,2.668595552E0,9.272786140E0
1.170238798E2,-1.762912035E0,2.665604353E0,9.418149948E0
1.175238798E2,-1.834696770E0,2.616551638E0,9.281160355E0
1.180238798E2,-1.767697692E0,2.708675146E0,9.275776863E0
1.185238798E2,-1.507478237E0,2.844467878E0,9.065208435E0
1.190238798E2,-1.735992789E0,2.611167669E0,9.336793900E0
1.195238798E2,-1.697109461E0,2.681756020E0,9.231510162E0
1.200238798E2,-1.740180254E0,2.703889608E0,9.291928291E0
1.205238798E2,-1.729412556E0,2.713460922E0,9.230313301E0
1.210238798E2,-1.625923038E0,2.738585472E0,9.237491608E0
1.215238798E2,-1.715055585E0,2.742174864E0,9.279366493E0
1.220238798E2,-1.715055585E0,2.635694027E0,9.309276581E0
1.225238798E2,-1.670190215E0,2.600399971E0,9.396016121E0
1.230238798E2,-4.612165689E-1,3.602394581E0,9.118449211E0
1.235238798E2,4.576273263E-1,5.066802025E0,7.670193195E0
1.240238798E2,-4.067798555E-1,4.100101471E0,8.896514893E0
1.245238798E2,-3.888336718E-1,3.879363775E0,8.940781593E0
1.250238798E2,-4.959124923E-1,3.834498405E0,9.007781029E0
1.255238798E2,-5.108676553E-1,3.856033802E0,9.019744873E0
1.260238798E2,-3.954139352E-1,4.382454872E0,8.572885513E0
1.265238798E2,-3.433700502E-1,4.431507587E0,8.693722725E0
1.270238798E2,-3.637090325E-1,4.257429600E0,8.773882866E0
1.275238798E2,-3.894318938E-1,4.310071945E0,8.915657043E0
1.280238798E2,-4.977070987E-1,4.273581028E0,8.848658562E0
1.285238798E2,-4.480560422E-1,4.240081787E0,8.834300995E0
1.290238798E2,-4.803591371E-1,4.246063709E0,8.878568649E0
1.295238798E2,-4.671986103E-1,4.307080746E0,8.895318031E0
1.300238798E2,-4.654040039E-1,4.351347923E0,8.861818314E0
1.305238798E2,-4.965106845E-1,4.334000111E0,8.807381630E0
1.310238798E2,7.298108935E-2,4.423730850E0,8.837292671E0
1.315238798E2,7.334001660E-1,4.457230568E0,8.742177963E0
1.320238798E2,3.481557071E-1,4.554139614E0,8.724231720E0
1.325238798E2,5.024927258E-1,4.582853794E0,8.799605370E0
1.330238798E2,3.732803464E-1,4.546362877E0,8.897710800E0
1.335238798E2,4.941178858E-1,4.568496704E0,8.733802795E0
1.340238798E2,4.510470629E-1,4.543372154E0,8.868997574E0
1.345238798E2,4.450650215E-1,4.573880672E0,8.943174362E0
1.350238798E2,4.528416991E-1,4.551148891E0,8.845666885E0
1.355238798E2,5.503492355E-1,4.638486862E0,8.684749603E0
1.360238798E2,4.869394004E-1,4.657629490E0,8.651249886E0
1.365238798E2,6.640082598E-1,4.782654285E0,8.593822479E0
1.370238798E2,4.115654826E-1,4.467998028E0,8.990432739E0
1.375238798E2,3.505485058E-1,4.648057938E0,9.090931892E0
1.380238798E2,3.026920557E-1,4.557130814E0,8.733802795E0
1.385238798E2,1.064806059E-1,4.579862595E0,8.833105087E0
1.390238798E2,1.226321608E-1,4.626522541E0,8.714659691E0
1.395238798E2,1.016949639E-1,4.619942188E0,8.531609535E0
1.400238798E2,-3.469592705E-2,4.576871395E0,8.553742409E0
1.405238798E2,-1.214357466E-1,4.497310162E0,8.559724808E0
1.410238798E2,7.836493850E-2,4.683950424E0,8.612964630E0
1.415238798E2,8.973085135E-2,4.582853794E0,8.557929993E0
1.420238798E2,3.684946895E-1,4.741377831E0,8.587242126E0
1.425238798E2,4.606183618E-2,4.566701889E0,8.641678810E0
1.430238798E2,4.307080805E-2,4.688137531E0,8.311469078E0
1.435238798E2,-1.328016520E-1,4.731208801E0,8.606385231E0
1.440238798E2,-6.819544733E-2,4.512863636E0,8.478368759E0
1.445238798E2,-1.070788130E-1,4.634299278E0,8.608179092E0
1.450238798E2,-8.434699476E-2,4.498506546E0,8.775676727E0
1.455238798E2,-8.733802289E-2,4.555934429E0,8.378468513E0
1.460238798E2,2.213360928E-2,4.689932346E0,8.705088615E0
1.465238798E2,-3.427718580E-1,4.423730850E0,9.059226990E0
1.470238798E2,-2.997010350E-1,4.503292084E0,9.340383530E0
1.475238798E2,-1.950150430E-1,4.396213531E0,8.684749603E0
1.480238798E2,-1.740778536E-1,4.399802685E0,8.601598740E0
1.485238798E2,-7.573283911E-1,4.107878208E0,9.475577354E0
1.490238798E2,-1.519442350E-1,4.747360229E0,8.675178528E0
1.495238798E2,5.862415582E-2,4.873581409E0,8.644669533E0
1.500238798E2,-2.297109663E-1,4.413561344E0,9.037093163E0
1.505238798E2,-3.942175210E-1,4.718646049E0,9.062815666E0
1.510238798E2,-2.021935135E-1,5.144568920E0,8.874381065E0
1.515238798E2,-1.399801224E-1,4.884947300E0,9.026923180E0
1.520238798E2,1.292124242E-1,4.981856823E0,8.942576408E0
1.525238798E2,-2.745763958E-1,4.850849628E0,8.502297401E0
1.530238798E2,-3.541377485E-1,5.047659397E0,7.907082558E0
1.535238798E2,-2.650051117E-1,5.276772022E0,8.759525299E0
1.540238798E2,-7.214360237E-1,5.130211830E0,8.139185905E0
1.545238798E2,-8.697910309E-1,5.291129112E0,7.931010723E0
1.550238798E2,-3.397808075E-1,5.215157032E0,8.840881348E0
1.555238798E2,-1.266999602E0,4.898705959E0,8.692526817E0
1.560238798E2,-3.349951804E-1,5.126622677E0,8.189435959E0
1.565238798E2,-9.631111026E-1,4.653441906E0,8.903095245E0
1.570238798E2,-1.128215909E0,4.815555573E0,9.285347939E0
1.575238798E2,-8.919246197E-1,4.691727161E0,8.875576973E0
1.580238798E2,-1.025922656E0,4.727021217E0,8.988637924E0
1.585238798E2,-1.008574724E0,4.523631096E0,8.297112465E0
1.590238798E2,-9.750752449E-1,4.370490551E0,8.772088051E0
1.595238798E2,-9.200403094E-1,4.827519894E0,7.814958572E0
1.600238798E2,-1.111466169E0,4.692923546E0,8.236095428E0
1.605238798E2,-1.085145116E0,4.668995380E0,8.456234932E0
1.610238798E2,-1.089930773E0,4.589433670E0,8.678169250E0
1.615238798E2,-1.068395257E0,4.631308079E0,8.206185341E0
1.620238798E2,-1.298704505E0,4.354937077E0,8.799605370E0
1.625238798E2,-1.037288666E0,4.611567497E0,8.785248756E0
1.630238798E2,-1.124626637E0,4.656432629E0,8.738588333E0
1.635238798E2,-9.714859724E-1,4.638486862E0,8.184649467E0
1.640238798E2,-1.046261668E0,4.448855400E0,8.432307243E0
1.645238798E2,-1.274776220E0,4.235296249E0,9.062217712E0
1.650238798E2,-1.039681435E0,4.308875561E0,8.652446747E0
1.655238798E2,-1.140179992E0,4.284348965E0,8.682954788E0
1.660238798E2,-1.258624673E0,4.374079704E0,9.016156197E0
1.665238798E2,-1.255633712E0,4.408775806E0,8.931808472E0
1.670238798E2,-8.410771489E-1,4.338785648E0,9.099306107E0
1.675238798E2,-6.460621357E-1,4.318446636E0,9.079565048E0
1.680238798E2,-8.147560954E-1,4.301098824E0,8.749954224E0
1.685238798E2,-7.034898400E-1,4.086941242E0,9.175876617E0
1.690238798E2,-8.787640929E-1,3.680161238E0,8.695517540E0
1.695238798E2,-9.894321561E-1,4.192225456E0,8.459824562E0
1.700238798E2,-1.247258782E0,4.104887009E0,8.834300995E0
1.705238798E2,-1.313061476E0,4.032504559E0,9.020941734E0
1.710238798E2,-1.416550994E0,3.729214191E0,9.244071960E0
1.715238798E2,-1.604985833E0,3.671786308E0,9.127422333E0
1.720238798E2,-1.422533035E0,3.820739508E0,8.457431793E0
1.725238798E2,-1.517049551E0,3.614956856E0,8.689535141E0
1.730238798E2,-1.526620865E0,3.839882135E0,8.957531929E0
1.735238798E2,-1.366899967E0,4.133601189E0,9.305088997E0
1.740238798E2,-1.441675663E0,4.011567116E0,9.171091080E0
1.745238798E2,-1.159322619E0,3.780659676E0,8.963513374E0
1.750238798E2,-1.175474167E0,3.643670797E0,8.615358353E0
1.755238798E2,-1.386640668E0,3.753740549E0,9.061020851E0
1.760238798E2,-1.327418327E0,3.967299938E0,8.864809990E0
1.765238798E2,-1.240678549E0,4.125226021E0,9.376275063E0
1.770238798E2,-1.128215909E0,4.037888050E0,8.770293236E0
1.775238798E2,-1.216750264E0,4.061816216E0,8.660821915E0
1.780238798E2,-1.239482164E0,4.128815651E0,8.895318031E0
1.785238798E2,-1.246062398E0,3.834498405E0,8.343173981E0
1.790238798E2,-1.365703583E0,3.787240028E0,8.965308189E0
1.795238798E2,-1.355534077E0,3.927818298E0,8.794819832E0
1.800238798E2,-1.283749342E0,4.031308174E0,8.776873589E0
1.805238798E2,-1.323829174E0,3.997808456E0,8.617152214E0
1.810238798E2,-1.394417405E0,3.863212109E0,9.323633194E0
1.815238798E2,-1.336989641E0,3.958925009E0,8.556734085E0
1.820238798E2,-1.549352646E0,3.949951887E0,9.544371605E0
1.825238798E2,-1.405783296E0,3.777668715E0,8.969495773E0
1.830238798E2,-1.360319614E0,3.799802303E0,8.834300995E0
1.835238798E2,-1.448854089E0,3.958925009E0,9.168100357E0
1.840238798E2,-1.438684583E0,3.756731510E0,8.825926781E0
1.845238798E2,-1.575673699E0,4.070789337E0,9.110074043E0
1.850238798E2,-1.515254974E0,3.930809498E0,9.160921097E0
1.855238798E2,-1.450050473E0,3.885943890E0,8.770891190E0
1.860238798E2,-1.700698733E0,3.874577999E0,9.290732384E0
1.865238798E2,-1.231705427E0,3.908675671E0,8.543573380E0
1.870238798E2,-1.265205026E0,4.378865242E0,7.972885132E0
1.875238798E2,-1.420140266E0,4.515854359E0,8.368897438E0
1.880238798E2,-1.577468276E0,4.244867325E0,8.808578491E0
1.885238798E2,-2.327019930E0,4.018745422E0,8.617751122E0
1.890238798E2,-2.038684845E0,3.987638950E0,9.165707588E0
1.895238798E2,-2.062613010E0,3.951148272E0,9.287142754E0
1.900238798E2,-1.542772412E0,4.036093712E0,8.831310272E0
1.905238798E2,-1.612762451E0,3.732803345E0,8.708079338E0
1.910238798E2,-1.848455548E0,3.664607763E0,8.772088051E0
1.915238798E2,-1.853241086E0,3.658027649E0,9.040083885E0
1.920238798E2,-1.754537225E0,3.729214191E0,8.449654579E0
1.925238798E2,-1.794616938E0,3.810570002E0,8.545966148E0
1.930238798E2,-1.686341763E0,3.946960926E0,8.427521706E0
1.935238798E2,-1.801197290E0,3.965505362E0,8.676374435E0
1.940238798E2,-1.679761529E0,3.982853174E0,8.266604424E0
1.945238798E2,-1.871187329E0,3.806382656E0,8.888737679E0
1.950238798E2,-1.903490424E0,4.094717979E0,8.983852386E0
1.955238798E2,-1.652842283E0,4.072584152E0,8.459226608E0
1.960238798E2,-1.671984792E0,3.893720627E0,8.620741844E0
1.965238798E2,-1.805384636E0,4.130012035E0,9.016156197E0
1.970238798E2,-1.773679733E0,4.037888050E0,8.963513374E0
1.975238798E2,-2.190629244E0,4.042075634E0,9.266205788E0
1.980238798E2,-2.282752752E0,4.003790379E0,8.890532494E0
1.985238798E2,-2.056631088E0,4.127020836E0,8.598010063E0
1.990238798E2,-2.151745796E0,4.131208420E0,8.888737679E0
1.995238798E2,-2.157129526E0,4.007379532E0,8.376673698E0
2.000238798E2,-2.234896421E0,3.937389612E0,8.879166603E0
2.005238798E2,-2.014756680E0,4.070789337E0,8.650651932E0
2.010238798E2,-2.021337032E0,4.080958843E0,8.976076126E0
2.015238798E2,-1.700698733E0,3.885943890E0,8.755936623E0
2.020238798E2,-1.757528186E0,3.940380573E0,8.440681458E0
2.025238798E2,-1.944766641E0,3.764508247E0,8.548956871E0
2.030238798E2,-1.973480463E0,3.884149313E0,8.674580574E0
2.035238798E2,-1.995614052E0,3.927220106E0,8.547162056E0
2.040238798E2,-2.073380709E0,3.875176191E0,8.961718559E0
2.045238798E2,-2.116451740E0,3.832105398E0,8.846863747E0
2.050238798E2,-2.350948334E0,3.689732552E0,8.732605934E0
2.055238798E2,-2.267199516E0,3.638885021E0,9.011369705E0
2.060238798E2,-2.334198475E0,3.720241070E0,9.056235313E0
2.065238798E2,-2.331805706E0,3.836292982E0,8.646464348E0
2.070238798E2,-2.291127682E0,3.632304668E0,8.684151649E0
2.075238798E2,-2.209771633E0,3.734597921E0,8.821739197E0
2.080238798E2,-2.207977057E0,3.560520172E0,9.268598557E0
2.085238798E2,-2.097907305E0,3.764508247E0,8.916853905E0
2.090238798E2,-2.062613010E0,3.466601849E0,9.425926208E0
2.095238798E2,-2.009970903E0,3.635894060E0,9.157930374E0
2.100238798E2,-2.063809633E0,3.552743435E0,9.244669914E0
2.105238798E2,-2.086541414E0,3.561716557E0,9.006584167E0
2.110238798E2,-2.006381750E0,3.463610888E0,8.649456024E0
2.115238798E2,-2.086541414E0,3.338585854E0,8.668598175E0
2.120238798E2,-1.945963025E0,3.573082447E0,8.451449394E0
2.125238798E2,-2.242672920E0,3.388236761E0,8.697312355E0
2.130238798E2,-2.301895380E0,3.460021496E0,8.876175880E0
2.135238798E2,-2.423331022E0,3.356531858E0,8.976674080E0
2.140238798E2,-2.300100803E0,3.495315790E0,8.706883430E0
2.145238798E2,-2.270190477E0,3.480360508E0,8.617751122E0
2.150238798E2,-2.522035122E0,3.418745279E0,8.620741844E0
2.155238798E2,-2.450250387E0,3.421736479E0,8.721240044E0
2.160238798E2,-2.577668190E0,3.343969584E0,8.923434258E0
2.165238798E2,-2.557329178E0,3.415156126E0,8.648857117E0
2.170238798E2,-2.456232548E0,3.577867985E0,8.742177963E0
2.175238798E2,-2.590828657E0,3.448655605E0,8.714659691E0
2.180238798E2,-2.542374134E0,3.540181160E0,8.610571861E0
2.185238798E2,-2.464607239E0,3.377469063E0,8.874381065E0
2.190238798E2,-2.426322222E0,3.498306751E0,8.950951576E0
2.195238798E2,-2.468196630E0,3.391826153E0,9.033503532E0
2.200238798E2,-2.413759947E0,3.430111170E0,8.794221878E0
2.205238798E2,-2.517249346E0,3.444468260E0,8.775078773E0
2.210238798E2,-2.729612350E0,3.335594654E0,8.831310272E0
2.215238798E2,-2.511267424E0,3.442673683E0,8.909674644E0
2.220238798E2,-2.504088879E0,3.396013498E0,9.010173798E0
2.225238798E2,-2.508874655E0,3.434298754E0,8.966505051E0
2.230238798E2,-2.462812662E0,3.351148129E0,8.928817749E0
2.235238798E2,-2.426322222E0,3.399602890E0,8.806783676E0
2.240238798E2,-2.488535643E0,3.400799274E0,8.904291153E0
2.245238798E2,-2.519043922E0,3.389433384E0,8.901300430E0
2.250238798E2,-2.499303341E0,3.393022537E0,8.913862228E0
2.255238798E2,-2.481955290E0,3.396611691E0,8.840283394E0
2.260238798E2,-2.456232548E0,3.449253798E0,8.837890625E0
2.265238798E2,-2.417947292E0,3.396013498E0,8.861818314E0
2.270238798E2,-2.453839540E0,3.413361549E0,8.939585686E0
2.275238798E2,-2.415554523E0,3.372085333E0,8.856434822E0
2.280238798E2,-2.407179594E0,3.401397467E0,8.871390343E0
2.285238798E2,-2.513660192E0,3.334398270E0,8.994022369E0
2.290238798E2,-2.463410854E0,3.353540897E0,9.041878700E0
2.295238798E2,-2.461018085E0,3.349951744E0,8.950951576E0
2.300238798E2,-2.469393015E0,3.349951744E0,8.802596092E0
2.305238798E2,-2.458027124E0,3.375076294E0,8.861220360E0
2.310238798E2,-2.484946251E0,3.359523058E0,8.930013657E0
2.315238798E2,-2.499303341E0,3.361317635E0,8.907880783E0
2.320238798E2,-2.510669231E0,3.287738323E0,8.882157326E0
2.325238798E2,-2.341975212E0,3.332603693E0,8.885149002E0
2.330238798E2,-2.172683001E0,3.391826153E0,8.898308754E0
2.335238798E2,-2.121835470E0,3.366103172E0,8.936594009E0
2.340238798E2,-2.177468538E0,3.357728481E0,8.961718559E0
2.345238798E2,-2.257030010E0,3.341576815E0,8.883952141E0
2.350238798E2,-2.492124796E0,3.269792080E0,8.818747520E0
2.355238798E2,-1.738983870E0,3.244667530E0,9.128020287E0
2.360238798E2,-1.663609982E0,3.394817114E0,9.057432175E0
2.365238798E2,-1.681556106E0,3.394817114E0,8.842078209E0
2.370238798E2,-1.771885157E0,3.343371391E0,9.116654396E0
2.375238798E2,-1.798206210E0,3.399004459E0,9.132207870E0
2.380238798E2,-1.501496196E0,3.533600807E0,9.059226990E0
2.385238798E2,-1.168893814E0,3.762713671E0,8.832506180E0
2.390238798E2,-1.092323542E0,3.771088600E0,9.239884377E0
2.395238798E2,-1.012762189E0,3.768097401E0,9.093922615E0
2.400238798E2,-1.080359459E0,3.841078520E0,9.014361382E0
2.405238798E2,-1.129412293E0,3.753740549E0,9.108279228E0
2.410238798E2,-9.822536707E-1,3.874577999E0,8.827720642E0
2.415238798E2,-1.110269666E0,3.812364578E0,8.955139160E0
2.420238798E2,-1.051645517E0,3.757927895E0,9.145368576E0
2.425238798E2,-1.073180914E0,3.724428415E0,9.054440498E0
2.430238798E2,-9.714859724E-1,3.873381615E0,8.859425545E0
2.435238798E2,-1.109073281E0,3.796811342E0,9.000003815E0
2.440238798E2,-1.030110121E0,3.821935892E0,8.991030693E0
2.445238798E2,-1.012762189E0,3.839882135E0,8.966505051E0
2.450238798E2,-1.094118118E0,3.759722471E0,9.065806389E0
2.455238798E2,-1.074975610E0,3.740580082E0,8.961718559E0
2.460238798E2,-8.650053740E-1,3.832105398E0,9.062815666E0
2.465238798E2,-8.913264275E-1,3.857230186E0,8.762516975E0
2.470238798E2,-9.954141974E-1,3.851248026E0,8.933005333E0
2.475238798E2,-1.063609719E0,3.796213150E0,8.960522652E0
2.480238798E2,-9.332008362E-1,3.887140274E0,8.944371223E0
2.485238798E2,-1.088136077E0,3.823730469E0,8.952746391E0
2.490238798E2,-9.667003751E-1,3.825525284E0,9.202795982E0
2.495238798E2,-9.601200819E-1,3.798007727E0,8.995218277E0
2.500238798E2,-1.031904817E0,3.882952929E0,9.087940216E0
2.505238798E2,-9.888339639E-1,3.829712629E0,9.047860146E0
2.510238798E2,-1.011565804E0,3.821935892E0,9.076574326E0
2.515238798E2,-1.038485050E0,3.842873096E0,8.933603287E0
2.520238798E2,-7.052844763E-1,3.882354736E0,9.172286987E0
2.525238798E2,-7.848458290E-1,3.876372576E0,9.053244591E0
2.530238798E2,-8.171489239E-1,3.844667673E0,8.961718559E0
2.535238798E2,-8.069794178E-1,3.750749588E0,9.349356651E0
2.540238798E2,-7.501499057E-1,3.923032761E0,8.847461700E0
2.545238798E2,-7.525427341E-1,3.862015724E0,8.931210518E0
2.550238798E2,-1.180858016E0,3.792025566E0,9.057432175E0
2.555238798E2,-7.525427341E-1,4.112065792E0,8.711668968E0
2.560238798E2,-1.949552298E0,3.354737282E0,8.333004951E0
2.565238798E2,-2.949153781E-1,4.527220249E0,9.060422897E0
2.570238798E2,-5.946164131E-1,4.286741734E0,8.825926781E0
2.575238798E2,-6.496513486E-1,4.231706619E0,8.807381630E0
2.580238798E2,-7.980063558E-1,4.198805332E0,8.949156761E0
2.585238798E2,-5.515456200E-1,4.257429600E0,8.785248756E0
2.590238798E2,-1.052842021E0,4.179064751E0,8.713463783E0
2.595238798E2,-5.485545993E-1,4.102494240E0,8.993423462E0
2.600238798E2,-4.737788737E-1,4.089931965E0,8.992227554E0
2.605238798E2,-7.525427341E-1,4.071387768E0,8.874381065E0
2.610238798E2,-8.297112584E-1,4.088735580E0,8.937790871E0
2.615238798E2,-8.889335990E-1,4.150351048E0,8.976674080E0
2.620238798E2,-7.645068169E-1,4.208376884E0,8.826524734E0
2.625238798E2,-7.447660565E-1,4.156930923E0,8.874381065E0
2.630238798E2,-7.238288522E-1,4.187439442E0,8.805587769E0
2.635238798E2,-8.069794178E-1,4.128217220E0,8.918647766E0
2.640238798E2,-8.261220455E-1,4.113860130E0,8.967103004E0
2.645238798E2,-7.926225066E-1,4.136591911E0,8.894720078E0
2.650238798E2,-1.004985496E-1,4.194019794E0,8.626724243E0
2.655238798E2,-4.797609448E-1,4.327419758E0,8.863015175E0
2.660238798E2,-7.405785918E-1,4.183850288E0,8.927022934E0
2.665238798E2,-6.143572330E-1,4.124029636E0,8.839086533E0
2.670238798E2,-6.173482537E-1,4.121636868E0,9.019744873E0
2.675238798E2,-6.664010882E-1,4.068994999E0,8.993423462E0
2.680238798E2,-6.490531564E-1,4.059423447E0,9.011369705E0
2.685238798E2,-5.790630579E-1,4.211368084E0,8.852247238E0
2.690238798E2,-6.472585201E-1,4.315455437E0,8.585447311E0
2.695238798E2,-2.153540403E-1,4.293920040E0,8.883354187E0
2.700238798E2,1.130608693E-1,4.153940201E0,8.826524734E0
2.705238798E2,9.553344250E-1,4.254438877E0,8.976076126E0
2.710238798E2,7.495517135E-1,4.219742775E0,8.946166039E0
2.715238798E2,6.927221417E-1,4.230510235E0,8.918647766E0
2.720238798E2,5.964110494E-1,4.147958279E0,8.971888542E0
2.725238798E2,5.760720372E-1,4.194019794E0,8.846863747E0
2.730238798E2,5.521438122E-1,4.189234257E0,8.920442581E0
2.735238798E2,5.300102234E-1,4.238286972E0,8.785248756E0
2.740238798E2,4.995017350E-1,4.095315933E0,9.143573761E0
2.745238798E2,6.221339107E-1,4.126422882E0,8.998209953E0
2.750238798E2,6.173482537E-1,4.155734539E0,9.206384659E0
2.755238798E2,6.000002623E-1,4.152145386E0,8.572287560E0
2.760238798E2,5.156532526E-1,3.949951887E0,9.236295700E0
2.765238798E2,5.371887088E-1,3.906282902E0,8.989236832E0
2.770238798E2,6.873382926E-1,4.089931965E0,8.971290588E0
2.775238798E2,6.472585201E-1,4.033102512E0,8.773283958E0
2.780238798E2,5.150550604E-1,4.093521118E0,9.288937569E0
2.785238798E2,3.475574851E-1,4.114458561E0,9.285946846E0
2.790238798E2,4.677968323E-1,3.967299938E0,9.415159225E0
2.795238798E2,4.749752879E-1,4.236492634E0,8.773283958E0
2.800238798E2,5.407779217E-1,4.094717979E0,9.024530411E0
2.805238798E2,1.022931710E-1,4.091726780E0,9.143573761E0
2.810238798E2,4.462614357E-1,3.967299938E0,8.920442581E0
2.815238798E2,2.327020019E-1,3.997808456E0,9.335597992E0
2.820238798E2,2.309073806E-1,4.165306091E0,8.945567131E0
2.825238798E2,2.548356056E-1,4.131208420E0,7.992027760E0
2.830238798E2,1.387837082E-1,3.834498405E0,9.089137077E0
2.835238798E2,-4.785645287E-3,3.865006685E0,9.041878700E0
2.840238798E2,1.136590764E-1,4.260420799E0,8.734998703E0
2.845238798E2,1.836491376E-1,3.926023722E0,8.964710236E0
2.850238798E2,-4.007977992E-2,4.189234257E0,9.162715912E0
2.855238798E2,-2.644068897E-1,3.847658873E0,8.980861664E0
2.860238798E2,8.374879137E-3,3.972085476E0,8.803792953E0
2.865238798E2,-3.828516230E-2,3.911666870E0,8.888139725E0
2.870238798E2,-3.888336718E-1,3.834498405E0,8.892925262E0
2.875238798E2,-3.062812984E-1,3.702893019E0,9.320642471E0
2.880238798E2,-4.187439755E-2,3.913461447E0,8.780462265E0
2.885238798E2,-3.768695593E-1,3.611367464E0,9.071788788E0
2.890238798E2,-3.098705411E-1,3.323032379E0,8.628518105E0
2.895238798E2,-6.017948985E-1,3.591028690E0,8.858229637E0
2.900238798E2,-9.427721500E-1,3.339184046E0,9.255437851E0
2.905238798E2,-1.392622828E0,3.631108284E0,9.419944763E0
2.910238798E2,-1.000199914E0,3.455235958E0,8.961718559E0
2.915238798E2,-1.158126116E0,3.571287870E0,8.712865829E0
2.920238798E2,-1.152144074E0,3.313461065E0,8.547162056E0
2.925238798E2,-1.046261668E0,3.377469063E0,9.473783493E0
2.930238798E2,-1.266999602E0,3.362514019E0,9.344570160E0
2.935238798E2,-1.190429211E0,3.579662561E0,9.089137077E0
2.940238798E2,-1.137787223E0,3.522234917E0,9.249456406E0
2.945238798E2,-1.222134113E0,3.774079561E0,8.916853905E0
2.950238798E2,-1.212562919E0,3.862015724E0,9.137591362E0
2.955238798E2,-1.197607756E0,3.600001574E0,9.147162437E0
2.960238798E2,-1.059422255E0,4.124029636E0,8.895318031E0
2.965238798E2,-9.607182741E-1,4.010370731E0,8.906085968E0
2.970238798E2,-1.033699393E0,4.080958843E0,8.601598740E0
2.975238798E2,-1.063609719E0,4.189234257E0,8.964710236E0
2.980238798E2,-1.038485050E0,4.241876125E0,9.006584167E0
2.985238798E2,-1.086341500E0,4.275375843E0,8.746963501E0
2.990238798E2,-9.918249846E-1,4.267001152E0,9.177073479E0
2.995238798E2,-8.596215248E-1,4.629513741E0,8.644669533E0
3.000238798E2,-1.063609719E0,4.246662140E0,8.993423462E0
3.005238798E2,-9.475577474E-1,4.364508629E0,9.033503532E0
3.010238798E2,-1.111466169E0,4.238286972E0,9.285946846E0
3.015238798E2,-1.048056364E0,4.432703972E0,8.942576408E0
3.020238798E2,-8.596215248E-1,4.270590305E0,8.788239479E0
3.025238798E2,-9.391828775E-1,4.219742775E0,8.847461700E0
3.030238798E2,-1.065404296E0,3.963710785E0,9.251849174E0
3.035238798E2,-7.351947427E-1,4.053441525E0,8.915657043E0
3.040238798E2,-7.357929349E-1,3.838087559E0,8.907880783E0
3.045238798E2,-6.496513486E-1,3.897309780E0,8.732007980E0
3.050238798E2,-1.022931695E0,3.874577999E0,9.046066284E0
3.055238798E2,-7.884350419E-1,3.938585997E0,8.876175880E0
3.060238798E2,-1.135394335E0,3.683750391E0,9.282955170E0
3.065238798E2,-1.040279627E0,3.662813187E0,9.242277145E0
3.070238798E2,-9.571290612E-1,3.802793503E0,9.146564484E0
3.075238798E2,-1.065404296E0,3.609572887E0,9.153144836E0
3.080238798E2,-1.057627559E0,3.735794306E0,9.028717995E0
3.085238798E2,-8.440681696E-1,3.823730469E0,8.875576973E0
3.090238798E2,-9.792626500E-1,3.748356581E0,8.824729919E0
3.095238798E2,-1.045065284E0,3.669393539E0,8.783453941E0
3.100238798E2,-1.001994491E0,3.735794306E0,9.132805824E0
3.105238798E2,-1.039681435E0,3.704089403E0,8.916853905E0
3.110238798E2,-9.314061999E-1,3.817748547E0,9.034101486E0
3.115238798E2,-8.967102766E-1,3.766302824E0,9.140582085E0
3.120238798E2,-9.367900491E-1,3.777070522E0,9.025727272E0
3.125238798E2,-1.046261668E0,3.605385542E0,9.138788223E0
3.130238798E2,-9.702895880E-1,3.533600807E0,9.472586632E0
3.135238798E2,-9.074779749E-1,3.780659676E0,8.994022369E0
3.140238798E2,-1.322034478E0,3.641875982E0,9.022735596E0
3.145238798E2,-1.137188911E0,3.640679598E0,8.769096375E0
3.150238798E2,-9.379864931E-1,3.535395384E0,9.268598557E0
3.155238798E2,-8.584251404E-1,3.590430260E0,9.119645119E0
3.160238798E2,-1.213759303E0,3.506681681E0,8.692526817E0
3.165238798E2,-1.243071318E0,3.549752474E0,9.372088432E0
3.170238798E2,-1.138983607E0,3.457030535E0,9.083154678E0
3.175238798E2,-1.018146038E0,3.643670797E0,8.916853905E0
3.180238798E2,-1.164706469E0,3.542573929E0,9.296713829E0
3.185238798E2,-1.319043517E0,3.480360508E0,9.257232666E0
3.190238798E2,-1.080359459E0,3.917648792E0,8.819944382E0
3.195238798E2,-1.362712502E0,3.769293785E0,9.476774216E0
3.200238798E2,-1.061216831E0,4.040879250E0,8.528019905E0
3.205238798E2,-1.570888042E0,3.805784464E0,9.866804123E0
3.210238798E2,-1.333400369E0,3.932005882E0,8.544171333E0
3.215238798E2,-1.612762451E0,3.989433527E0,8.912666321E0
3.220238798E2,-1.835893154E0,3.734597921E0,8.681160927E0
3.225238798E2,-1.338186026E0,4.104289055E0,8.772088051E0
3.230238798E2,-1.243071318E0,4.200001717E0,8.782855988E0
3.235238798E2,-1.477568030E0,3.920639992E0,8.833105087E0
3.240238798E2,-1.611566067E0,3.722035646E0,9.163313866E0
3.245238798E2,-1.494915962E0,3.889533281E0,8.885149002E0
3.250238798E2,-1.764706731E0,3.571886063E0,9.561718941E0
3.255238798E2,-1.735394597E0,3.491726398E0,9.210572243E0
3.260238798E2,-1.633101463E0,3.555734396E0,9.144171715E0
3.265238798E2,-1.807777524E0,3.260220766E0,9.402596474E0
3.270238798E2,-1.553540111E0,3.335594654E0,9.403793335E0
3.275238798E2,-1.532602906E0,3.485744476E0,8.971888542E0
3.280238798E2,-1.384247899E0,3.581457376E0,9.086145401E0
3.285238798E2,-1.470389485E0,3.501895905E0,9.375079155E0
3.290238798E2,-1.472184181E0,3.453441381E0,9.187242508E0
3.295238798E2,-1.412961721E0,3.405584812E0,8.824729919E0
3.300238798E2,-1.360917926E0,3.187239647E0,9.043673515E0
3.305238798E2,-1.339980721E0,3.208176851E0,9.268000603E0
3.310238798E2,-1.183250785E0,3.334398270E0,9.172286987E0
3.315238798E2,-1.518245935E0,3.021536827E0,9.363713264E0
3.320238798E2,-1.520040631E0,3.142972469E0,9.093922615E0
3.325238798E2,-1.681556106E0,3.097508907E0,9.102297783E0
3.330238798E2,-1.555334687E0,3.239881754E0,8.995817184E0
3.335238798E2,-1.601396561E0,3.358326674E0,9.122636795E0
3.340238798E2,-1.755135417E0,3.131008387E0,8.860024452E0
3.345238798E2,-1.837687731E0,3.329612732E0,8.947959900E0
3.350238798E2,-2.030309916E0,3.126821041E0,9.131011009E0
3.355238798E2,-1.601994753E0,3.487539053E0,9.031708717E0
3.360238798E2,-1.865205288E0,3.200400352E0,9.093922615E0
3.365238798E2,-1.927418590E0,3.172882795E0,9.191430092E0
3.370238798E2,-1.831705689E0,3.343969584E0,9.048459053E0
3.375238798E2,-1.844268084E0,3.126821041E0,9.113663673E0
3.380238798E2,-1.780260086E0,3.198605776E0,9.020941734E0
3.385238798E2,-1.514058471E0,3.376870871E0,8.968298912E0
3.390238798E2,-1.179063320E0,3.576671600E0,9.000003815E0
3.395238798E2,-1.223928809E0,3.678366661E0,9.035298347E0
3.400238798E2,-1.266999602E0,3.678366661E0,8.961718559E0
3.405238798E2,-1.299900889E0,3.672384501E0,8.998209953E0
3.410238798E2,-1.419542074E0,3.597010612E0,9.031708717E0
3.415238798E2,-1.314856052E0,3.558725595E0,9.105288506E0
3.420238798E2,-1.330409408E0,3.627519131E0,8.886942863E0
3.425238798E2,-1.408176184E0,3.731008768E0,9.067601204E0
3.430238798E2,-1.295713425E0,3.884149313E0,9.017352104E0
3.435238798E2,-1.269392371E0,3.987638950E0,8.982656479E0
3.440238798E2,-1.319043517E0,3.878167391E0,8.971290588E0
3.445238798E2,-9.678967595E-1,4.112065792E0,8.693722725E0
3.450238798E2,-1.531406522E0,4.244867325E0,9.007781029E0
3.455238798E2,-1.581057549E0,4.235296249E0,8.713463783E0
3.460238798E2,-1.554138303E0,4.343571186E0,8.586644173E0
3.465238798E2,-1.300499082E0,4.402793884E0,9.022137642E0
3.470238798E2,-9.224331379E-1,4.512863636E0,8.701499939E0
3.475238798E2,-1.716850281E0,4.137788773E0,9.239286423E0
3.480238798E2,-1.438684583E0,4.626522541E0,8.459226608E0
3.485238798E2,-1.410568953E0,4.570291042E0,8.785248756E0
3.490238798E2,-1.092323542E0,4.672584534E0,8.969495773E0
3.495238798E2,-1.711466432E0,4.480560303E0,8.687741280E0
3.500238798E2,-1.068395257E0,4.439882278E0,9.062815666E0
3.505238798E2,-6.424728632E-1,4.710869789E0,8.577073097E0
3.510238798E2,-1.003789067E0,4.761716843E0,8.621937752E0
3.515238798E2,-1.323829174E0,4.837090969E0,8.189435959E0
3.520238798E2,-9.990034699E-1,4.457230568E0,8.778668404E0
3.525238798E2,-8.578268886E-1,4.517649174E0,8.734998703E0
3.530238798E2,-1.004985452E0,4.611567497E0,8.863015175E0
3.535238798E2,-8.087740541E-1,4.956732273E0,8.343173981E0
3.540238798E2,-9.655039310E-1,4.519443989E0,7.768897057E0
3.545238798E2,-8.817551732E-1,4.564309120E0,8.416155815E0
3.550238798E2,-4.929214716E-1,4.275375843E0,8.890532494E0
3.555238798E2,-5.084748268E-1,4.329812527E0,8.553742409E0
3.560238798E2,-4.438686073E-1,4.131208420E0,8.890532494E0
3.565238798E2,-3.714857101E-1,4.085146427E0,8.967103004E0
3.570238798E2,-2.775674164E-1,4.152145386E0,8.822935104E0
3.575238798E2,-4.989035130E-1,4.067798615E0,9.023932457E0
3.580238798E2,-5.156532526E-1,4.008575916E0,9.046066284E0
3.585238798E2,-6.011967063E-1,4.009174347E0,9.080163956E0
3.590238798E2,-5.886343718E-1,4.005585194E0,9.135796547E0
3.595238798E2,-5.569294691E-1,4.069592953E0,8.831310272E0
3.600238798E2,-6.047859192E-1,3.944568157E0,9.031708717E0
3.605238798E2,-5.706881881E-1,4.085146427E0,8.889934540E0
3.610238798E2,-4.803591371E-1,4.016352654E0,8.621937752E0
3.615238798E2,-3.541377485E-1,4.021736622E0,8.974281311E0
3.620238798E2,-4.833501875E-1,3.970889091E0,9.046066284E0
3.625238798E2,-5.754738450E-1,4.051646709E0,8.867800713E0
3.630238798E2,-3.750749528E-1,4.052245140E0,8.779864311E0
3.635238798E2,-4.660021961E-1,4.061816216E0,8.788239479E0
3.640238798E2,-3.816552162E-1,4.160520554E0,8.084749222E0
3.645238798E2,-4.977070987E-1,4.008575916E0,9.215357780E0
3.650238798E2,-4.181457460E-1,4.036093712E0,9.053244591E0
3.655238798E2,-5.102694035E-1,4.019941807E0,9.077172279E0
3.660238798E2,-5.359922647E-1,4.028316975E0,8.987442017E0
3.665238798E2,-5.982056856E-1,4.018147469E0,8.897710800E0
3.670238798E2,-4.881358147E-1,4.160520554E0,9.400203705E0
3.675238798E2,-4.295116663E-1,4.008575916E0,8.955139160E0
3.680238798E2,-3.942175210E-1,4.016951084E0,8.952147484E0
3.685238798E2,-3.475574851E-1,4.079164505E0,8.738588333E0
3.690238798E2,-4.031906128E-1,4.055236340E0,8.886942863E0
3.695238798E2,-4.307080805E-1,4.046861172E0,8.974879265E0
3.700238798E2,-5.443671346E-1,4.021736622E0,9.004789352E0
3.705238798E2,-3.942175210E-1,4.097708702E0,8.916853905E0
3.710238798E2,-4.307080805E-1,4.055236340E0,8.921639442E0
3.715238798E2,-4.510470629E-1,4.037888050E0,8.917451859E0
3.720238798E2,-3.302095234E-1,4.022933006E0,8.922237396E0
3.725238798E2,-3.445664644E-1,4.100101471E0,8.888139725E0
3.730238798E2,-3.062812984E-1,4.090530396E0,8.985647202E0
3.735238798E2,-4.725824594E-1,4.001996040E0,8.928219795E0
3.740238798E2,-4.707878530E-1,4.042075634E0,8.896514893E0
3.745238798E2,-5.395814776E-1,4.101297855E0,9.012566566E0
3.750238798E2,-5.204389095E-1,3.986442566E0,8.937790871E0
3.755238798E2,-5.850451589E-1,3.956532240E0,8.874381065E0
3.760238798E2,-5.778666735E-1,3.988237143E0,9.014959335E0
3.765238798E2,-5.485545993E-1,4.009174347E0,8.965308189E0
3.770238798E2,-6.107679605E-1,4.042674065E0,8.976076126E0
3.775238798E2,-5.922235847E-1,4.061218262E0,8.839086533E0
3.780238798E2,2.949153781E-1,4.004388809E0,8.998807907E0
3.785238798E2,5.347958803E-1,3.911666870E0,9.068798065E0
3.790238798E2,7.369893789E-1,3.761517286E0,9.050851822E0
3.795238798E2,3.475574851E-1,3.747160196E0,9.223732948E0
3.800238798E2,4.372883439E-1,3.648456335E0,9.195018768E0
3.805238798E2,1.609173268E-1,3.573680639E0,9.316454887E0
3.810238798E2,1.818545163E-1,3.510869026E0,9.224929810E0
3.815238798E2,1.130608693E-1,3.541377544E0,9.211171150E0
3.820238798E2,8.135596663E-2,3.482155085E0,9.228518486E0
3.825238798E2,7.058826834E-2,3.335594654E0,9.399007797E0
3.830238798E2,6.580262631E-2,3.396611691E0,9.424132347E0
3.835238798E2,6.819544733E-2,3.387040377E0,9.279366493E0
3.840238798E2,-1.136590764E-1,3.443870068E0,9.389435768E0
3.845238798E2,-9.894321561E-1,3.410968781E0,9.108877182E0
3.850238798E2,-1.365105271E0,3.148954630E0,9.181859016E0
3.855238798E2,-1.290927768E0,3.171088219E0,9.127422333E0
3.860238798E2,-1.636690736E0,3.068794966E0,9.153144836E0
3.865238798E2,-1.631905079E0,3.023331404E0,9.174081802E0
3.870238798E2,-1.659422517E0,3.080759048E0,9.201599121E0
3.875238798E2,-1.885544300E0,2.903690338E0,9.078369141E0
3.880238798E2,-1.615753531E0,2.958725214E0,9.147162437E0
3.885238798E2,-1.418345571E0,2.999403238E0,9.175278664E0
3.890238798E2,-1.403390527E0,2.904886723E0,9.308079720E0
3.895238798E2,-1.533201098E0,2.949752092E0,9.177073479E0
3.900238798E2,-1.357926846E0,2.847458839E0,9.400203705E0
3.905238798E2,-1.587637782E0,2.705684185E0,9.262018204E0
3.910238798E2,-1.564906001E0,2.842673302E0,9.227920532E0
3.915238798E2,-1.539183140E0,2.711666346E0,9.234500885E0
3.920238798E2,-1.365105271E0,2.978466034E0,9.336793900E0
3.925238798E2,-1.523629785E0,2.843869686E0,9.260223389E0
3.930238798E2,-1.373480201E0,2.876172781E0,9.056235313E0
3.935238798E2,-1.436890006E0,2.919243574E0,9.312865257E0
3.940238798E2,-1.371685624E0,2.810370207E0,9.299705505E0
3.945238798E2,-1.384846091E0,3.014956474E0,9.241081238E0
3.950238798E2,-1.274178028E0,2.974876642E0,9.247062683E0
3.955238798E2,-1.233500123E0,3.019742250E0,9.190233231E0
3.960238798E2,-1.333400369E0,2.964108944E0,9.277571678E0
3.965238798E2,-1.317248821E0,3.056232691E0,9.359525681E0
3.970238798E2,-1.264606714E0,2.976671457E0,9.108877182E0
3.975238798E2,-1.234696507E0,3.089732170E0,9.136993408E0
3.980238798E2,-1.212562919E0,3.107080221E0,9.285946846E0
3.985238798E2,-1.214357495E0,3.038884640E0,9.213563919E0
3.990238798E2,-1.329213023E0,3.054438114E0,9.261420250E0
3.995238798E2,-1.077966571E0,3.181257725E0,9.107083321E0
4.000238798E2,-1.450050473E0,3.091526747E0,9.023932457E0
4.005238798E2,-1.453639746E0,3.090330362E0,9.171091080E0
4.010238798E2,-1.419542074E0,3.018545866E0,9.287142754E0
4.015238798E2,-1.338784218E0,3.227319479E0,8.940781593E0
4.020238798E2,-1.417747378E0,3.066402197E0,9.143573761E0
4.025238798E2,-1.421336651E0,3.209971666E0,9.093922615E0
4.030238798E2,-1.438684583E0,3.147160053E0,9.290732384E0
4.035238798E2,-1.458425403E0,3.266801119E0,9.221938133E0
4.040238798E2,-1.384846091E0,3.403790236E0,9.060422897E0
4.045238798E2,-1.395613790E0,3.158525944E0,8.928817749E0
4.050238798E2,-1.342971683E0,3.577867985E0,8.987442017E0
4.055238798E2,-1.397408366E0,3.252444267E0,9.365508080E0
4.060238798E2,-1.439282775E0,3.311666489E0,9.154939651E0
4.065238798E2,-1.409970760E0,3.318246841E0,9.181859016E0
4.070238798E2,-1.480558991E0,3.316452265E0,9.221938133E0
4.075238798E2,-1.441675663E0,3.422932863E0,9.143573761E0
4.080238798E2,-1.290927768E0,3.356531858E0,9.094520569E0
4.085238798E2,-1.367498159E0,3.365504980E0,8.805587769E0
4.090238798E2,-1.357328653E0,3.453441381E0,8.995817184E0
4.095238798E2,-1.451246977E0,3.308675528E0,8.992227554E0
4.100238798E2,-1.433898926E0,3.260220766E0,9.150154114E0
4.105238798E2,-1.331605792E0,3.238685369E0,9.198010445E0
4.110238798E2,-1.515853167E0,3.223730326E0,9.288937569E0
4.115238798E2,-1.514058471E0,3.253042459E0,9.247661591E0
4.120238798E2,-1.335195065E0,3.292523861E0,8.987442017E0
4.125238798E2,-1.369890928E0,3.098107100E0,9.266205788E0
4.130238798E2,-1.506281853E0,3.019742250E0,9.400203705E0
4.135238798E2,-1.409970760E0,3.138186932E0,9.341579437E0
4.140238798E2,-1.292124271E0,3.175873756E0,9.411569595E0
4.145238798E2,-1.312463164E0,3.043670416E0,9.443274498E0
4.150238798E2,-1.332203984E0,3.201596737E0,9.412167549E0
4.155238798E2,-1.301695466E0,3.232105255E0,9.355937004E0
4.160238798E2,-1.335195065E0,3.138186932E0,9.538987160E0
4.165238798E2,-1.307677627E0,2.952743053E0,9.212367058E0
4.170238798E2,-1.226321578E0,3.154936552E0,9.097511292E0
4.175238798E2,-1.319043517E0,3.090330362E0,9.275776863E0
4.180238798E2,-1.345962763E0,3.334398270E0,9.241081238E0
4.185238798E2,-1.367498159E0,3.131008387E0,9.301499367E0
4.190238798E2,-1.238285661E0,3.157329559E0,9.194420815E0
4.195238798E2,-1.279561877E0,3.184248686E0,9.266205788E0
4.200238798E2,-1.336989641E0,3.029313564E0,9.254241943E0
4.205238798E2,-9.607182741E-1,3.393022537E0,9.091529846E0
4.210238798E2,-9.858429432E-1,3.769293785E0,8.711071014E0
4.215238798E2,-1.884347796E-1,3.763311863E0,9.622138023E0
4.220238798E2,-1.405783296E-1,4.240081787E0,9.165707588E0
4.225238798E2,-3.990031779E-1,4.348356724E0,8.632107735E0
4.230238798E2,-6.107679605E-1,4.039084435E0,9.013164520E0
4.235238798E2,-4.677968323E-1,4.399802685E0,8.973084450E0
4.240238798E2,-4.516452849E-1,4.651647091E0,8.538787842E0
4.245238798E2,-1.502692580E0,4.153940201E0,5.988636971E0
4.250238798E2,5.383851007E-2,4.941776752E0,8.742177963E0
4.255238798E2,-2.823530734E-1,5.246263504E0,8.088936806E0
4.260238798E2,-1.674975902E-1,4.797011375E0,8.917451859E0
4.265238798E2,3.050848842E-1,5.034498692E0,8.620143890E0
4.270238798E2,9.750752151E-2,5.144568920E0,8.404789925E0
4.275238798E2,4.803591371E-1,5.160720348E0,8.971888542E0
4.280238798E2,2.261217386E-1,4.956133842E0,8.532805443E0
4.285238798E2,1.950150430E-1,4.707878590E0,8.598608017E0
4.290238798E2,3.553341627E-1,5.054837704E0,8.282755852E0
4.295238798E2,2.679961324E-1,4.920839787E0,8.462815285E0
4.300238798E2,2.602194548E-1,4.839483738E0,8.603393555E0
4.305238798E2,3.062812984E-1,4.903491974E0,8.809176445E0
4.310238798E2,3.266202807E-1,4.828716278E0,8.260024071E0
4.315238798E2,-4.115654826E-1,5.037489891E0,8.306085587E0
4.320238798E2,-4.175475538E-1,5.010570526E0,8.611170769E0
4.325238798E2,-3.098705411E-1,5.005784988E0,8.126026154E0
4.330238798E2,2.141576260E-1,4.908277512E0,8.438887596E0
4.335238798E2,-3.349951655E-2,4.971088886E0,8.428717613E0
4.340238798E2,-2.518445849E-1,4.886143684E0,8.646464348E0
4.345238798E2,-2.901297510E-1,4.840082169E0,8.425726891E0
4.350238798E2,-5.060819983E-1,4.667200565E0,8.645866394E0
4.355238798E2,-4.133601189E-1,4.726422787E0,8.531010628E0
4.360238798E2,-4.295116663E-1,4.801198483E0,8.797810555E0
4.365238798E2,-3.493520916E-1,4.614558697E0,8.513663292E0
4.370238798E2,-3.655036688E-1,4.582853794E0,8.691927910E0
4.375238798E2,-4.486542344E-1,4.596014023E0,8.427521706E0
4.380238798E2,-3.170489892E-2,4.566701889E0,8.641678810E0
4.385238798E2,-1.567298770E-1,4.495515347E0,8.979664803E0
4.390238798E2,-6.257231236E-1,4.570291042E0,8.602795601E0
4.395238798E2,-2.955136001E-1,4.538586140E0,8.169096947E0
4.400238798E2,-2.344966233E-1,4.652843475E0,8.620143890E0
4.405238798E2,-3.457628787E-1,4.524229527E0,8.850452423E0
4.410238798E2,-2.919243574E-1,4.532006264E0,8.870791435E0
4.415238798E2,-3.170489967E-1,4.584648132E0,8.889934540E0
4.420238798E2,-3.098705411E-1,4.601995945E0,8.839086533E0
4.425238798E2,9.750752151E-2,4.438087940E0,8.784649849E0
4.430238798E2,-7.477571070E-2,4.536791801E0,8.979664803E0
4.435238798E2,-3.948157281E-2,4.490729809E0,8.669795036E0
4.440238798E2,4.666004330E-2,4.391427994E0,8.786444664E0
4.445238798E2,-3.385843933E-1,4.207778454E0,8.853444099E0
4.450238798E2,-3.768695593E-1,3.909872293E0,8.993423462E0
4.455238798E2,-4.576273263E-1,4.052245140E0,9.110671997E0
4.460238798E2,-4.815555513E-1,3.847658873E0,8.869595528E0
4.465238798E2,-3.696911037E-1,4.050450325E0,8.988637924E0
4.470238798E2,-4.462614357E-1,3.970290899E0,8.716454506E0
4.475238798E2,-4.037888348E-1,4.150949001E0,8.541180611E0
4.480238798E2,-5.228317380E-1,4.150351048E0,8.734998703E0
4.485238798E2,-5.491527915E-1,4.232305050E0,8.557929993E0
4.490238798E2,-5.198407173E-1,4.198207378E0,8.765507698E0
4.495238798E2,-5.371887088E-1,4.308277130E0,8.631509781E0
4.500238798E2,-5.838487148E-1,4.409373760E0,8.537590981E0
4.505238798E2,-5.647061467E-1,4.720440865E0,8.057829857E0
4.510238798E2,-5.904290080E-1,4.365705013E0,8.028517723E0
4.515238798E2,-7.004988194E-1,4.180859566E0,8.587242126E0
4.520238798E2,-9.475577474E-1,3.803391695E0,8.593822479E0
4.525238798E2,-1.531406522E0,3.793222189E0,8.994022369E0
4.530238798E2,-1.381256819E0,3.729214191E0,9.110671997E0
4.535238798E2,-1.235892892E0,4.080360889E0,9.303294182E0
4.540238798E2,-1.201196909E0,4.107280254E0,8.712865829E0
4.545238798E2,-1.338784218E0,3.988237143E0,8.783453941E0
4.550238798E2,-1.422533035E0,3.908675671E0,8.624929428E0
4.555238798E2,-1.266401410E0,4.096512318E0,8.371290207E0
4.560238798E2,-1.573280931E0,3.702294827E0,8.976076126E0
4.565238798E2,-1.374676585E0,4.128217220E0,8.743373871E0
4.570238798E2,-1.303490162E0,3.911068678E0,8.976076126E0
4.575238798E2,-1.475175142E0,4.091726780E0,8.718249321E0
4.580238798E2,-1.568495274E0,4.066602230E0,8.778668404E0
4.585238798E2,-1.735394597E0,3.951148272E0,9.001798630E0
4.590238798E2,-1.748555183E0,3.932005882E0,8.826524734E0
4.595238798E2,-1.460818172E0,4.085744858E0,8.992227554E0
4.600238798E2,-1.810170293E0,3.973282099E0,8.852247238E0
4.605238798E2,-1.767099500E0,4.022933006E0,8.416753769E0
4.610238798E2,-1.296909928E0,3.877569199E0,8.930013657E0
4.615238798E2,-1.307677627E0,4.466203690E0,8.824729919E0
4.620238798E2,-7.992027402E-1,4.449453831E0,7.957331657E0
4.625238798E2,-1.298106313E0,4.597808838E0,8.513663292E0
4.630238798E2,-1.400997639E0,4.212564468E0,8.713463783E0
4.635238798E2,-1.475773335E0,4.274777889E0,8.803792953E0
4.640238798E2,-1.409970760E0,4.287938118E0,8.773283958E0
4.645238798E2,-1.360917926E0,4.143172264E0,8.496315002E0
4.650238798E2,-1.716252089E0,3.954737663E0,9.040083885E0
4.655238798E2,-1.628315806E0,3.964308977E0,8.789435387E0
4.660238798E2,-1.426122308E0,3.867997885E0,8.819944382E0
4.665238798E2,-1.530210137E0,3.851248026E0,8.916853905E0
4.670238798E2,-1.701895118E0,3.807579041E0,8.919246674E0
4.675238798E2,-1.692323804E0,3.795016766E0,8.828319550E0
4.680238798E2,-1.795813441E0,3.754936934E0,8.990432739E0
4.685238798E2,-1.807179332E0,3.793820381E0,8.921639442E0
4.690238798E2,-1.805384636E0,3.673580885E0,8.983852386E0
4.695238798E2,-1.791625977E0,3.723232031E0,8.933603287E0
4.700238798E2,-1.357328653E0,3.774079561E0,8.938388824E0
4.705238798E2,-1.150349498E0,3.815953970E0,9.041878700E0
4.710238798E2,-5.617151260E-1,4.498506546E0,8.880363464E0
4.715238798E2,-9.810572863E-1,4.223930359E0,8.767302513E0
4.720238798E2,-1.021137118E0,3.948157310E0,9.029315948E0
4.725238798E2,-9.026923180E-1,3.957728624E0,8.977870941E0
4.730238798E2,-9.176474810E-1,3.872783422E0,9.049654961E0
4.735238798E2,-1.046859860E0,3.740580082E0,8.809176445E0
4.740238798E2,-9.702895880E-1,3.598805189E0,9.048459053E0
4.745238798E2,-7.208378315E-1,3.680161238E0,8.985647202E0
4.750238798E2,-5.060819983E-1,3.846462488E0,9.062815666E0
4.755238798E2,-6.526423693E-1,3.725026608E0,8.993423462E0
4.760238798E2,-3.792623878E-1,3.857230186E0,9.094520569E0
4.765238798E2,-9.583254457E-1,3.716651678E0,8.473583221E0
4.770238798E2,-6.538388133E-1,3.711866140E0,9.048459053E0
4.775238798E2,-5.569294691E-1,3.648456335E0,9.120243073E0
4.780238798E2,-5.503492355E-1,3.616751432E0,9.126225471E0
4.785238798E2,-6.747759581E-1,3.555734396E0,9.402596474E0
4.790238798E2,-6.490531564E-1,3.521038532E0,9.323633194E0
4.795238798E2,-7.148557901E-1,3.541377544E0,9.163313866E0
4.800238798E2,-7.292127013E-1,3.376870871E0,9.174081802E0
4.805238798E2,-7.381857634E-1,3.396611691E0,9.224929810E0
4.810238798E2,-8.105686903E-1,3.322434187E0,9.335597992E0
4.815238798E2,-8.243274093E-1,3.190829039E0,9.406784058E0
4.820238798E2,-7.764709592E-1,3.202793121E0,9.376275063E0
4.825238798E2,-7.752745152E-1,3.269792080E0,9.214161873E0
4.830238798E2,-7.561319470E-1,3.200400352E0,9.096315384E0
4.835238798E2,-2.069791555E-1,3.631108284E0,9.383454323E0
4.840238798E2,-1.715055585E0,2.845664263E0,9.070592880E0
4.845238798E2,-1.085145116E0,2.733799934E0,9.480362892E0
4.850238798E2,-1.159920812E0,2.885744095E0,9.324232101E0
4.855238798E2,-9.409775138E-1,3.215953588E0,9.202795982E0
4.860238798E2,-1.001396298E0,3.457030535E0,9.087940216E0
4.865238798E2,-7.734799385E-1,3.748356581E0,9.100502968E0
4.870238798E2,-1.009771109E0,3.592225075E0,9.154939651E0
4.875238798E2,-9.128618240E-1,3.578466177E0,9.091529846E0
4.880238798E2,-9.248259664E-1,3.483949661E0,9.115457535E0
4.885238798E2,-8.650053740E-1,3.324826956E0,9.236295700E0
4.890238798E2,-8.566305041E-1,3.403790236E0,9.271589279E0
4.895238798E2,-8.931210637E-1,3.463610888E0,9.126225471E0
4.900238798E2,-9.200403094E-1,3.498306751E0,9.202795982E0
4.905238798E2,-9.649057388E-1,3.470789194E0,9.171091080E0
4.910238798E2,-9.415757060E-1,3.466601849E0,9.164510727E0
4.915238798E2,-1.034895778E0,3.421736479E0,9.125029564E0
4.920238798E2,-1.066002488E0,3.319443226E0,9.261420250E0
4.925238798E2,-1.027717352E0,3.349951744E0,9.140582085E0
4.930238798E2,-1.039681435E0,3.351148129E0,9.134002686E0
4.935238798E2,-1.106680512E0,3.287738323E0,9.185447693E0
4.940238798E2,-1.147358418E0,3.214757204E0,9.196813583E0
4.945238798E2,-1.259821177E0,3.169891834E0,9.161520004E0
4.950238798E2,-1.322632670E0,3.125026464E0,9.217152596E0
4.955238798E2,-1.441675663E0,3.016751051E0,9.207581520E0
4.960238798E2,-1.489532113E0,2.964108944E0,9.210572243E0
4.965238798E2,-1.399203062E0,2.979662418E0,9.244669914E0
4.970238798E2,-1.446461320E0,2.964108944E0,9.253643036E0
4.975238798E2,-1.352542996E0,3.024527788E0,9.234500885E0
4.980238798E2,-1.497906923E0,2.892324448E0,9.338588715E0
4.985238798E2,-1.423131227E0,2.943171740E0,9.314660072E0
4.990238798E2,-1.410568953E0,2.946761131E0,9.228518486E0
4.995238798E2,-1.247258782E0,2.918047190E0,9.274580956E0
5.000238798E2,-7.256234884E-1,2.922234535E0,9.445069313E0
5.005238798E2,1.262213886E-1,2.797807932E0,9.545567513E0
5.010238798E2,-1.262213886E-1,2.793620348E0,9.568299294E0
5.015238798E2,-2.237289101E-1,2.819941521E0,9.476774216E0
5.020238798E2,-1.914258152E-1,2.843869686E0,9.519845009E0
5.025238798E2,-2.422732860E-1,2.790031195E0,9.426525116E0
5.030238798E2,-2.889333367E-1,2.784049034E0,9.493523598E0
5.035238798E2,-4.498506486E-1,2.647658348E0,9.538987160E0
5.040238798E2,-4.259224236E-1,2.593819857E0,9.478569031E0
5.045238798E2,-4.534398913E-1,2.551945448E0,9.529416084E0
5.050238798E2,-4.863412082E-1,2.539981127E0,9.534799576E0
5.055238798E2,-4.414757788E-1,2.466402054E0,9.590433121E0
5.060238798E2,-4.223332107E-1,2.417947292E0,9.538987160E0
5.065238798E2,-4.977070987E-1,2.470589399E0,9.584450722E0
5.070238798E2,-8.338986635E-1,2.458027124E0,9.616155624E0
5.075238798E2,-5.904290080E-1,2.402393818E0,9.525228500E0
5.080238798E2,-9.415757060E-1,2.425125837E0,9.421140671E0
5.085238798E2,-8.775677085E-1,2.315055847E0,9.512666702E0
5.090238798E2,-1.075573802E0,2.212762833E0,9.564710617E0
5.095238798E2,-1.040279627E0,2.054238319E0,9.561718941E0
5.100238798E2,-1.051047325E0,1.874776483E0,9.558728218E0
5.105238798E2,-1.006181955E0,2.133201361E0,9.431310654E0
5.110238798E2,-1.149751306E0,1.976471543E0,9.375079155E0
5.115238798E2,-1.149751306E0,2.160120726E0,9.412167549E0
5.120238798E2,-1.261615753E0,2.054238319E0,9.389435768E0
5.125238798E2,-1.247856975E0,1.980060697E0,9.474381447E0
5.130238798E2,-1.211964726E0,2.080559254E0,9.584450722E0
5.135238798E2,-1.326820135E0,1.865205288E0,9.499505997E0
5.140238798E2,-1.211964726E0,1.947757602E0,9.558728218E0
5.145238798E2,-1.341177106E0,1.949552298E0,9.537791252E0
5.150238798E2,-1.259821177E0,2.100898266E0,9.381659508E0
5.155238798E2,-1.330409408E0,2.050050735E0,9.587442398E0
5.160238798E2,-1.234696507E0,2.108675003E0,9.572486877E0
5.165238798E2,-1.380060434E0,1.963909149E0,9.512666702E0
5.170238798E2,-1.240678549E0,1.871187329E0,9.585647583E0
5.175238798E2,-2.027917147E0,1.960319996E0,9.643074989E0
5.180238798E2,-2.327019930E0,1.882553220E0,9.349356651E0
5.185238798E2,-1.987837434E0,1.995614052E0,9.509077072E0
5.190238798E2,-2.070389748E0,1.950748682E0,9.318847656E0
5.195238798E2,-2.102692842E0,2.100898266E0,9.379864693E0
5.200238798E2,-1.708475351E0,1.877767563E0,9.493523598E0
5.205238798E2,-1.776670814E0,1.619342685E0,9.586843491E0
5.210238798E2,-1.945963025E0,1.551745534E0,9.482157707E0
5.215238798E2,-2.149951220E0,1.615753531E0,9.486943245E0
5.220238798E2,-2.096112728E0,1.673181176E0,9.594022751E0
5.225238798E2,-2.016551256E0,1.606182218E0,9.479166985E0
5.230238798E2,-1.965703845E0,1.569691658E0,9.567701340E0
5.235238798E2,-1.750349760E0,1.507478237E0,9.550951958E0
5.240238798E2,-1.949552298E0,1.483550072E0,9.778867722E0
5.245238798E2,-1.754537225E0,1.518844128E0,9.405587196E0
5.250238798E2,-1.887338877E0,1.496710539E0,9.518648148E0
5.255238798E2,-1.511067510E0,1.368694544E0,9.468997002E0
5.260238798E2,-1.697707653E0,1.394417405E0,9.510273933E0
5.265238798E2,-2.230110645E0,1.342971683E0,9.414560318E0
5.270238798E2,-2.161317110E0,1.371685624E0,9.594022751E0
5.275238798E2,-2.067398787E0,1.343569875E0,9.622138023E0
5.280238798E2,-2.096112728E0,1.244267821E0,9.601201057E0
5.285238798E2,-2.131406784E0,1.223330617E0,9.403793335E0
5.290238798E2,-2.264806747E0,1.140778184E0,9.730413437E0
5.295238798E2,-2.164308071E0,1.314856052E0,9.494720459E0
5.300238798E2,-2.105684042E0,1.022931695E0,9.460023880E0
5.305238798E2,-1.846062660E0,9.457631707E-1,9.468997002E0
5.310238798E2,-1.919043779E0,7.579265833E-1,9.531808853E0
5.315238798E2,-2.056631088E0,1.101894855E0,9.519845009E0
5.320238798E2,-2.439482689E0,9.553344250E-1,9.730413437E0
5.325238798E2,-2.222334146E0,1.164706469E0,9.684351921E0
5.330238798E2,-2.218744755E0,1.070189953E0,9.707083702E0
5.335238798E2,-2.222334146E0,1.274776220E0,9.467801094E0
5.340238798E2,-2.207977057E0,1.058824062E0,9.697511673E0
5.345238798E2,-2.121835470E0,1.309472203E0,9.347561836E0
5.350238798E2,-2.233101845E0,1.175474167E0,9.440881729E0
5.355238798E2,-2.126621008E0,1.295115232E0,9.364311218E0
5.360238798E2,-2.257030010E0,1.210768223E0,9.556933403E0
5.365238798E2,-2.212762833E0,1.095912814E0,9.359525681E0
5.370238798E2,-2.556730986E0,9.266205430E-1,9.448657990E0
5.375238798E2,-2.441875458E0,1.003190875E0,9.486943245E0
5.380238798E2,-2.954537868E0,9.349954724E-1,9.156135559E0
5.385238798E2,-2.810968399E0,9.439685345E-1,9.170493126E0
5.390238798E2,-2.860619545E0,1.022931695E0,9.480362892E0
5.395238798E2,-3.032902718E0,1.068993568E0,9.395418167E0
5.400238798E2,-3.013161898E0,8.913264275E-1,9.094520569E0
5.405238798E2,-2.970689297E0,7.740781307E-1,9.250652313E0
5.410238798E2,-3.373879910E0,6.412764788E-1,9.089137077E0
5.415238798E2,-3.259024382E0,7.214360237E-1,9.123234749E0
5.420238798E2,-3.205185890E0,6.957131624E-1,9.075378418E0
5.425238798E2,-3.083750248E0,7.381857634E-1,9.019744873E0
5.430238798E2,-3.312862873E0,6.622136831E-1,9.415159225E0
5.435238798E2,-2.890529871E0,8.374879360E-1,9.159725189E0
5.440238798E2,-2.472982168E0,8.452646136E-1,9.092725754E0
5.445238798E2,-2.920439959E0,8.889335990E-1,9.113663673E0
5.450238798E2,-2.695514679E0,6.586244106E-1,9.359525681E0
5.455238798E2,-2.671586514E0,6.221339107E-1,9.303294182E0
5.460238798E2,-2.501696110E0,1.044467092E0,9.449854851E0
5.465238798E2,-2.737389088E0,8.404789567E-1,9.308079720E0
5.470238798E2,-2.700898647E0,9.200403094E-1,9.410373688E0
5.475238798E2,-2.624328136E0,1.000199914E0,9.324232101E0
5.480238798E2,-2.901895761E0,1.333400369E0,8.691927910E0
5.485238798E2,-2.868396044E0,9.607182741E-1,9.290133476E0
5.490238798E2,-2.797807932E0,9.445667267E-1,9.406784058E0
5.495238798E2,-2.505883455E0,8.105686903E-1,9.442078590E0
5.500238798E2,-2.309672117E0,8.727820516E-1,9.531808853E0
5.505238798E2,-2.685943365E0,9.176474810E-1,9.454640388E0
5.510238798E2,-2.629113913E0,9.080761671E-1,9.474381447E0
5.515238798E2,-2.621337175E0,1.010967612E0,9.397212982E0
5.520238798E2,-2.767299414E0,1.019342422E0,9.206384659E0
5.525238798E2,-2.554338217E0,9.858429432E-1,9.378668785E0
5.530238798E2,-2.420340061E0,8.865407705E-1,9.446864128E0
5.535238798E2,-2.671586514E0,8.739784956E-1,9.471988678E0
5.540238798E2,-2.542374134E0,9.140582681E-1,9.617950439E0
5.545238798E2,-2.746960402E0,8.123632669E-1,9.528220177E0
5.550238798E2,-2.696112871E0,8.871390224E-1,9.406784058E0
5.555238798E2,-2.778665304E0,9.696913958E-1,9.348159790E0
5.560238798E2,-2.818745136E0,9.266205430E-1,9.378069878E0
5.565238798E2,-2.813959360E0,8.452646136E-1,9.399007797E0
5.570238798E2,-2.823530674E0,9.140582681E-1,9.265008926E0
5.575238798E2,-2.925823927E0,9.439685345E-1,9.257232666E0
5.580238798E2,-2.721835852E0,1.056431174E0,9.564710617E0
5.585238798E2,-2.716451883E0,1.056431174E0,9.288937569E0
5.590238798E2,-2.686541557E0,1.066002488E0,9.517452240E0
5.595238798E2,-2.705684185E0,1.095912814E0,9.352945328E0
5.600238798E2,-2.796611547E0,9.553344250E-1,9.239286423E0
5.605238798E2,-2.843869686E0,1.001994491E0,9.285347939E0
5.610238798E2,-3.086741209E0,9.798609018E-1,9.297312737E0
5.615238798E2,-3.049652576E0,9.936196208E-1,9.239884377E0
5.620238798E2,-3.067598581E0,9.732806087E-1,9.234500885E0
5.625238798E2,-2.840878725E0,1.128215909E0,9.205786705E0
5.630238798E2,-2.699103832E0,9.966106415E-1,9.415159225E0
5.635238798E2,-2.702095032E0,8.027920127E-1,9.583852768E0
5.640238798E2,-2.382055044E0,9.589236975E-1,9.341579437E0
5.645238798E2,-2.072184324E0,6.334998012E-1,9.615557671E0
5.650238798E2,-2.533401012E0,8.165507317E-1,9.475577354E0
5.655238798E2,-2.070987940E0,8.051848412E-1,9.568299294E0
5.660238798E2,-2.313261271E0,7.435696125E-1,9.562915802E0
5.665238798E2,-2.236690998E0,6.825526357E-1,9.536594391E0
5.670238798E2,-2.252244234E0,6.376872063E-1,9.483354568E0
5.675238798E2,-2.313261271E0,7.238288522E-1,9.497711182E0
5.680238798E2,-2.340180635E0,7.046862841E-1,9.439086914E0
5.685238798E2,-2.346162558E0,7.118647099E-1,9.495916367E0
5.690238798E2,-2.295315027E0,7.657032609E-1,9.440283775E0
5.695238798E2,-2.341975212E0,7.339983582E-1,9.491728783E0
5.700238798E2,-2.408375978E0,6.568298340E-1,9.550353050E0
5.705238798E2,-2.348555326E0,6.556333899E-1,9.517452240E0
5.710238798E2,-2.264806747E0,7.166503668E-1,9.470791817E0
5.715238798E2,-2.283949137E0,7.292127013E-1,9.528220177E0
5.720238798E2,-2.324627161E0,7.334001660E-1,9.530014038E0
5.725238798E2,-2.331805706E0,7.800601721E-1,9.454640388E0
5.730238798E2,-2.305484533E0,7.740781307E-1,9.410373688E0
5.735238798E2,-2.352742910E0,7.190431952E-1,9.486345291E0
5.740238798E2,-2.303689957E0,6.526423693E-1,9.470791817E0
5.745238798E2,-2.319243431E0,6.873382926E-1,9.483952522E0
5.750238798E2,-2.336591244E0,7.070791125E-1,9.454640388E0
5.755238798E2,-2.300100803E0,7.070791125E-1,9.467203140E0
5.760238798E2,-2.286342144E0,7.561319470E-1,9.448657990E0
5.765238798E2,-2.368894339E0,7.357929349E-1,9.495916367E0
5.770238798E2,-2.246262312E0,7.286145091E-1,9.424730301E0
5.775238798E2,-2.295913219E0,6.783652306E-1,9.453444481E0
5.780238798E2,-2.375474691E0,6.556333899E-1,9.523433685E0
5.785238798E2,-2.362314224E0,6.987041831E-1,9.494720459E0
5.790238798E2,-2.343769789E0,7.465606928E-1,9.433703423E0
5.795238798E2,-2.371885538E0,6.999006271E-1,9.627521515E0
5.800238798E2,-2.442473650E0,6.329016089E-1,9.400801659E0
5.805238798E2,-2.441875458E0,6.442674994E-1,9.502496719E0
5.810238798E2,-2.538186550E0,5.485545993E-1,9.466006279E0
5.815238798E2,-2.389233351E0,5.072783828E-1,9.439086914E0
5.820238798E2,-2.408375978E0,8.027920127E-1,9.174081802E0
5.825238798E2,-2.356332064E0,5.694918036E-1,9.564710617E0
5.830238798E2,-2.246262312E0,7.812566161E-1,9.548559189E0
5.835238798E2,-2.423331022E0,5.060819983E-1,9.445667267E0
5.840238798E2,-2.325823545E0,6.616154313E-1,9.242876053E0
5.845238798E2,-2.538186550E0,8.087740541E-1,9.493523598E0
5.850238798E2,-2.642872572E0,6.574280262E-1,9.412167549E0
5.855238798E2,-2.453839540E0,7.980063558E-1,9.330811501E0
5.860238798E2,-2.590230465E0,7.387840152E-1,9.491130829E0
5.865238798E2,-2.455035925E0,8.021938205E-1,9.467203140E0
5.870238798E2,-2.510669231E0,7.764709592E-1,9.478569031E0
5.875238798E2,-2.555534601E0,8.374879360E-1,9.418149948E0
5.880238798E2,-2.652443886E0,7.734799385E-1,9.364311218E0
5.885238798E2,-2.617748022E0,7.070791125E-1,9.446864128E0
5.890238798E2,-1.786242127E0,5.754738450E-1,9.644869804E0
5.895238798E2,-1.444068432E0,3.696911037E-1,9.811769485E0
5.900238798E2,-1.329213023E0,5.389832854E-1,9.807581902E0
5.905238798E2,-1.218544960E0,4.336991012E-1,9.820143700E0
5.910238798E2,-1.397408366E0,4.564309120E-1,9.842875481E0
5.915238798E2,-1.296909928E0,4.402793646E-1,9.795019150E0
5.920238798E2,-1.381256819E0,4.259224236E-1,9.742377281E0
5.925238798E2,-1.255035520E0,4.719842672E-1,9.739984512E0
5.930238798E2,-1.271785259E0,4.737788737E-1,9.716055870E0
5.935238798E2,-1.259821177E0,4.701896608E-1,9.743574142E0
5.940238798E2,-1.226321578E0,4.785645306E-1,9.716055870E0
5.945238798E2,-1.249053478E0,4.899304509E-1,9.781859398E0
5.950238798E2,-1.164108157E0,4.582255483E-1,9.784850121E0
5.955238798E2,-1.296909928E0,4.079762697E-1,9.818349838E0
5.960238798E2,-1.159322619E0,2.823530734E-1,9.818349838E0
5.965238798E2,-1.546959877E0,5.072783828E-1,9.678369522E0
5.970238798E2,-1.481755376E0,5.665007830E-1,9.694520950E0
5.975238798E2,-1.456630826E0,5.659025311E-1,9.538987160E0
5.980238798E2,-1.677966833E0,5.437689424E-1,9.653842926E0
5.985238798E2,-1.581057549E0,6.329016089E-1,9.409774780E0
5.990238798E2,-1.764108539E0,5.467599630E-1,9.717850685E0
5.995238798E2,-1.691127419E0,5.820540786E-1,9.531210899E0
6.000238798E2,-1.773679733E0,5.473581553E-1,9.561718941E0
6.005238798E2,-1.896910191E0,4.719842672E-1,9.501300812E0
6.010238798E2,-1.747956991E0,6.017948985E-1,9.671789169E0
6.015238798E2,-1.960918188E0,6.137589812E-1,9.672985077E0
6.020238798E2,-1.984248161E0,7.052844763E-1,9.598808289E0
6.025238798E2,-2.097907305E0,6.334998012E-1,9.644869804E0
6.030238798E2,-2.061416626E0,6.191428304E-1,9.548559189E0
6.035238798E2,-2.175673962E0,4.612165689E-1,9.497711182E0
6.040238798E2,-2.190030813E0,2.662015259E-1,9.516854286E0
6.045238798E2,-2.169093609E0,3.314059377E-1,9.687940598E0
6.050238798E2,-2.169093609E0,3.098705411E-1,9.620343208E0
6.055238798E2,-1.838884234E0,4.881358147E-1,9.429515839E0
6.060238798E2,-1.507478237E0,3.427718580E-1,9.862018585E0
6.065238798E2,-1.645065546E0,4.689932466E-1,9.978070259E0
6.070238798E2,-2.265404940E0,6.891329288E-1,9.579067230E0
6.075238798E2,-2.924029350E0,7.782655358E-1,9.446864128E0
6.080238798E2,-2.673979282E0,7.788637877E-1,9.416355133E0
6.085238798E2,-2.244467735E0,8.530412912E-1,9.729216576E0
6.090238798E2,-2.185245275E0,9.427721500E-1,9.517452240E0
6.095238798E2,-2.126621008E0,8.805587292E-1,9.911071777E0
6.100238798E2,-2.136192322E0,1.022931695E0,9.595218658E0
6.105238798E2,-2.075175524E0,9.367900491E-1,9.701699257E0
6.110238798E2,-2.092523336E0,8.548358679E-1,9.676574707E0
6.115238798E2,-2.279761791E0,8.662018180E-1,9.478569031E0
6.120238798E2,-2.190629244E0,9.170492887E-1,9.497711182E0
6.125238798E2,-2.157129526E0,7.992027402E-1,9.738788605E0
6.130238798E2,-2.449054003E0,8.362914920E-1,9.502496719E0
6.135238798E2,-2.944368362E0,8.853443861E-1,9.212367058E0
6.140238798E2,-2.314457655E0,6.735795736E-1,9.559925079E0
6.145238798E2,-2.190629244E0,5.629115105E-1,9.743574142E0
6.150238798E2,-2.420340061E0,4.342973232E-1,9.842277527E0
6.155238798E2,-2.327618122E0,4.295116663E-1,9.702297211E0
6.160238798E2,-2.240878344E0,6.107679605E-1,9.656235695E0
6.165238798E2,-2.268395901E0,7.190431952E-1,9.413364410E0
6.170238798E2,-2.242672920E0,7.094719410E-1,9.231510162E0
6.175238798E2,-2.209771633E0,6.999006271E-1,9.408578873E0
6.180238798E2,-2.220539331E0,8.249256015E-1,9.550951958E0
6.185238798E2,-2.182254314E0,8.087740541E-1,9.520442963E0
6.190238798E2,-2.158325911E0,8.937192559E-1,9.358927727E0
6.195238798E2,-1.932204247E0,1.033699393E0,9.446864128E0
6.200238798E2,-1.701895118E0,8.548358679E-1,9.690931320E0
6.205238798E2,-1.006780148E0,1.296909928E0,8.995218277E0
6.210238798E2,-1.676172256E0,1.092921734E0,9.643074989E0
6.215238798E2,-1.523629785E0,1.466202021E0,9.322437286E0
6.220238798E2,-1.487139225E0,1.306481123E0,9.702297211E0
6.225238798E2,-1.396211982E0,1.223928809E0,9.548559189E0
6.230238798E2,-1.343569875E0,1.196411371E0,9.576076508E0
6.235238798E2,-1.338784218E0,1.178465128E0,9.646664619E0
6.240238798E2,-1.278963685E0,1.158126116E0,9.629914284E0
6.245238798E2,-1.363908887E0,1.159322619E0,9.866804123E0
6.250238798E2,-1.239482164E0,1.208973646E0,9.422935486E0
6.255238798E2,-1.331605792E0,1.118644595E0,9.797411919E0
6.260238798E2,-1.123430252E0,1.068395257E0,9.798010826E0
6.265238798E2,-1.041476011E0,1.044467092E0,9.878767967E0
6.270238798E2,-9.966106415E-1,1.076770186E0,9.809376717E0
6.275238798E2,-9.696913958E-1,1.063609719E0,9.780662537E0
6.280238798E2,-1.101894855E0,1.058824062E0,9.844072342E0
6.285238798E2,-1.020538807E0,9.667003751E-1,9.635298729E0
6.290238798E2,-1.046859860E0,1.108475089E0,9.673583984E0
6.295238798E2,-1.046859860E0,1.083350420E0,9.743574142E0
6.300238798E2,-9.936196208E-1,1.121635556E0,9.600004196E0
6.305238798E2,-1.106680512E0,9.631111026E-1,9.520442963E0
6.310238798E2,-1.159322619E0,9.696913958E-1,9.674779892E0
6.315238798E2,-1.063609719E0,1.008574724E0,9.792626381E0
6.320238798E2,-1.032503009E0,1.213759303E0,9.620942116E0
6.325238798E2,-1.049850941E0,1.049850941E0,9.858428955E0
6.330238798E2,-9.894321561E-1,9.571290612E-1,9.717850685E0
6.335238798E2,-1.021137118E0,9.427721500E-1,9.786644936E0
6.340238798E2,-8.889335990E-1,9.780662656E-1,9.736993790E0
6.345238798E2,-7.561319470E-1,8.673982024E-1,9.754940033E0
6.350238798E2,-8.961120844E-1,8.404789567E-1,9.742377281E0
6.355238798E2,-9.056833982E-1,8.817551732E-1,9.577272415E0
6.360238798E2,-9.744769931E-1,9.505487680E-1,9.763913155E0
6.365238798E2,-1.042074203E0,8.458628058E-1,9.879366875E0
6.370238798E2,-1.563111424E0,1.100698471E0,9.675378799E0
6.375238798E2,-1.496112347E0,1.143769264E0,9.565308571E0
6.380238798E2,-1.341177106E0,1.044467092E0,9.556933403E0
6.385238798E2,-1.132403374E0,9.445667267E-1,9.601201057E0
6.390238798E2,-1.246062398E0,1.121635556E0,9.617352486E0
6.395238798E2,-1.255633712E0,1.025922656E0,9.655637741E0
6.400238798E2,-1.271785259E0,1.028913736E0,9.737591743E0
6.405238798E2,-8.087740541E-1,8.147560954E-1,9.927223206E0
6.410238798E2,-1.111466169E0,9.218349457E-1,9.646664619E0
6.415238798E2,-8.835497499E-1,8.452646136E-1,9.664012909E0
6.420238798E2,-1.046859860E0,7.334001660E-1,9.781859398E0
6.425238798E2,-1.036690354E0,8.075776696E-1,9.635298729E0
6.430238798E2,-1.097707391E0,6.538388133E-1,9.640084267E0
6.435238798E2,-1.097707391E0,7.214360237E-1,9.785448074E0
6.440238798E2,-1.046261668E0,8.440681696E-1,9.735796928E0
6.445238798E2,-1.025922656E0,8.362914920E-1,9.678369522E0
6.450238798E2,-1.249053478E0,7.836494446E-1,9.795019150E0
6.455238798E2,-1.710269928E0,1.001396298E0,9.623932838E0
6.460238798E2,-1.607976794E0,1.188634634E0,9.586843491E0
6.465238798E2,-1.073779106E0,9.056833982E-1,9.726225853E0
6.470238798E2,-1.258624673E0,9.320043921E-1,9.610772133E0
6.475238798E2,-1.228714466E0,9.409775138E-1,9.661021233E0
6.480238798E2,-1.263410330E0,1.059422255E0,9.613164902E0
6.485238798E2,-1.225125194E0,1.113858938E0,9.620942116E0
6.490238798E2,-1.073779106E0,9.780662656E-1,9.847661972E0
6.495238798E2,-9.828519225E-1,1.121635556E0,9.681360245E0
6.500238798E2,-1.041476011E0,1.322034478E0,9.580862045E0
6.505238798E2,-8.931210637E-1,1.371685624E0,9.744770050E0
6.510238798E2,-7.262216806E-1,1.420140266E0,9.668798447E0
6.515238798E2,-8.691928387E-1,1.352542996E0,9.633503914E0
6.520238798E2,-9.445667267E-1,1.328614831E0,9.620343208E0
6.525238798E2,-9.774680734E-1,1.247258782E0,9.655637741E0
6.530238798E2,-1.003789067E0,1.204187989E0,9.622138023E0
6.535238798E2,-1.802991867E0,1.349551916E0,9.466006279E0
6.540238798E2,-1.554138303E0,1.249053478E0,9.435498238E0
6.545238798E2,-1.689332843E0,1.140778184E0,9.334999084E0
6.550238798E2,-1.856830359E0,1.135992527E0,9.566504478E0
6.555238798E2,-1.125823021E0,9.218349457E-1,9.502496719E0
6.560238798E2,-1.592423439E0,9.744769931E-1,9.619147301E0
6.565238798E2,-1.405783296E0,8.901300430E-1,9.600004196E0
6.570238798E2,-1.724626899E0,8.566305041E-1,9.582656860E0
6.575238798E2,-1.769492388E0,7.238288522E-1,9.582656860E0
6.580238798E2,-1.527817249E0,6.334998012E-1,9.665208817E0
6.585238798E2,-1.591825247E0,8.434699774E-1,9.574281693E0
6.590238798E2,-2.070987940E0,1.042074203E0,9.497711182E0
6.595238798E2,-1.963909149E0,9.732806087E-1,9.553344727E0
6.600238798E2,-2.029113531E0,8.865407705E-1,9.537791252E0
6.605238798E2,-1.831107497E0,1.003190875E0,8.915657043E0
6.610238798E2,-2.346760750E0,6.305087805E-1,9.774082184E0
6.615238798E2,-2.874976397E0,8.027920127E-1,9.364311218E0
6.620238798E2,-2.212762833E0,1.738385677E0,7.914260864E0
6.625238798E2,-2.346162558E0,1.363908887E0,8.877371788E0
6.630238798E2,-2.375474691E0,9.361918569E-1,9.445667267E0
6.635238798E2,-2.586043119E0,9.044869542E-1,9.570094109E0
6.640238798E2,-2.697309256E0,7.405785918E-1,9.016156197E0
6.645238798E2,-2.248056889E0,1.116251707E0,9.355937004E0
6.650238798E2,-2.621337175E0,1.081555843E0,9.366703987E0
6.655238798E2,-2.659622431E0,1.094118118E0,9.252447128E0
6.660238798E2,-2.672184706E0,1.087537885E0,9.171091080E0
6.665238798E2,-2.863012314E0,1.210768223E0,9.199805260E0
6.670238798E2,-2.882753134E0,1.304686546E0,9.217152596E0
6.675238798E2,-2.977867842E0,1.283749342E0,9.148957253E0
6.680238798E2,-2.908475876E0,1.193420291E0,9.376275063E0
6.685238798E2,-3.064607620E0,1.236491084E0,9.183652878E0
6.690238798E2,-3.078366280E0,1.054636598E0,9.249456406E0
6.695238798E2,-3.024527788E0,1.333998680E0,9.108279228E0
6.700238798E2,-2.941975355E0,1.164108157E0,9.271589279E0
6.705238798E2,-3.164507866E0,1.244267821E0,9.373284340E0
6.710238798E2,-3.084946632E0,1.252642632E0,9.315856934E0
6.715238798E2,-3.129812002E0,1.269392371E0,9.065208435E0
6.720238798E2,-3.192025423E0,1.266401410E0,9.256634712E0
6.725238798E2,-3.104687452E0,1.257428288E0,9.233304024E0
6.730238798E2,-3.055036306E0,1.278963685E0,9.258428574E0
6.735238798E2,-3.032902718E0,1.311266780E0,9.279366493E0
6.740238798E2,-3.247658491E0,1.153340459E0,9.193224907E0
6.745238798E2,-3.053241730E0,1.305284739E0,9.185447693E0
6.750238798E2,-3.198007345E0,1.244267821E0,9.229715347E0
6.755238798E2,-3.169891834E0,1.255035520E0,9.125029564E0
6.760238798E2,-3.155534744E0,1.312463164E0,9.250652313E0
6.765238798E2,-3.220739365E0,1.225125194E0,9.273384094E0
6.770238798E2,-3.034099102E0,1.293918848E0,9.306285858E0
6.775238798E2,-2.907877684E0,1.051047325E0,9.270991325E0
6.780238798E2,-2.892324448E0,1.208973646E0,9.249456406E0
6.785238798E2,-2.775674343E0,1.188634634E0,9.295517921E0
6.790238798E2,-2.774477959E0,1.185045362E0,9.326025963E0
6.795238798E2,-2.796611547E0,1.202393413E0,9.394221306E0
6.800238798E2,-2.865405083E0,1.272981644E0,9.228518486E0
6.805238798E2,-2.992822886E0,1.269990563E0,9.202795982E0
6.810238798E2,-2.984447956E0,1.200000525E0,9.306883812E0
6.815238798E2,-2.981456995E0,1.164108157E0,9.301499367E0
6.820238798E2,-3.049652576E0,1.228714466E0,9.217152596E0
6.825238798E2,-2.965305567E0,1.233500123E0,9.256634712E0
6.830238798E2,-2.962314367E0,1.249053478E0,9.249456406E0
6.835238798E2,-2.781656265E0,1.172483087E0,9.325428009E0
6.840238798E2,-2.592623234E0,1.092323542E0,9.378668785E0
6.845238798E2,-2.576471806E0,1.075573802E0,9.370293617E0
6.850238798E2,-2.370090723E0,9.607182741E-1,9.477372169E0
6.855238798E2,-1.684547186E0,7.830511928E-1,9.626923561E0
6.860238798E2,-1.658824325E0,8.374879360E-1,9.606584549E0
6.865238798E2,-2.153540373E0,9.559326172E-1,9.538987160E0
6.870238798E2,-2.139183521E0,9.541380405E-1,9.500701904E0
6.875238798E2,-2.195414782E0,9.714859724E-1,9.486345291E0
6.880238798E2,-2.230110645E0,8.985049129E-1,9.491728783E0
6.885238798E2,-2.137388945E0,9.409775138E-1,9.517452240E0
6.890238798E2,-2.157129526E0,9.176474810E-1,9.397810936E0
6.895238798E2,-2.231905222E0,9.601200819E-1,9.507881165E0
6.900238798E2,-2.172683001E0,9.314061999E-1,9.571290970E0
6.905238798E2,-2.161317110E0,9.906286001E-1,9.458230019E0
6.910238798E2,-2.188834429E0,1.019342422E0,9.376275063E0
6.915238798E2,-2.183450699E0,9.391828775E-1,9.519845009E0
6.920238798E2,-2.270190477E0,8.201399446E-1,9.495916367E0
6.925238798E2,-2.200200319E0,9.158528447E-1,9.510273933E0
6.930238798E2,-2.188236237E0,9.158528447E-1,9.504291534E0
6.935238798E2,-2.207977057E0,8.913264275E-1,9.512067795E0
6.940238798E2,-2.223530531E0,9.463613629E-1,9.523433685E0
6.945238798E2,-2.215753794E0,8.889335990E-1,9.482157707E0
6.950238798E2,-2.209173441E0,8.775677085E-1,9.507282257E0
6.955238798E2,-2.170888424E0,8.410771489E-1,9.474381447E0
6.960238798E2,-2.185843468E0,8.775677085E-1,9.516854286E0
6.965238798E2,-2.200200319E0,9.523434043E-1,9.492925644E0
6.970238798E2,-2.210968018E0,9.391828775E-1,9.517452240E0
6.975238798E2,-1.560120344E0,9.918249846E-1,9.623932838E0
6.980238798E2,-1.665404558E0,1.036690354E0,9.586843491E0
6.985238798E2,-1.390828133E0,1.025922656E0,9.668798447E0
6.990238798E2,-1.411765337E0,1.087537885E0,9.635298729E0
6.995238798E2,-1.333998680E0,1.087537885E0,9.628718376E0
7.000238798E2,-1.333400369E0,1.088136077E0,9.682557106E0
7.005238798E2,-1.328614831E0,1.118046403E0,9.652647018E0
7.010238798E2,-1.301695466E0,1.148554921E0,9.640084267E0
7.015238798E2,-1.352542996E0,1.131206870E0,9.661021233E0
7.020238798E2,-1.344766378E0,1.081555843E0,9.661021233E0
7.025238798E2,-1.309472203E0,1.112064362E0,9.646664619E0
7.030238798E2,-1.351346612E0,1.111466169E0,9.641280174E0
7.035238798E2,-1.365105271E0,1.116850019E0,9.649655342E0
7.040238798E2,-1.360319614E0,1.112064362E0,9.650852203E0
7.045238798E2,-1.360917926E0,1.110269666E0,9.665208817E0
7.050238798E2,-1.228714466E0,1.106680512E0,9.674779892E0
7.055238798E2,-5.706881881E-1,8.596215248E-1,9.774082184E0
7.060238798E2,-2.602194548E-1,8.913264275E-1,9.783055305E0
7.065238798E2,-4.289134443E-1,8.937192559E-1,9.794421196E0
7.070238798E2,-1.866401732E-1,8.279166222E-1,9.778269768E0
7.075238798E2,-9.870393574E-2,7.734799385E-1,9.884152412E0
7.080238798E2,8.255238086E-2,7.962117195E-1,9.858428955E0
7.085238798E2,-2.572284266E-2,7.956135273E-1,9.828518867E0
7.090238798E2,-9.571290575E-3,7.692924738E-1,9.863214493E0
7.095238798E2,9.212367237E-2,8.440681696E-1,9.818349838E0
7.100238798E2,4.426721856E-2,8.356932998E-1,9.850652695E0
7.105238798E2,-9.571290575E-3,7.932206988E-1,9.884152412E0
7.110238798E2,7.956135273E-2,7.980063558E-1,9.836296082E0
7.115238798E2,8.614161611E-2,8.410771489E-1,9.801001549E0
7.120238798E2,1.734796353E-2,7.722834945E-1,9.847661972E0
7.125238798E2,4.307080805E-2,7.226324677E-1,9.807581902E0
7.130238798E2,-5.862415582E-2,7.800601721E-1,9.829715729E0
7.135238798E2,9.571290575E-3,8.231309652E-1,9.869794846E0
7.140238798E2,-4.007977992E-2,8.913264275E-1,9.912865639E0
7.145238798E2,6.340979785E-2,9.601200819E-1,9.936794281E0
7.150238798E2,-1.351944804E-1,1.000199914E0,9.840482712E0
7.155238798E2,-1.914258115E-2,1.101894855E0,9.929018021E0
7.160238798E2,-3.529413417E-2,1.037288666E0,1.004207802E1
7.165238798E2,-7.118647099E-1,1.375274777E0,9.725627899E0
7.170238798E2,-2.237289101E-1,1.046859860E0,9.781859398E0
7.175238798E2,-3.696911037E-1,1.469193101E0,9.737591743E0
7.180238798E2,-6.969096065E-1,1.339980721E0,9.676574707E0
7.185238798E2,-3.888336718E-1,1.263410330E0,9.802796364E0
7.190238798E2,-1.950150430E-1,1.341775298E0,9.887143135E0
7.195238798E2,-3.349951804E-1,1.143769264E0,9.713663101E0
7.200238798E2,-5.276173949E-1,1.252642632E0,9.780064583E0
7.205238798E2,-4.516452849E-1,9.379864931E-1,9.768698692E0
7.210238798E2,-1.417747438E-1,9.870393276E-1,9.863214493E0
7.215238798E2,-4.486542344E-1,1.010967612E0,9.915857315E0
7.220238798E2,-4.007977843E-1,8.362914920E-1,9.698708534E0
7.225238798E2,-3.379862010E-1,9.379864931E-1,9.655637741E0
7.230238798E2,-5.724828243E-1,8.279166222E-1,9.662218094E0
7.235238798E2,-6.352944374E-1,8.650053740E-1,9.789635658E0
7.240238798E2,-6.729813814E-1,8.153542876E-1,9.778867722E0
7.245238798E2,-8.147560954E-1,7.351947427E-1,9.818349838E0
7.250238798E2,-8.410771489E-1,6.520441771E-1,9.792626381E0
7.255238798E2,-1.475773335E0,8.961120844E-1,9.659226418E0
7.260238798E2,-1.451845169E0,7.764709592E-1,9.692726135E0
7.265238798E2,-1.295115232E0,1.011565804E0,9.723235130E0
7.270238798E2,-1.078564763E0,1.290329576E0,1.039561844E1
7.275238798E2,-1.398604870E0,1.116251707E0,1.013121128E1
7.280238798E2,-9.080761671E-1,1.079761267E0,1.017428207E1
7.285238798E2,-7.142575383E-1,1.054038405E0,9.865009308E0
7.290238798E2,-9.445667267E-1,1.099501967E0,9.479166985E0
7.295238798E2,-1.150349498E0,1.145563841E0,9.587442398E0
7.300238798E2,-9.667003751E-1,1.121635556E0,1.001156998E1
7.305238798E2,-1.134197950E0,1.064207911E0,9.024530411E0
7.310238798E2,-1.049850941E0,1.097707391E0,9.693922997E0
7.315238798E2,-8.949156404E-1,1.200000525E0,9.555138588E0
7.320238798E2,-8.183453679E-1,1.295713425E0,9.609575272E0
7.325238798E2,-1.494317770E0,1.049252748E0,9.211171150E0
7.330238798E2,-1.071984529E0,1.040279627E0,9.470791817E0
7.335238798E2,-1.151545882E0,1.143769264E0,9.713065147E0
7.340238798E2,-1.085145116E0,1.185045362E0,9.966704369E0
7.345238798E2,-9.762716293E-1,1.290927768E0,1.025683403E1
7.350238798E2,-1.194616675E0,7.645068169E-1,9.836296082E0
7.355238798E2,-4.480560422E-1,1.159920812E0,1.015334511E1
7.360238798E2,-5.724828243E-1,1.025324464E0,9.928419113E0
7.365238798E2,-8.117650747E-1,1.201196909E0,9.882357597E0
7.370238798E2,-8.793623447E-1,1.073180914E0,1.005942631E1
7.375238798E2,-9.637092948E-1,1.091127157E0,1.035912704E1
7.380238798E2,-7.812566161E-1,1.008574724E0,1.017248726E1
7.385238798E2,-2.901297510E-1,9.607182741E-1,1.004148006E1
7.390238798E2,-3.984049559E-1,1.131206870E0,9.997213364E0
7.395238798E2,-1.001994491E0,1.126421213E0,9.933803558E0
7.400238798E2,-6.269195080E-1,1.197607756E0,9.904491425E0
7.405238798E2,-1.341775298E0,1.643270969E0,9.217152596E0
7.410238798E2,-9.391828775E-1,1.436890006E0,9.796216011E0
7.415238798E2,-3.529413342E-1,1.130608678E0,9.878767967E0
7.420238798E2,-5.084748268E-1,1.162911773E0,9.327222824E0
7.425238798E2,-3.780659735E-1,1.258624673E0,9.582656860E0
7.430238798E2,-7.657032609E-1,1.255035520E0,9.409774780E0
7.435238798E2,-6.699903607E-1,1.225125194E0,9.679565430E0
7.440238798E2,-7.579265833E-1,1.056431174E0,9.572486877E0
7.445238798E2,-5.856433511E-1,1.325623751E0,9.659226418E0
7.450238798E2,-8.835497499E-1,1.067198873E0,9.322437286E0
7.455238798E2,-6.717849374E-1,1.381256819E0,9.876375198E0
7.460238798E2,-6.592226624E-1,1.446461320E0,9.869794846E0
7.465238798E2,-6.879364848E-1,1.155135155E0,9.724431038E0
7.470238798E2,-4.755735099E-1,1.218544960E0,9.861420631E0
7.475238798E2,-6.592226624E-1,1.159920812E0,9.831509590E0
7.480238798E2,-5.599204898E-1,1.265205026E0,9.815358162E0
7.485238798E2,-3.894318938E-1,1.377069473E0,9.831509590E0
7.490238798E2,-4.534398913E-1,1.269990563E0,9.761520386E0
7.495238798E2,-6.107679605E-1,1.151545882E0,9.639486313E0
7.500238798E2,-3.427718580E-1,1.424925923E0,9.713065147E0
7.505238798E2,-2.859423161E-1,1.317248821E0,9.939785004E0
7.510238798E2,-6.634100676E-1,1.290927768E0,9.764511108E0
7.515238798E2,-6.233302951E-1,1.223330617E0,9.917651176E0
7.520238798E2,-6.592226624E-1,1.357328653E0,9.837491989E0
7.525238798E2,-5.754738450E-1,1.357328653E0,9.676574707E0
7.530238798E2,-5.132604837E-1,1.512263894E0,9.768698692E0
7.535238798E2,-1.217348576E0,1.544566989E0,9.659226418E0
7.540238798E2,-1.575673699E0,1.671984792E0,9.445667267E0
7.545238798E2,-6.831508875E-1,1.450050473E0,9.523433685E0
7.550238798E2,-6.951149702E-1,1.487139225E0,9.687940598E0
7.555238798E2,-5.850451589E-1,1.325623751E0,9.572486877E0
7.560238798E2,-2.123630047E-1,1.323829174E0,9.794421196E0
7.565238798E2,-6.340979785E-2,1.411765337E0,1.000199890E1
7.570238798E2,-3.242274821E-1,1.319043517E0,1.001635551E1
7.575238798E2,-1.561316848E-1,1.310070395E0,9.754940033E0
7.580238798E2,-4.193421602E-1,1.654636860E0,1.039801121E1
7.585238798E2,-3.188436031E-1,1.336989641E0,9.915857315E0
7.590238798E2,6.580262445E-3,1.480558991E0,9.000602722E0
7.595238798E2,-2.285145670E-1,1.298704505E0,9.288937569E0
7.600238798E2,-1.609173268E-1,1.445264935E0,9.637093544E0
7.605238798E2,-2.506481707E-1,1.369890928E0,9.815358162E0
7.610238798E2,-3.044866920E-1,1.523031592E0,9.536594391E0
7.615238798E2,-1.369891018E-1,1.872981906E0,9.014959335E0
7.620238798E2,-2.566302419E-1,1.298704505E0,9.681360245E0
7.625238798E2,-2.231307179E-1,1.617548108E0,9.428917885E0
7.630238798E2,-5.994020700E-1,1.555334687E0,9.777072906E0
7.635238798E2,-4.558327198E-1,1.380060434E0,1.005823040E1
7.640238798E2,-2.632105052E-1,1.587637782E0,9.084949493E0
7.645238798E2,-4.145565331E-1,1.524826288E0,9.317651749E0
7.650238798E2,-8.614161611E-2,1.678565025E0,9.629914284E0
7.655238798E2,-7.082754970E-1,2.346760750E0,9.702297211E0
7.660238798E2,-4.336991012E-1,2.250449657E0,1.001037312E1
7.665238798E2,-6.783652306E-1,2.155334949E0,9.276374817E0
7.670238798E2,-6.077769399E-1,2.231307030E0,9.327222824E0
7.675238798E2,-5.617151260E-1,2.185843468E0,9.561718941E0
7.680238798E2,-6.203392744E-1,1.984846354E0,9.553942680E0
7.685238798E2,-4.989035130E-1,2.156531334E0,9.236295700E0
7.690238798E2,-5.132604837E-1,2.047059774E0,9.415159225E0
7.695238798E2,-6.987041831E-1,1.963909149E0,9.638289452E0
7.700238798E2,-8.434699774E-1,1.612762451E0,1.011027431E1
7.705238798E2,-8.003991842E-1,1.524826288E0,9.997213364E0
7.710238798E2,-6.041877270E-1,1.514058471E0,9.128020287E0
7.715238798E2,-9.409775138E-1,1.253839016E0,9.025727272E0
7.720238798E2,-1.430907965E0,1.509272933E0,8.950951576E0
7.725238798E2,-1.348355532E0,2.049452543E0,1.005763149E1
7.730238798E2,-1.198205948E0,1.951346874E0,1.034477043E1
7.735238798E2,-1.367498159E0,1.552343726E0,9.022735596E0
7.740238798E2,-1.062413216E0,1.663609982E0,9.472586632E0
7.745238798E2,-2.017747641E0,1.456630826E0,1.007856941E1
7.750238798E2,-1.349551916E0,1.753340840E0,1.038843918E1
7.755238798E2,-1.400399446E0,1.603191137E0,9.105288506E0
7.760238798E2,-1.102493048E0,1.643270969E0,9.047860146E0
7.765238798E2,-1.499103427E0,1.709671736E0,1.015513897E1
7.770238798E2,-1.448255897E0,1.616351724E0,1.035314560E1
7.775238798E2,-9.170492887E-1,1.606182218E0,9.762716293E0
7.780238798E2,-1.420140266E0,1.818545222E0,9.602995872E0
7.785238798E2,-1.255633712E0,1.704886079E0,9.127422333E0
7.790238798E2,-1.056431174E0,1.853241086E0,9.217152596E0
7.795238798E2,-1.164108157E0,1.767697692E0,9.742377281E0
7.800238798E2,-1.234696507E0,1.756331801E0,9.540781975E0
7.805238798E2,-1.148554921E0,1.744965911E0,9.553344727E0
7.810238798E2,-1.263410330E0,1.607976794E0,9.775279045E0
7.815238798E2,-1.140179992E0,1.764706731E0,9.724431038E0
7.820238798E2,-1.207777262E0,1.707278967E0,9.275776863E0
7.825238798E2,-1.303490162E0,1.590628862E0,9.553344727E0
7.830238798E2,-1.213759303E0,1.772483349E0,9.510871887E0
7.835238798E2,-1.303490162E0,1.443470240E0,9.351150513E0
7.840238798E2,-1.180259824E0,1.725823283E0,9.358927727E0
7.845238798E2,-1.287338614E0,1.475773335E0,9.233304024E0
7.850238798E2,-1.204786181E0,1.618744493E0,9.457631111E0
7.855238798E2,-1.245464206E0,1.500898004E0,9.620343208E0
7.860238798E2,-1.258624673E0,1.593619823E0,9.604789734E0
7.865238798E2,-1.823330879E0,1.480558991E0,9.433703423E0
7.870238798E2,-1.599601984E0,1.661815286E0,9.419346809E0
7.875238798E2,-1.479960799E0,1.582253933E0,9.730413437E0
7.880238798E2,-1.210768223E0,1.478764415E0,9.673583984E0
7.885238798E2,-1.235892892E0,1.556531072E0,9.533005714E0
7.890238798E2,-1.295115232E0,1.548754454E0,9.818947792E0
7.895238798E2,-1.271785259E0,1.681556106E0,9.582656860E0
7.900238798E2,-1.445264935E0,1.561915040E0,1.025204849E1
7.905238798E2,-1.456630826E0,1.207179070E0,9.829715729E0
7.910238798E2,-1.118046403E0,1.896910191E0,9.711270332E0
7.915238798E2,-1.578066587E0,9.774680734E-1,9.576076508E0
7.920238798E2,-1.552343726E0,1.783849239E0,9.368498802E0
7.925238798E2,-1.066002488E0,1.539183140E0,9.749555588E0
7.930238798E2,-1.331605792E0,1.243071318E0,9.373284340E0
7.935238798E2,-1.322034478E0,1.889133453E0,9.275776863E0
7.940238798E2,-1.384247899E0,1.491924882E0,9.594022751E0
7.945238798E2,-1.322632670E0,1.710269928E0,9.566504478E0
7.950238798E2,-1.226919770E0,1.494317770E0,9.601201057E0
7.955238798E2,-1.384846091E0,1.518844128E0,9.654440880E0
7.960238798E2,-1.126421213E0,1.502692580E0,9.620942116E0
7.965238798E2,-1.285543919E0,1.486541033E0,9.548559189E0
7.970238798E2,-1.292124271E0,1.639681697E0,9.664012909E0
7.975238798E2,-1.436890006E0,1.489532113E0,9.537791252E0
7.980238798E2,-1.330409408E0,1.659422517E0,9.522237778E0
7.985238798E2,-1.369890928E0,1.554138303E0,9.502496719E0
7.990238798E2,-1.381256819E0,1.437488198E0,9.486943245E0
7.995238798E2,-1.292124271E0,1.599601984E0,9.659226418E0
8.000238798E2,-1.156929731E0,1.566102386E0,9.649655342E0
8.005238798E2,-1.220339537E0,1.539183140E0,9.650852203E0
8.010238798E2,-1.288534999E0,1.488335729E0,9.640084267E0
8.015238798E2,-1.269392371E0,1.518245935E0,9.521639824E0
8.020238798E2,-1.080359459E0,1.525424480E0,9.663414001E0
8.025238798E2,-1.001396298E0,1.442273855E0,9.600004196E0
8.030238798E2,-1.086341500E0,1.459621787E0,9.641879082E0
8.035238798E2,-1.137787223E0,1.517049551E0,9.600004196E0
8.040238798E2,-1.197607756E0,1.524826288E0,9.609575272E0
8.045238798E2,-1.286142230E0,1.547558069E0,9.615557671E0
8.050238798E2,-1.192822099E0,1.564906001E0,9.572486877E0
8.055238798E2,-1.225125194E0,1.527817249E0,9.583852768E0
8.060238798E2,-1.249053478E0,1.487139225E0,9.577272415E0
8.065238798E2,-1.262213945E0,1.450050473E0,9.585647583E0
8.070238798E2,-1.330409408E0,1.464407444E0,9.679565430E0
8.075238798E2,-1.313061476E0,1.497906923E0,9.550951958E0
8.080238798E2,-1.384846091E0,1.501496196E0,9.530014038E0
8.085238798E2,-1.333400369E0,1.530210137E0,9.644271851E0
8.090238798E2,-1.403988719E0,1.502692580E0,9.580862045E0
8.095238798E2,-1.285543919E0,1.512263894E0,9.552147865E0
8.100238798E2,-1.255035520E0,1.525424480E0,9.623932838E0
8.105238798E2,-1.301695466E0,1.501496196E0,9.632308006E0
8.110238798E2,-1.373480201E0,1.480558991E0,9.583852768E0
8.115238798E2,-1.268195987E0,1.499701619E0,9.641280174E0
8.120238798E2,-1.167697430E0,1.539183140E0,9.631709099E0
8.125238798E2,-1.143769264E0,1.536192179E0,9.705288887E0
8.130238798E2,-1.194616675E0,1.488335729E0,9.652647018E0
8.135238798E2,-1.153340459E0,1.488335729E0,9.595218658E0
8.140238798E2,-1.196411371E0,1.510469317E0,9.610772133E0
8.145238798E2,-1.141974568E0,1.512263894E0,9.629914284E0
8.150238798E2,-1.154536963E0,1.470987678E0,9.637093544E0
8.155238798E2,-1.285543919E0,1.544566989E0,9.614361763E0
8.160238798E2,-1.212562919E0,1.558325768E0,9.617950439E0
8.165238798E2,-1.282552958E0,1.503889084E0,9.609575272E0
8.170238798E2,-1.221535921E0,1.506281853E0,9.592227936E0
8.175238798E2,-1.207179070E0,1.496112347E0,9.590433121E0
8.180238798E2,-1.244267821E0,1.567897081E0,9.506086349E0
8.185238798E2,-1.300499082E0,1.544566989E0,9.522237778E0
8.190238798E2,-1.477568030E0,1.607976794E0,9.531210899E0
8.195238798E2,-1.400399446E0,1.600200176E0,9.491728783E0
8.200238798E2,-1.362712502E0,1.592423439E0,9.512666702E0
8.205238798E2,-1.475175142E0,1.604387641E0,9.518648148E0
8.210238798E2,-1.593619823E0,1.552343726E0,9.451649666E0
8.215238798E2,-1.350748420E0,1.603191137E0,9.523433685E0
8.220238798E2,-1.235892892E0,1.585843205E0,9.496515274E0
8.225238798E2,-5.569294691E-1,1.438684583E0,9.743574142E0
8.230238798E2,-2.440679073E-1,2.257628202E0,9.239884377E0
8.235238798E2,4.402793646E-1,2.438884497E0,9.504291534E0
