"Time (s)","Gyroscope x (rad/s)","Gyroscope y (rad/s)","Gyroscope z (rad/s)"
2.751471900E-1,-3.573558852E-2,7.589995116E-2,-3.558287397E-2
7.793505230E-1,5.345066637E-2,-5.238165334E-2,-1.319467872E-1
1.283555627E0,-1.832594275E-1,7.086031139E-2,-1.863137633E-2
1.787762711E0,7.315105945E-2,9.224057943E-2,2.244928107E-2
2.291971669E0,-1.980729103E-1,-3.711003438E-2,-1.313359290E-2
2.796182658E0,-3.940077871E-2,3.787361458E-2,4.886918236E-3
3.300395679E0,-2.290742844E-2,2.840521187E-2,7.635809947E-3
3.804610783E0,-2.703076601E-2,1.634063199E-2,5.039634649E-3
4.308827502E0,-2.046396956E-2,1.634063199E-2,-3.817904973E-3
4.813045158E0,7.941242307E-3,6.108647678E-3,6.261364091E-3
5.317263127E0,-2.107483521E-2,6.719512399E-3,9.162971983E-4
5.821480836E0,4.886918236E-3,3.054323897E-4,1.023198478E-2
6.325698127E0,1.206457894E-2,5.497782957E-3,7.330377586E-3
6.829915002E0,-1.374445762E-2,7.177661173E-3,-2.901607659E-3
7.334131096E0,1.466075517E-2,-7.177661173E-3,5.497782957E-3
7.838346513E0,-2.535088919E-2,2.596175298E-3,2.290742937E-3
8.342560992E0,1.343902480E-2,-6.108647794E-4,-1.832594397E-3
8.846774481E0,-1.466075517E-2,9.010255337E-3,-3.512472380E-3
9.350986877E0,1.328630932E-2,-2.290742937E-3,2.138026757E-3
9.855198231E0,-4.581485875E-3,3.054323839E-3,1.679878100E-3
1.035940854E1,5.345067009E-3,8.246674202E-3,2.748891478E-3
1.086361776E1,-6.719512399E-3,-5.345067009E-3,-2.596175298E-3
1.136782584E1,-1.328630932E-2,1.985310577E-3,5.803215317E-3
1.187203276E1,7.024944760E-3,3.359756200E-3,1.221729536E-2
1.237623844E1,-2.046396956E-2,6.719512399E-3,1.038470119E-2
1.288044302E1,-7.635809947E-3,2.290742937E-3,1.496618707E-2
1.338464646E1,1.267544460E-2,3.817904973E-3,1.878409274E-2
1.388884886E1,-1.527161949E-4,1.160643063E-2,1.359174121E-2
1.439305011E1,6.108647794E-4,2.901607659E-3,1.069013402E-2
1.489725047E1,-1.832594397E-3,9.162971983E-4,6.872228812E-3
1.540144985E1,8.246674202E-3,-4.276053514E-3,6.566796452E-3
1.590564834E1,5.345067009E-3,-5.345067009E-3,-4.276053514E-3
1.640984589E1,5.192350596E-3,-2.748891478E-3,-8.552107029E-3
1.691404255E1,-7.024944760E-3,-4.734201822E-3,-2.244928107E-2
1.741823849E1,-8.857538924E-3,-5.650499370E-3,-1.832594350E-2
1.792243370E1,6.414080039E-3,-4.428769462E-3,-1.542433538E-2
1.842662818E1,3.817904973E-3,-3.054323897E-4,-1.817322709E-2
1.893082198E1,-8.093958721E-3,-7.635809598E-4,-2.015853859E-2
1.943501505E1,-3.359756200E-3,1.221729559E-3,-1.542433538E-2
1.993920735E1,6.108647794E-4,3.054323897E-4,-7.635809598E-4
2.044339875E1,-6.719512399E-3,2.138026757E-3,-5.497782957E-3
2.094758938E1,-1.679878123E-2,-5.192350596E-3,-1.130099874E-2
2.145177927E1,5.955931731E-3,3.054323897E-4,4.886918236E-3
2.195596849E1,5.955931731E-3,1.527161949E-4,-1.527161920E-3
2.246015709E1,-1.527161949E-4,-7.635809598E-4,-7.635809947E-3
2.296434511E1,-2.519817278E-2,2.718348242E-2,-5.039634649E-3
2.346853255E1,-3.054323839E-3,-5.497782957E-3,-1.206457894E-2
2.397271932E1,-3.069595434E-2,1.832594397E-3,-1.786779426E-2
2.447690547E1,1.466075517E-2,2.061668597E-2,6.872228812E-3
2.498109104E1,1.466075517E-2,7.483093534E-3,2.138026757E-3
2.548527599E1,-1.985310577E-3,-1.099556591E-2,-2.290742937E-3
2.598946047E1,7.635809598E-4,-2.596175298E-3,1.007926930E-2
2.649364443E1,4.734201822E-3,1.053741761E-2,1.298087649E-2
2.699782787E1,-4.734201822E-3,3.665188793E-3,7.483093534E-3
2.750201073E1,-8.246674202E-3,-1.527161949E-4,2.596175298E-3
2.800619308E1,-1.328630932E-2,-9.162971983E-4,3.359756200E-3
2.851037490E1,2.748891478E-3,1.557705179E-2,9.162971750E-3
2.901455615E1,4.886918236E-3,-1.649334840E-2,1.756236330E-2
2.951873693E1,1.756236330E-2,2.535088919E-2,1.924224012E-2
3.002291719E1,3.161225095E-2,-4.749473557E-2,2.550360374E-2
3.052709698E1,-9.773836471E-3,-1.038470119E-2,8.399390616E-3
3.103127620E1,3.619373962E-2,4.566214234E-2,2.168569900E-2
3.153545495E1,2.550360374E-2,4.276053607E-2,1.710421406E-2
3.203963313E1,-2.183841541E-2,4.581485875E-3,-2.290742937E-3
3.254381084E1,-0.000000000E0,1.007926930E-2,-2.748891478E-3
3.304798808E1,-5.497782957E-3,3.787361458E-2,1.603520103E-2
3.355216485E1,1.435532235E-2,5.192350596E-3,6.566796452E-3
3.405634120E1,-7.024944760E-3,4.886918236E-3,1.893680729E-2
3.456051714E1,-2.687804960E-2,-3.207040019E-3,4.581485875E-3
3.506469255E1,-6.261364091E-3,2.901607659E-3,9.010255337E-3
3.556886750E1,-1.572976820E-2,4.428769462E-3,-7.788525894E-3
3.607304198E1,5.039634649E-3,-1.389717404E-2,-1.527161949E-4
3.657721610E1,-6.414080039E-3,1.206457894E-2,1.145371422E-2
3.708138985E1,-7.024944760E-3,9.010255337E-3,1.328630932E-2
3.758556323E1,-3.512472380E-3,4.581485875E-3,8.857538924E-3
3.808973620E1,-2.443459118E-3,-7.635809598E-4,4.581485991E-4
3.859390880E1,-2.596175298E-3,8.857538924E-3,1.252272818E-2
3.909808110E1,-9.468403645E-3,3.054323897E-4,-1.832594397E-3
3.960225297E1,-6.261364091E-3,-6.108647794E-4,1.114828233E-2
4.010642453E1,3.817904973E-3,5.345067009E-3,1.679878123E-2
4.061059584E1,-3.817904973E-3,8.093958721E-3,8.704823442E-3
4.111476688E1,-3.665188793E-3,1.450803876E-2,1.160643063E-2
4.161893782E1,-1.404988952E-2,7.483093534E-3,1.084284950E-2
4.212310854E1,-4.581485875E-3,1.053741761E-2,3.512472380E-3
4.262727912E1,-3.359756200E-3,7.330377586E-3,1.435532235E-2
4.313144943E1,-2.229656465E-2,-5.803215317E-3,-2.901607659E-3
4.363561959E1,-8.093958721E-3,8.704823442E-3,3.359756200E-3
4.413978953E1,1.084284950E-2,1.588248461E-2,1.634063199E-2
4.464395938E1,-1.832594397E-3,-6.108647794E-4,1.374445762E-2
4.514812912E1,7.483093534E-3,-1.985310577E-3,2.061668597E-2
4.565229886E1,-4.428769462E-3,-1.527161949E-4,1.237001177E-2
4.615646844E1,-7.483093534E-3,1.160643063E-2,1.298087649E-2
4.666063823E1,-2.275471389E-2,-3.054323897E-4,-1.985310577E-3
4.716480870E1,-5.345067009E-3,-3.207040019E-3,6.414080039E-3
4.766897990E1,1.069013402E-2,-3.054323897E-4,1.634063199E-2
4.817315157E1,6.261364091E-3,-1.527161949E-4,1.710421406E-2
4.867732370E1,7.330377586E-3,-1.328630932E-2,1.603520103E-2
4.918149630E1,2.901607659E-3,6.872228812E-3,9.621120058E-3
4.968566938E1,2.290742937E-3,2.092211880E-2,1.725693047E-2
5.018984297E1,-8.704823442E-3,-5.955931731E-3,3.512472380E-3
5.069401719E1,7.635809598E-4,-2.382372692E-2,1.496618707E-2
5.119819209E1,1.084284950E-2,2.443459118E-3,2.168569900E-2
5.170236745E1,9.773836471E-3,4.276053514E-3,7.635809947E-3
5.220654302E1,-3.054323839E-3,9.621120058E-3,2.138026804E-2
5.271071875E1,-1.053741761E-2,1.878409274E-2,1.527161949E-4
5.321489417E1,-1.481347065E-2,-1.527161989E-2,6.108647794E-4
5.371906933E1,4.581485991E-4,-8.552107029E-3,-2.748891478E-3
5.422324432E1,-1.267544460E-2,4.276053514E-3,-6.261364091E-3
5.472741883E1,5.497782957E-3,-1.527161949E-4,9.315688163E-3
5.523159331E1,1.832594397E-3,1.527161920E-3,-7.635809598E-4
5.573576727E1,4.276053514E-3,3.054323897E-4,-1.832594397E-3
5.623994081E1,-1.374445739E-3,7.635809598E-4,7.330377586E-3
5.674411383E1,6.108647794E-4,3.054323897E-4,-3.512472380E-3
5.724828638E1,1.695149764E-2,-4.764745384E-2,7.024944760E-3
5.775245862E1,7.788525894E-3,-1.634063199E-2,-5.955931731E-3
5.825663055E1,-7.788525894E-3,1.069013379E-3,3.054323897E-4
5.876080206E1,5.039634649E-3,7.177661173E-3,6.261364091E-3
5.926497326E1,3.054323897E-4,4.734201822E-3,4.276053514E-3
5.976914404E1,-1.069013379E-3,-1.069013379E-3,-5.345067009E-3
6.027331451E1,3.359756200E-3,7.941242307E-3,1.038470119E-2
6.077748472E1,-7.635809598E-4,-2.290742937E-3,-3.817904973E-3
6.128165472E1,-1.527161989E-2,7.635809598E-4,-9.010255337E-3
6.178582461E1,3.054323897E-4,2.901607659E-3,7.635809598E-4
6.228999441E1,3.359756200E-3,3.054323897E-4,5.039634649E-3
6.279416409E1,-5.650499370E-3,5.955931731E-3,-9.468403645E-3
6.329833378E1,1.023198478E-2,1.069013379E-3,4.123337101E-3
6.380250352E1,5.803215317E-3,-4.581485991E-4,-4.428769462E-3
6.430667331E1,1.069013402E-2,-3.054323897E-4,-6.872228812E-3
6.481084310E1,-9.162971750E-3,-5.497782957E-3,-2.901607752E-2
6.531501290E1,4.123337101E-3,-8.093958721E-3,-2.550360374E-2
6.581918274E1,9.621120058E-3,4.581485991E-4,-1.893680729E-2
6.632335258E1,1.267544460E-2,-7.788525894E-3,-1.099556591E-2
6.682752232E1,-1.374445739E-3,-5.650499370E-3,-2.733619884E-2
6.733169201E1,1.191186346E-2,-3.665188793E-3,-1.603520103E-2
6.783586154E1,-1.069013379E-3,-7.024944760E-3,-2.321286127E-2
6.834003097E1,-3.512472380E-3,-6.719512399E-3,-2.397644334E-2
6.884420029E1,1.527161949E-4,-1.084284950E-2,-1.954767294E-2
6.934836956E1,6.414080039E-3,-2.596175298E-3,-1.786779426E-2
6.985253868E1,-7.635809598E-4,-7.635809947E-3,-2.153298259E-2
7.035670764E1,9.621120058E-3,-1.985310577E-3,-1.221729536E-2
7.086087644E1,7.635809598E-4,-8.399390616E-3,-2.153298259E-2
7.136504540E1,7.635809947E-3,-8.857538924E-3,-1.466075517E-2
7.186921482E1,-4.276053514E-3,-3.054323839E-3,-2.703076601E-2
7.237338493E1,5.497782957E-3,-7.941242307E-3,-2.443459071E-2
7.287755566E1,1.557705179E-2,-7.483093534E-3,-1.985310577E-2
7.338172706E1,2.107483521E-2,-1.130099874E-2,-2.183841541E-2
7.388589909E1,6.566796452E-3,-8.399390616E-3,-3.237583488E-2
7.439007149E1,1.389717404E-2,-1.237001177E-2,-2.550360374E-2
7.489424394E1,7.483093534E-3,-8.093958721E-3,-2.703076601E-2
7.539841623E1,7.024944760E-3,-7.024944760E-3,-3.084867075E-2
7.590258842E1,-9.468403645E-3,-1.267544460E-2,-4.123337194E-2
7.640676034E1,6.261364091E-3,-1.847865991E-2,-2.932151034E-2
7.691093191E1,5.497782957E-3,-9.162971750E-3,-2.886336111E-2
7.741510326E1,1.450803876E-2,-1.038470119E-2,-1.878409274E-2
7.791927420E1,-3.054323839E-3,-8.552107029E-3,-3.191768378E-2
7.842344482E1,1.328630932E-2,-7.330377586E-3,-2.244928107E-2
7.892761498E1,-7.483093534E-3,-6.414080039E-3,-2.977965772E-2
7.943178477E1,6.414080039E-3,-7.330377586E-3,-2.748891525E-2
7.993595404E1,-2.474002354E-2,-1.084284950E-2,-2.855792828E-2
8.044012253E1,-4.734201822E-3,-1.191186346E-2,-1.420260593E-2
8.094429045E1,5.955931731E-3,2.748891478E-3,-1.145371422E-2
8.144845800E1,-2.107483521E-2,-3.207040019E-3,-2.122755162E-2
8.195262534E1,1.740964688E-2,0.000000000E0,1.679878100E-3
8.245679237E1,-2.260199748E-2,-0.000000000E0,-1.282816008E-2
8.296095920E1,-4.276053514E-3,6.566796452E-3,-3.512472380E-3
8.346512592E1,-1.618791744E-2,5.345067009E-3,-1.053741761E-2
8.396929243E1,-7.941242307E-3,-8.093958721E-3,-7.941242307E-3
8.447345868E1,1.007926930E-2,7.635809947E-3,1.007926930E-2
8.497762461E1,-3.359756200E-3,-2.901607659E-3,-2.748891478E-3
8.548179029E1,3.970621154E-3,-9.162971983E-4,2.443459118E-3
8.598595555E1,-1.221729559E-3,5.039634649E-3,9.162971983E-4
8.649012034E1,3.054323897E-4,-4.428769462E-3,-0.000000000E0
8.699428482E1,-6.414080039E-3,1.069013379E-3,-6.414080039E-3
8.749844899E1,-6.872228812E-3,-9.162971750E-3,-7.941242307E-3
8.800261284E1,4.123337101E-3,2.138026757E-3,3.207040019E-3
8.850677639E1,6.414080039E-3,-1.527161920E-3,5.345067009E-3
8.901093967E1,-5.192350596E-3,5.497782957E-3,-1.221729559E-3
8.951510269E1,2.290742937E-3,4.581485991E-4,3.665188793E-3
9.001926555E1,-4.886918236E-3,-9.162971983E-4,-1.985310577E-3
9.052342852E1,-3.054323839E-3,3.054323897E-4,-1.985310577E-3
9.102759154E1,-1.298087649E-2,-1.527161949E-4,-9.926552884E-3
9.153175451E1,4.123337101E-3,9.162971983E-4,3.665188793E-3
9.203591748E1,-0.000000000E0,-1.374445739E-3,1.527161920E-3
9.254008024E1,-1.374445739E-3,4.581485991E-4,1.832594397E-3
9.304424274E1,-0.000000000E0,-6.108647794E-4,-1.069013379E-3
9.354840498E1,-1.527161949E-4,1.679878100E-3,2.290742937E-3
9.405256706E1,-1.389717404E-2,4.123337101E-3,-1.084284950E-2
9.455672894E1,5.345067009E-3,-1.069013379E-3,2.290742937E-3
9.506089045E1,5.650499370E-3,4.734201822E-3,7.024944760E-3
9.556505175E1,2.748891478E-3,-5.803215317E-3,-1.679878100E-3
9.606921284E1,-9.162971983E-4,4.581485991E-4,7.635809598E-4
9.657337368E1,-2.596175298E-3,2.901607659E-3,1.679878100E-3
9.707753430E1,-1.985310577E-3,6.108647794E-4,-1.832594397E-3
9.758169456E1,-9.773836471E-3,1.985310577E-3,-8.552107029E-3
9.808585446E1,9.162971983E-4,-1.527161920E-3,-1.069013379E-3
9.859001409E1,5.803215317E-3,-6.108647794E-4,5.039634649E-3
9.909417347E1,-1.832594397E-3,8.704823442E-3,7.635809598E-4
9.959833253E1,2.290742937E-3,-2.596175298E-3,-1.527161949E-4
1.001024912E2,-2.748891478E-3,-5.039634649E-3,-1.679878100E-3
1.006066498E2,-3.970621154E-3,-2.748891478E-3,-1.985310577E-3
1.011108081E2,-3.817904973E-3,-1.069013379E-3,-7.788525894E-3
1.016182425E2,-1.527161920E-3,-3.970621154E-3,-1.679878100E-3
1.021233250E2,3.970621154E-3,3.207040019E-3,4.276053514E-3
1.026274823E2,5.039634649E-3,3.207040019E-3,3.359756200E-3
1.031316394E2,-5.803215317E-3,-1.527161920E-3,-4.581485991E-4
1.036358072E2,4.428769462E-3,1.374445739E-3,-7.635809598E-4
1.041399526E2,-5.192350596E-3,-7.941242307E-3,-2.443459118E-3
1.046441090E2,-7.177661173E-3,-2.596175298E-3,-8.704823442E-3
1.051482658E2,-5.955931731E-3,-6.566796452E-3,-3.054323897E-4
1.056524234E2,9.621120058E-3,3.207040019E-3,5.039634649E-3
1.061565820E2,-3.817904973E-3,2.290742937E-3,1.527161920E-3
1.066607414E2,5.039634649E-3,-2.443459118E-3,2.290742937E-3
1.071649014E2,3.054323897E-4,3.665188793E-3,-6.108647794E-4
1.076690619E2,-4.886918236E-3,-1.527161949E-4,-1.985310577E-3
1.081732225E2,-1.007926930E-2,7.635809598E-4,-1.084284950E-2
1.086773832E2,4.428769462E-3,-9.162971983E-4,1.374445739E-3
1.091815439E2,1.374445739E-3,2.290742937E-3,6.414080039E-3
1.096857048E2,-1.069013379E-3,8.093958721E-3,5.345067009E-3
1.101898658E2,6.108647794E-4,-0.000000000E0,-6.108647794E-4
1.106940266E2,7.635809598E-4,-2.596175298E-3,3.054323839E-3
1.111981874E2,-9.926552884E-3,-3.359756200E-3,-9.773836471E-3
1.117023480E2,-8.704823442E-3,-1.649334840E-2,-5.650499370E-3
1.122065085E2,9.621120058E-3,-2.901607659E-3,5.803215317E-3
1.127106688E2,-3.054323897E-4,1.832594397E-3,1.221729559E-3
1.132148293E2,1.374445739E-3,-2.596175298E-3,2.443459118E-3
1.137189898E2,3.054323897E-4,6.108647794E-4,1.221729559E-3
1.142231507E2,-6.108647678E-3,-3.817904973E-3,-3.512472380E-3
1.147273118E2,-7.177661173E-3,-3.054323897E-4,-6.108647678E-3
1.152314728E2,-3.665188793E-3,-3.512472380E-3,-2.290742937E-3
1.157356338E2,3.207040019E-3,-2.748891478E-3,4.734201822E-3
1.162397946E2,7.177661173E-3,-3.665188793E-3,3.817904973E-3
1.167439554E2,4.581485991E-4,-9.162971983E-4,1.069013379E-3
1.172481162E2,2.748891478E-3,-2.443459118E-3,2.596175298E-3
1.177522769E2,-4.734201822E-3,4.581485991E-4,-1.832594397E-3
1.182564374E2,-2.290742937E-3,-4.276053514E-3,-1.679878100E-3
1.187605976E2,-6.261364091E-3,-5.345067009E-3,-6.108647678E-3
1.192647575E2,4.886918236E-3,2.443459118E-3,5.955931731E-3
1.197689174E2,4.734201822E-3,2.748891478E-3,4.276053514E-3
1.202730769E2,1.527161949E-4,-1.679878100E-3,3.207040019E-3
1.207772365E2,3.207040019E-3,-5.039634649E-3,1.084284950E-2
1.212813960E2,-5.192350596E-3,1.832594397E-3,7.024944760E-3
1.217855553E2,-3.970621154E-3,-3.359756200E-3,-1.298087649E-2
1.222897147E2,-9.162971983E-4,-1.847865991E-2,-5.803215317E-3
1.227938740E2,2.542724609E-1,-2.382372618E-1,3.680460155E-2
1.232980331E2,2.750418782E-1,-7.589995116E-2,1.586721241E-1
1.238021921E2,-2.330449075E-1,1.623373181E-1,-2.550360374E-2
1.243063511E2,-3.894263133E-2,-1.023198478E-2,-1.893680729E-2
1.248105100E2,-4.428769462E-3,1.527161949E-4,-4.886918236E-3
1.253146688E2,8.552107029E-3,1.237001177E-2,-3.054323839E-3
1.258188276E2,7.254019380E-2,-4.138609022E-2,1.221729536E-2
1.263229861E2,2.993237413E-2,-7.635809598E-4,-1.221729559E-3
1.268271445E2,-3.207040206E-2,1.970038936E-2,-2.748891478E-3
1.273313027E2,1.970038936E-2,-1.924224012E-2,-1.374445739E-3
1.278354606E2,-4.428769462E-3,3.680460155E-2,-1.221729559E-3
1.283396186E2,-1.725693047E-2,-1.221729536E-2,1.160643063E-2
1.288437765E2,1.374445739E-3,8.246674202E-3,1.374445739E-3
1.293479343E2,2.535088919E-2,1.756236330E-2,-9.010255337E-3
1.298520921E2,5.497782957E-3,-2.290742844E-2,-1.313359290E-2
1.303562498E2,3.817904973E-3,2.687804960E-2,1.466075517E-2
1.308604074E2,1.817322709E-2,3.161225095E-2,3.527744114E-2
1.313645646E2,1.847865991E-2,2.474002354E-2,4.642572254E-2
1.318687216E2,1.740964688E-2,3.008509055E-2,-2.168569900E-2
1.323728784E2,9.773836471E-3,-3.069595434E-2,5.345067009E-3
1.328770352E2,-6.414080039E-3,2.107483521E-2,3.207040019E-3
1.333811918E2,-5.955931731E-3,5.192350596E-3,2.443459118E-3
1.338853482E2,8.857538924E-3,-2.565632015E-2,-7.483093534E-3
1.343895043E2,3.665188793E-3,1.328630932E-2,7.483093534E-3
1.348936601E2,-5.497782957E-3,-1.985310577E-3,2.443459118E-3
1.353978155E2,1.053741761E-2,1.313359290E-2,1.007926930E-2
1.359019707E2,-5.192350596E-3,-1.557705179E-2,-1.572976820E-2
1.364061258E2,3.665188793E-3,1.084284950E-2,1.985310577E-3
1.369102807E2,-1.557705179E-2,-1.374445739E-3,4.581485875E-3
1.374144355E2,1.175914705E-2,1.343902480E-2,-2.901607659E-3
1.379185903E2,6.566796452E-3,1.313359290E-2,-1.328630932E-2
1.384227453E2,4.734201822E-3,-3.420842811E-2,-5.039634649E-3
1.389269005E2,-6.719512399E-3,2.519817278E-2,-2.443459118E-3
1.394310564E2,1.389717404E-2,1.053741761E-2,1.237001177E-2
1.399352128E2,-2.657261863E-2,5.192350596E-3,-2.626718581E-2
1.404393703E2,1.389717404E-2,-1.282816008E-2,-6.261364091E-3
1.409435287E2,2.199113183E-2,-2.260199748E-2,-4.886918236E-3
1.414476878E2,-1.084284950E-2,-4.505127668E-2,4.428769462E-3
1.419518473E2,1.970038936E-2,-4.886918236E-3,7.941242307E-3
1.424560068E2,-1.527161989E-2,4.810560122E-2,7.635809598E-4
1.429601664E2,1.389717404E-2,1.496618707E-2,2.443459118E-3
1.434643257E2,-1.099556591E-2,-1.572976820E-2,-2.107483521E-2
1.439684851E2,-4.428769462E-3,-1.893680729E-2,-1.756236330E-2
1.444726443E2,-1.527161920E-3,1.893680729E-2,-8.552107029E-3
1.449768034E2,2.641990222E-2,-1.893680729E-2,-9.926552884E-3
1.454809623E2,-3.512472380E-3,1.542433538E-2,-1.069013379E-3
1.459851210E2,7.177661173E-3,9.010255337E-3,-4.428769462E-3
1.464892797E2,-7.177661173E-3,4.734201822E-3,-3.176496923E-2
1.469934381E2,-3.512472380E-3,-3.298669681E-2,-2.367101051E-2
1.474975964E2,-5.955931731E-3,3.054323839E-3,-2.138026757E-3
1.480017544E2,-7.941242307E-3,2.764163166E-2,2.748891478E-3
1.485059123E2,-2.244928107E-2,-2.657261863E-2,-2.290742844E-2
1.490100726E2,4.489856213E-2,-1.939495653E-2,1.328630932E-2
1.495142277E2,-1.027780026E-1,3.359756200E-3,7.635809598E-4
1.500183852E2,7.635809947E-3,-4.276053514E-3,-2.000582218E-2
1.505225426E2,1.918115467E-1,-2.321286127E-2,2.412915789E-2
1.510266998E2,-8.445205539E-2,-4.123337101E-3,-1.496618707E-2
1.515308569E2,3.543015569E-2,-1.420260593E-2,-1.221729536E-2
1.520350140E2,-1.237001177E-2,1.970038936E-2,2.046396956E-2
1.525391712E2,2.214384824E-2,1.237001177E-2,1.618791744E-2
1.530433282E2,1.237001177E-2,2.748891478E-3,-4.382954910E-2
1.535474851E2,3.680460155E-2,-5.192350596E-3,1.221729536E-2
1.540516418E2,-1.954767294E-2,3.680460155E-2,-7.941242307E-3
1.545557982E2,4.230238497E-2,-4.886918236E-3,8.460476995E-2
1.550599545E2,-1.151480079E-1,9.621120058E-3,-5.421425030E-2
1.555641105E2,6.414080039E-3,-4.260781780E-2,-5.787943676E-2
1.560682664E2,-2.351829410E-2,-1.771507785E-2,3.359756200E-3
1.565724220E2,1.970038936E-2,1.282816008E-2,-1.985310577E-3
1.570765775E2,4.581485991E-4,1.343902480E-2,-5.955931731E-3
1.575807328E2,3.970621154E-3,1.221729559E-3,-1.374445739E-3
1.580848879E2,-2.657261863E-2,1.679878100E-3,-6.719512399E-3
1.585890428E2,-2.550360374E-2,-2.474002354E-2,5.345067009E-3
1.590931974E2,4.123337194E-2,1.740964688E-2,2.443459118E-3
1.595973519E2,-6.719512399E-3,6.719512399E-3,-3.817904973E-3
1.601015062E2,-3.878991306E-2,1.038470119E-2,1.389717404E-2
1.606056604E2,2.138026757E-3,7.330377586E-3,-2.290742937E-3
1.611098144E2,-3.023780696E-2,-1.191186346E-2,-2.076940238E-2
1.616139684E2,2.993237413E-2,-2.306014486E-2,-7.635809947E-3
1.621181227E2,2.138026757E-3,2.672533318E-2,1.893680729E-2
1.626222776E2,-2.183841541E-2,1.099556591E-2,-1.832594397E-3
1.631264331E2,2.183841541E-2,-8.246674202E-3,-4.276053514E-3
1.636305892E2,-9.162971750E-3,7.635809947E-3,4.276053514E-3
1.641347458E2,-2.138026804E-2,4.886918236E-3,-6.566796452E-3
1.646389024E2,2.901607659E-3,-8.399390616E-3,-1.939495653E-2
1.651430590E2,-1.603520103E-2,-1.542433538E-2,-1.450803876E-2
1.656472155E2,3.054323839E-3,-3.207040019E-3,1.221729559E-3
1.661513719E2,3.176496923E-2,1.374445762E-2,8.093958721E-3
1.666555282E2,-6.719512399E-3,-6.566796452E-3,1.282816008E-2
1.671596845E2,-2.993237413E-2,1.863137633E-2,-8.704823442E-3
1.676638408E2,-2.825249545E-2,3.054323839E-3,-1.481347065E-2
1.681679974E2,-1.817322709E-2,-9.162971983E-4,-1.664606482E-2
1.686721540E2,-1.023198478E-2,-1.007926930E-2,-8.399390616E-3
1.691763106E2,5.650499370E-3,1.527161949E-4,8.704823442E-3
1.696804671E2,-5.650499370E-3,-5.345067009E-3,-2.947422490E-2
1.701846237E2,-1.679878123E-2,5.497782957E-3,3.817904973E-3
1.706887802E2,-1.970038936E-2,1.313359290E-2,-4.276053514E-3
1.711929365E2,-4.581485991E-4,3.970621154E-3,-2.138026757E-3
1.716970926E2,-2.138026757E-3,9.621120058E-3,-8.399390616E-3
1.722012484E2,2.290742937E-3,1.099556591E-2,-2.596175298E-3
1.727054040E2,-7.483093534E-3,2.901607659E-3,-1.359174121E-2
1.732095594E2,-3.970621154E-3,-7.330377586E-3,-4.581485991E-4
1.737137154E2,-2.153298259E-2,-2.031125315E-2,1.084284950E-2
1.742178700E2,-2.748891478E-3,-6.261364091E-3,3.512472380E-3
1.747220257E2,9.621120058E-3,2.138026757E-3,7.483093534E-3
1.752261809E2,2.138026757E-3,1.450803876E-2,6.108647678E-3
1.757303360E2,1.649334840E-2,-9.926552884E-3,1.328630932E-2
1.762344909E2,5.345067009E-3,-1.527161920E-3,7.635809598E-4
1.767386456E2,-1.679878100E-3,4.123337101E-3,-2.290742937E-3
1.772428002E2,-6.108647678E-3,9.162971750E-3,-3.359756200E-3
1.777469547E2,8.246674202E-3,-6.414080039E-3,3.970621154E-3
1.782511090E2,-0.000000000E0,-1.069013379E-3,-5.192350596E-3
1.787552633E2,1.679878100E-3,-4.581485875E-3,-1.221729559E-3
1.792594173E2,3.817904973E-3,9.162971983E-4,1.832594397E-3
1.797635711E2,4.734201822E-3,1.985310577E-3,2.748891478E-3
1.802677246E2,7.177661173E-3,-2.290742937E-3,2.443459118E-3
1.807718780E2,6.108647794E-4,-1.221729559E-3,-2.748891478E-3
1.812760313E2,-3.054323897E-4,9.162971983E-4,-1.527161949E-4
1.817801844E2,-4.886918236E-3,3.359756200E-3,-2.290742937E-3
1.822843373E2,-8.857538924E-3,-1.527161920E-3,-6.872228812E-3
1.827884900E2,-1.679878100E-3,5.497782957E-3,4.123337101E-3
1.832926425E2,1.527161920E-3,8.246674202E-3,7.177661173E-3
1.837967948E2,-1.374445739E-3,1.359174121E-2,-9.010255337E-3
1.843009468E2,1.374445739E-3,7.635809947E-3,1.374445739E-3
1.848050987E2,-3.359756200E-3,6.108647794E-4,-1.527161920E-3
1.853092504E2,9.010255337E-3,9.162971983E-4,1.221729559E-3
1.858134019E2,5.803215317E-3,1.679878100E-3,9.162971983E-4
1.863175533E2,-5.497782957E-3,1.221729559E-3,-2.138026757E-3
1.868217043E2,1.466075517E-2,1.084284950E-2,1.343902480E-2
1.873258551E2,2.443459118E-3,1.588248461E-2,1.237001177E-2
1.878300057E2,-1.496618707E-2,1.725693047E-2,2.901607659E-3
1.883341562E2,-1.740964688E-2,2.000582218E-2,-4.428769462E-3
1.888383070E2,-7.024944760E-3,5.039634649E-3,3.970621154E-3
1.893424583E2,-3.359756200E-3,3.512472380E-3,4.581485875E-3
1.898466100E2,4.734201822E-3,9.162971983E-4,9.010255337E-3
1.903507619E2,-9.010255337E-3,5.650499370E-3,-2.443459118E-3
1.908549138E2,-1.817322709E-2,5.039634649E-3,-7.941242307E-3
1.913590657E2,-1.389717404E-2,8.093958721E-3,-8.857538924E-3
1.918632173E2,1.588248461E-2,8.246674202E-3,3.359756200E-3
1.923673688E2,1.725693047E-2,-1.374445739E-3,1.069013379E-3
1.928715203E2,1.374445739E-3,3.359756200E-3,2.596175298E-3
1.933756716E2,-1.618791744E-2,7.024944760E-3,-1.527161920E-3
1.938798226E2,-1.481347065E-2,6.261364091E-3,5.497782957E-3
1.943839734E2,-2.168569900E-2,7.024944760E-3,1.985310577E-3
1.948881239E2,1.679878100E-3,4.734201822E-3,2.199113183E-2
1.953922743E2,4.123337101E-3,9.315688163E-3,2.367101051E-2
1.958964245E2,-8.704823442E-3,8.246674202E-3,1.389717404E-2
1.964005746E2,2.443459118E-3,7.635809947E-3,2.229656465E-2
1.969047245E2,-6.872228812E-3,4.123337101E-3,1.053741761E-2
1.974088743E2,-1.527161989E-2,7.788525894E-3,2.901607659E-3
1.979130238E2,3.970621154E-3,7.788525894E-3,2.031125315E-2
1.984171733E2,-4.123337101E-3,1.679878100E-3,2.840521187E-2
1.989213225E2,-8.552107029E-3,4.123337101E-3,1.893680729E-2
1.994254717E2,-1.786779426E-2,7.330377586E-3,1.466075517E-2
1.999296208E2,1.069013379E-3,-4.123337101E-3,2.275471389E-2
2.004337701E2,-6.566796452E-3,-2.901607659E-3,1.710421406E-2
2.009379196E2,-1.237001177E-2,-2.748891478E-3,1.618791744E-2
2.014420697E2,-4.581485991E-4,-2.290742937E-3,2.626718581E-2
2.019462206E2,-3.359756200E-3,4.428769462E-3,1.664606482E-2
2.024503727E2,-2.901607659E-3,6.719512399E-3,1.496618707E-2
2.029545264E2,-0.000000000E0,7.024944760E-3,1.725693047E-2
2.034586816E2,-7.941242307E-3,7.177661173E-3,1.343902480E-2
2.039628383E2,-6.872228812E-3,7.788525894E-3,1.145371422E-2
2.044669962E2,-1.389717404E-2,9.926552884E-3,7.483093534E-3
2.049711552E2,-1.802051067E-2,2.031125315E-2,1.527161989E-2
2.054753152E2,-6.872228812E-3,1.007926930E-2,1.328630932E-2
2.059794761E2,-3.512472380E-3,6.108647794E-4,1.740964688E-2
2.064836377E2,-5.803215317E-3,-1.832594397E-3,2.061668597E-2
2.069878001E2,-2.138026757E-3,-3.665188793E-3,1.466075517E-2
2.074919628E2,-1.069013402E-2,-4.276053514E-3,1.863137633E-2
2.079961260E2,-9.010255337E-3,-5.497782957E-3,9.926552884E-3
2.085002893E2,-1.832594397E-3,-1.511890348E-2,2.031125315E-2
2.090044527E2,-3.359756200E-3,-7.024944760E-3,1.634063199E-2
2.095086162E2,-1.374445739E-3,-2.748891478E-3,1.740964688E-2
2.100127799E2,-5.345067009E-3,4.123337101E-3,1.267544460E-2
2.105169435E2,-1.420260593E-2,6.719512399E-3,5.955931731E-3
2.110211072E2,-1.572976820E-2,1.069013402E-2,5.039634649E-3
2.115252708E2,-2.901607659E-3,1.374445762E-2,1.374445762E-2
2.120294345E2,-4.276053514E-3,1.786779426E-2,1.740964688E-2
2.125335982E2,7.635809947E-3,1.191186346E-2,1.771507785E-2
2.130377620E2,5.192350596E-3,1.053741761E-2,1.069013402E-2
2.135419260E2,7.177661173E-3,1.175914705E-2,1.298087649E-2
2.140460907E2,1.649334840E-2,8.857538924E-3,1.237001177E-2
2.145502559E2,2.596175298E-3,1.007926930E-2,-6.108647794E-4
2.150544211E2,1.099556591E-2,3.665188793E-3,-0.000000000E0
2.155585862E2,-1.527161949E-4,3.359756200E-3,1.679878100E-3
2.160627509E2,1.130099874E-2,4.276053514E-3,8.093958721E-3
2.165669151E2,-8.704823442E-3,1.679878100E-3,-8.093958721E-3
2.170710789E2,1.023198478E-2,-9.315688163E-3,-2.199113183E-2
2.175752422E2,-4.734201822E-3,8.552107029E-3,1.374445762E-2
2.180794050E2,-6.261364091E-3,-2.901607659E-3,-2.290742937E-3
2.185835672E2,-1.069013379E-3,-2.596175298E-3,-7.635809598E-4
2.190877289E2,4.886918236E-3,4.123337101E-3,6.566796452E-3
2.195918901E2,-6.872228812E-3,3.054323839E-3,-1.679878100E-3
2.200960509E2,1.527161920E-3,6.108647794E-4,1.985310577E-3
2.206002111E2,-4.581485875E-3,9.162971983E-4,-1.985310577E-3
2.211043710E2,-1.679878100E-3,1.527161920E-3,-1.527161920E-3
2.216085306E2,3.512472380E-3,-2.901607659E-3,1.679878100E-3
2.221126899E2,-9.162971983E-4,-1.832594397E-3,-1.679878100E-3
2.226168489E2,-2.901607659E-3,-1.069013379E-3,-4.734201822E-3
2.231210076E2,-5.345067009E-3,-2.901607659E-3,-4.734201822E-3
2.236251660E2,5.039634649E-3,2.443459118E-3,5.955931731E-3
2.241293241E2,2.901607659E-3,3.054323897E-4,7.635809598E-4
2.246334820E2,-4.581485991E-4,1.069013379E-3,1.069013379E-3
2.251376398E2,7.635809598E-4,1.527161949E-4,-0.000000000E0
2.256417978E2,1.069013379E-3,9.162971983E-4,-3.054323897E-4
2.261459561E2,-1.527161920E-3,-2.290742937E-3,-1.527161920E-3
2.266501148E2,0.000000000E0,-4.581485991E-4,-1.527161949E-4
2.271542736E2,-3.054323897E-4,-0.000000000E0,-7.635809598E-4
2.276584325E2,-3.207040019E-3,7.635809598E-4,-3.817904973E-3
2.281625913E2,-8.399390616E-3,3.207040019E-3,-6.566796452E-3
2.286667501E2,2.443459118E-3,3.054323839E-3,3.512472380E-3
2.291709088E2,-1.069013379E-3,4.276053514E-3,2.596175298E-3
2.296750673E2,-9.162971983E-4,1.221729559E-3,1.374445739E-3
2.301792257E2,-6.108647794E-4,6.108647794E-4,-6.108647794E-4
2.306833837E2,3.359756200E-3,-1.527161920E-3,4.581485991E-4
2.311875414E2,-1.069013379E-3,-6.108647794E-4,-1.679878100E-3
2.316916988E2,-8.399390616E-3,-1.527161949E-4,-5.345067009E-3
2.321958559E2,5.345067009E-3,-1.985310577E-3,3.054323839E-3
2.327000126E2,6.261364091E-3,3.054323897E-4,7.635809947E-3
2.332041690E2,-7.635809598E-4,3.054323897E-4,0.000000000E0
2.337083253E2,7.635809598E-4,7.635809598E-4,-3.054323897E-4
2.342124814E2,6.108647794E-4,4.581485991E-4,4.581485991E-4
2.347166373E2,-3.054323897E-4,-6.719512399E-3,6.414080039E-3
2.352207929E2,-1.038470119E-2,-3.817904973E-3,-4.581485875E-3
2.357249484E2,7.024944760E-3,-7.635809598E-4,1.007926930E-2
2.362291037E2,4.123337101E-3,9.162971983E-4,3.359756200E-3
2.367332589E2,-6.108647794E-4,1.527161920E-3,1.221729559E-3
2.372374140E2,7.635809598E-4,-4.581485991E-4,4.581485991E-4
2.377415689E2,3.161225095E-2,-4.871646687E-2,6.108647678E-3
2.382457236E2,3.313941509E-2,-5.558869615E-2,4.123337101E-3
2.387498781E2,1.893680729E-2,-4.581485689E-2,5.650499370E-3
2.392540323E2,2.138026757E-3,3.970621154E-3,3.207040019E-3
2.397581863E2,2.748891478E-3,4.734201822E-3,2.901607659E-3
2.402623400E2,-3.054323897E-4,-1.374445739E-3,0.000000000E0
2.407664936E2,4.734201822E-3,-1.527161920E-3,1.985310577E-3
2.412706472E2,-4.428769462E-3,2.138026757E-3,-2.901607659E-3
2.417748006E2,-7.788525894E-3,-2.443459118E-3,-4.734201822E-3
2.422789540E2,-2.443459118E-3,-2.138026757E-3,-1.985310577E-3
2.427831074E2,8.704823442E-3,1.985310577E-3,6.566796452E-3
2.432872607E2,1.221729559E-3,2.443459118E-3,6.108647794E-4
2.437914140E2,2.596175298E-3,-3.970621154E-3,2.138026757E-3
2.442955672E2,1.527161920E-3,-9.162971983E-4,9.162971983E-4
2.447997204E2,-2.748891478E-3,-0.000000000E0,-2.748891478E-3
2.453038735E2,-3.970621154E-3,-6.414080039E-3,-4.123337101E-3
2.458080263E2,1.038470119E-2,-2.076940238E-2,-4.581485991E-4
2.463121791E2,2.596175298E-3,7.330377586E-3,4.428769462E-3
2.468163316E2,3.512472380E-3,2.901607659E-3,1.527161920E-3
2.473204839E2,-6.108647678E-3,7.330377586E-3,-7.635809598E-4
2.478246360E2,3.817904973E-3,-1.374445739E-3,1.679878100E-3
2.483287879E2,-4.734201822E-3,2.901607659E-3,-1.527161920E-3
2.488329397E2,3.970621154E-3,-7.483093534E-3,-4.581485991E-4
2.493370912E2,-1.527161920E-3,-4.428769462E-3,-3.207040019E-3
2.498412425E2,2.901607659E-3,4.428769462E-3,3.817904973E-3
2.503453935E2,-0.000000000E0,2.748891478E-3,-3.054323897E-4
2.508495442E2,3.054323897E-4,1.985310577E-3,6.108647794E-4
2.513536947E2,-4.581485991E-4,6.108647794E-4,7.635809598E-4
2.518578450E2,-2.443459118E-3,1.374445739E-3,2.138026757E-3
2.523619952E2,-1.527161920E-3,7.635809598E-4,-3.054323897E-4
2.528661452E2,7.024944760E-3,-1.298087649E-2,-7.483093534E-3
2.533702949E2,1.282816008E-2,-2.993237413E-2,1.038470119E-2
2.538744445E2,-8.552107029E-3,1.114828233E-2,-1.084284950E-2
2.543785939E2,1.221729536E-2,-5.650499370E-3,2.748891525E-2
2.548827431E2,4.581485991E-4,9.468403645E-3,6.108647678E-3
2.553868922E2,3.191768378E-2,-3.665188700E-2,-6.108647794E-4
2.558910410E2,5.497783050E-2,-5.054906011E-2,-2.138026757E-3
2.563951896E2,4.734201822E-3,-1.069013379E-3,1.511890348E-2
2.568993382E2,-1.588248461E-2,4.428769648E-2,-2.015853859E-2
2.574034868E2,-2.107483521E-2,7.177661173E-3,-6.872228812E-3
2.579076352E2,2.443459118E-3,9.621120058E-3,-5.039634649E-3
2.584117836E2,-1.527161949E-4,6.108647794E-4,-1.069013379E-3
2.589159318E2,-4.428769462E-3,3.359756200E-3,-2.443459118E-3
2.594200799E2,-3.817904973E-3,3.970621154E-3,-2.443459118E-3
2.599242281E2,-9.162971983E-4,-3.054323897E-4,7.635809598E-4
2.604283763E2,1.832594397E-3,-3.512472380E-3,1.527161920E-3
2.609325246E2,3.970621154E-3,-2.290742937E-3,1.679878100E-3
2.614366729E2,-7.635809598E-4,1.527161920E-3,-9.162971983E-4
2.619408213E2,-3.054323839E-3,-4.581485875E-3,-2.290742937E-3
2.624449696E2,-5.803215317E-3,-3.054323839E-3,-4.886918236E-3
2.629491180E2,5.192350596E-3,3.512472380E-3,3.512472380E-3
2.634532663E2,5.192350596E-3,-1.221729559E-3,2.901607659E-3
2.639574147E2,-1.450803876E-2,1.191186346E-2,-6.872228812E-3
2.644615630E2,2.290742937E-3,-1.985310577E-3,6.108647794E-4
2.649657111E2,4.581485991E-4,-1.009454057E-1,1.420260593E-2
2.654698591E2,5.207622424E-2,7.498364896E-2,7.177661173E-3
2.659740070E2,-4.566214234E-2,9.162971750E-3,-3.817904973E-3
2.664781548E2,-1.069013402E-2,-6.872228812E-3,-6.261364091E-3
2.669823025E2,-2.596175298E-3,-1.084284950E-2,4.428769462E-3
2.674864502E2,1.221729559E-3,2.290742937E-3,-4.581485991E-4
2.679905978E2,1.267544460E-2,-3.054323839E-3,4.886918236E-3
2.684947453E2,2.519817278E-2,2.443459118E-3,9.315688163E-3
2.689988927E2,1.298087649E-2,5.650499370E-3,-5.039634649E-3
2.695030399E2,-2.244928107E-2,-6.108647794E-4,3.466657549E-2
2.700071870E2,2.474002354E-2,3.054323897E-4,1.282816008E-2
2.705113339E2,-6.872228812E-3,3.512472380E-3,2.489273995E-2
2.710154806E2,-2.596175298E-3,-2.138026757E-3,9.162971983E-4
2.715196274E2,-1.298087649E-2,9.010255337E-3,1.069013379E-3
2.720237740E2,3.054323839E-3,1.130099874E-2,-3.207040019E-3
2.725279205E2,-5.039634649E-3,5.192350596E-3,-5.955931731E-3
2.730320668E2,2.168569900E-2,-3.970621154E-3,1.069013379E-3
2.735362130E2,-2.748891525E-2,-7.177661173E-3,1.679878100E-3
2.740403591E2,1.878409274E-2,-5.039634649E-3,1.985310577E-3
2.745445050E2,-1.069013402E-2,3.665188793E-3,-6.108647794E-4
2.750486507E2,-2.916879393E-2,1.298087649E-2,-5.345067009E-3
2.755527964E2,-1.679878123E-2,-8.704823442E-3,3.970621154E-3
2.760569419E2,5.955931731E-3,-6.719512399E-3,3.512472380E-3
2.765610874E2,1.802051067E-2,-4.276053514E-3,-1.374445739E-3
2.770652328E2,2.596175298E-3,-3.817904973E-3,-5.039634649E-3
2.775693778E2,-1.588248461E-2,1.450803876E-2,-3.512472380E-3
2.780735229E2,2.076940238E-2,-8.552107029E-3,-1.374445739E-3
2.785776680E2,-1.756236330E-2,1.023198478E-2,-4.123337101E-3
2.790818135E2,1.160643063E-2,-2.015853859E-2,4.581485875E-3
2.795859593E2,2.031125315E-2,-1.802051067E-2,1.359174121E-2
2.800901055E2,-4.734202102E-2,4.871646687E-2,-3.100138716E-2
2.805942518E2,4.031707719E-2,-4.123337194E-2,3.665188793E-3
2.810983983E2,-5.497782957E-3,-8.552107029E-3,1.435532235E-2
2.816025451E2,1.527161920E-3,-1.832594397E-3,1.023198478E-2
2.821066919E2,-3.451386094E-2,2.916879393E-2,-1.756236330E-2
2.826108389E2,-1.832594350E-2,1.114828233E-2,-7.177661173E-3
2.831149861E2,1.542433538E-2,1.084284950E-2,-0.000000000E0
2.836191335E2,2.000582218E-2,3.970621154E-3,-3.054323897E-4
2.841232808E2,9.621120058E-3,-2.809977904E-2,-1.527161920E-3
2.846274283E2,1.924224012E-2,1.038470119E-2,-4.734201822E-3
2.851315758E2,-5.803215317E-3,3.176496923E-2,-2.672533318E-2
2.856357231E2,2.015853859E-2,-3.604102135E-2,-1.924224012E-2
2.861398704E2,9.468403645E-3,-1.007926930E-2,-2.764163166E-2
2.866440176E2,9.621120058E-3,1.634063199E-2,-3.924806044E-2
2.871481647E2,1.343902480E-2,-2.962694131E-2,-3.344484791E-2
2.876523118E2,4.886918236E-3,-2.153298259E-2,-3.298669681E-2
2.881564588E2,1.618791744E-2,9.162971750E-3,-4.856374860E-2
2.886606057E2,-2.306014486E-2,3.054323897E-4,-5.146535859E-2
2.891647528E2,2.138026757E-3,-2.733619884E-2,-4.382954910E-2
2.896689001E2,-1.771507785E-2,-4.627300799E-2,-4.886918142E-2
2.901730474E2,-0.000000000E0,1.450803876E-2,-4.031707719E-2
2.906771949E2,1.374445762E-2,-9.773836471E-3,-3.527744114E-2
2.911813423E2,2.061668597E-2,-6.566796452E-3,-3.634645417E-2
2.916854898E2,7.483093534E-3,-2.306014486E-2,-4.505127668E-2
2.921896372E2,4.886918236E-3,-2.977965772E-2,-4.917461425E-2
2.926937846E2,-4.428769462E-3,-1.084284950E-2,-4.276053607E-2
2.931979320E2,-1.114828233E-2,-1.496618707E-2,-5.345066637E-2
2.937020793E2,-1.359174121E-2,-1.878409274E-2,-3.222311661E-2
2.942062263E2,-5.497782957E-3,-1.389717404E-2,-1.802051067E-2
2.947103735E2,-1.282816008E-2,-1.450803876E-2,-1.175914705E-2
2.952145206E2,-1.282816008E-2,-1.007926930E-2,-6.719512399E-3
2.957186676E2,1.007926930E-2,9.162971983E-4,8.399390616E-3
2.962228146E2,-1.313359290E-2,2.596175298E-3,-6.108647794E-4
2.967269616E2,-2.580903657E-2,1.023198478E-2,1.282816008E-2
2.972311088E2,-1.832594350E-2,1.206457894E-2,2.214384824E-2
2.977352567E2,-2.351829410E-2,1.771507785E-2,3.924806044E-2
2.982394049E2,-2.458730713E-2,1.237001177E-2,4.428769648E-2
2.987435532E2,-2.244928107E-2,1.160643063E-2,5.222893879E-2
2.992477015E2,-7.788525894E-3,1.740964688E-2,5.299251899E-2
2.997518495E2,-2.474002354E-2,2.809977904E-2,4.444041103E-2
3.002559973E2,1.527161920E-3,5.497782957E-3,5.421425030E-2
3.007601448E2,-3.817904973E-3,3.252854943E-2,4.046979174E-2
3.012642921E2,2.825249545E-2,-4.123337101E-3,4.749473557E-2
3.017684392E2,1.496618707E-2,8.246674202E-3,3.405570984E-2
3.022725861E2,1.007926930E-2,1.130099874E-2,2.107483521E-2
3.027767330E2,-9.773836471E-3,-8.704823442E-3,5.345067009E-3
3.032808799E2,3.527744114E-2,-4.214967042E-2,2.367101051E-2
3.037850271E2,-5.345067009E-3,2.122755162E-2,-3.207040019E-3
3.042891746E2,6.872228812E-3,1.252272818E-2,-1.221729559E-3
3.047933223E2,-6.414080039E-3,1.511890348E-2,-5.345067009E-3
3.052974704E2,9.773836471E-3,-1.954767294E-2,7.635809947E-3
3.058016187E2,-2.779434808E-2,2.886336111E-2,-1.038470119E-2
3.063057671E2,-4.276053514E-3,-1.527161920E-3,-5.039634649E-3
3.068099156E2,-1.053741761E-2,5.803215317E-3,9.162971983E-4
3.073140640E2,-9.315688163E-3,8.399390616E-3,-1.069013402E-2
3.078182124E2,6.414080039E-3,-3.054323839E-3,4.276053514E-3
3.083223608E2,3.772090003E-2,-2.733619884E-2,2.138026804E-2
3.088265091E2,-3.084867075E-2,2.626718581E-2,-1.282816008E-2
3.093306574E2,1.267544460E-2,-6.261364091E-3,7.483093534E-3
3.098348056E2,-1.175914705E-2,5.497782957E-3,-4.581485875E-3
3.103389537E2,-1.481347065E-2,5.039634649E-3,-1.114828233E-2
3.108431017E2,3.145953640E-2,-2.183841541E-2,1.557705179E-2
3.113472495E2,-2.489273995E-2,2.015853859E-2,-7.483093534E-3
3.118513972E2,1.023198478E-2,-3.817904973E-3,3.665188793E-3
3.123555449E2,7.024944760E-3,-8.246674202E-3,2.748891478E-3
3.128596926E2,-2.138026804E-2,2.076940238E-2,-5.955931731E-3
3.133638404E2,2.336557768E-2,-2.183841541E-2,1.084284950E-2
3.138679882E2,-3.649916872E-2,2.306014486E-2,-1.924224012E-2
3.143721361E2,1.282816008E-2,-5.345067009E-3,9.010255337E-3
3.148762841E2,7.330377586E-3,-6.108647678E-3,6.719512399E-3
3.153804321E2,-1.679878123E-2,1.771507785E-2,-8.093958721E-3
3.158845799E2,-1.343902480E-2,1.313359290E-2,1.221729559E-3
3.163887276E2,-5.971203372E-2,3.054323839E-3,-1.527161920E-3
3.168928752E2,-3.451386094E-2,2.687804960E-2,1.267544460E-2
3.173970226E2,-4.673115537E-2,1.389717404E-2,2.428187430E-2
3.179011699E2,-1.313359290E-2,5.803215317E-3,4.902189970E-2
3.184053170E2,-4.550942779E-2,3.436114267E-2,4.260781780E-2
3.189094638E2,-2.580903657E-2,2.794706449E-2,5.940660089E-2
3.194136106E2,-2.367101051E-2,2.290742844E-2,6.688969582E-2
3.199177570E2,-1.389717404E-2,1.908952370E-2,6.948586553E-2
3.204219034E2,2.443459118E-3,1.130099874E-2,7.452550530E-2
3.209260496E2,-2.458730713E-2,2.367101051E-2,6.414080411E-2
3.214301957E2,-7.941242307E-3,2.855792828E-2,6.872228533E-2
3.219343415E2,-4.276053514E-3,2.351829410E-2,6.505709887E-2
3.224384872E2,6.719512399E-3,-1.069013379E-3,7.788526267E-2
3.229426328E2,1.221729559E-3,2.443459118E-3,8.109229803E-2
3.234467781E2,-4.199695215E-2,2.947422490E-2,5.665770918E-2
3.239509234E2,-2.046396956E-2,2.489273995E-2,5.619955808E-2
3.244550686E2,1.664606482E-2,1.527161949E-4,7.208204269E-2
3.249592138E2,8.399390616E-3,1.572976820E-2,6.123919412E-2
3.254633589E2,2.611446939E-2,-9.621120058E-3,5.314523727E-2
3.259675040E2,1.328630932E-2,-2.443459118E-3,3.711003438E-2
3.264716491E2,7.177661173E-3,9.926552884E-3,2.443459071E-2
3.269757943E2,2.611446939E-2,-1.634063199E-2,2.382372692E-2
3.274799395E2,3.298669681E-2,-7.635809947E-3,1.970038936E-2
3.279840847E2,1.511890348E-2,-2.748891478E-3,8.093958721E-3
3.284882301E2,1.572976820E-2,-5.039634649E-3,3.207040019E-3
3.289923756E2,7.635809947E-3,-4.734201822E-3,-3.054323897E-4
3.294965209E2,3.054323839E-3,8.246674202E-3,-1.237001177E-2
3.300006662E2,-3.100138716E-2,1.985310577E-3,-1.603520103E-2
3.305048113E2,-5.955931731E-3,-3.252854943E-2,-8.399390616E-3
3.310089563E2,-9.468403645E-3,2.886336111E-2,-1.878409274E-2
3.315131013E2,7.330377586E-3,1.069013402E-2,-9.773836471E-3
3.320172470E2,1.466075517E-2,-1.572976820E-2,-8.552107029E-3
3.325213932E2,-5.955931731E-3,2.321286127E-2,-1.695149764E-2
3.330255397E2,4.886918236E-3,7.941242307E-3,-1.557705179E-2
3.335296864E2,1.985310577E-3,-3.817904973E-3,-1.053741761E-2
3.340338330E2,2.657261863E-2,-8.246674202E-3,-4.581485991E-4
3.345379794E2,1.832594397E-3,4.886918236E-3,-8.246674202E-3
3.350421257E2,-4.428769462E-3,1.343902480E-2,-1.725693047E-2
3.355462717E2,-1.374445739E-3,-1.359174121E-2,-6.719512399E-3
3.360504176E2,-1.542433538E-2,1.832594350E-2,-1.908952370E-2
3.365545633E2,5.192350596E-3,-1.878409274E-2,-2.748891478E-3
3.370587088E2,-2.550360374E-2,1.069013379E-3,-2.672533318E-2
3.375628542E2,6.261364091E-3,-2.550360374E-2,-1.114828233E-2
3.380669993E2,6.108647794E-4,-8.246674202E-3,-6.566796452E-3
3.385711441E2,6.887500733E-2,-1.050687432E-1,1.954767294E-2
3.390752887E2,3.237583488E-2,-1.786779426E-2,5.955931731E-3
3.395794332E2,-7.635809947E-3,1.572976820E-2,-5.650499370E-3
3.400835776E2,-4.123337101E-3,4.428769462E-3,-2.748891478E-3
3.405877219E2,-1.191186346E-2,6.566796452E-3,-4.581485875E-3
3.410918661E2,-1.374445762E-2,-5.192350596E-3,-1.145371422E-2
3.415960103E2,-6.414080039E-3,-6.719512399E-3,-1.832594397E-3
3.421001542E2,4.718930274E-2,1.175914705E-2,1.725693047E-2
3.426042980E2,1.557705179E-2,-2.596175298E-3,1.084284950E-2
3.431084417E2,1.206457894E-2,-8.552107029E-3,1.679878100E-3
3.436125854E2,2.367101051E-2,-2.367101051E-2,5.192350596E-3
3.441167290E2,0.000000000E0,4.321868345E-2,2.306014486E-2
3.446208725E2,5.192350596E-2,2.596175298E-2,-4.581485991E-4
3.451250160E2,-1.359174121E-2,3.588830680E-2,-2.000582218E-2
3.456291593E2,5.971203372E-2,1.954767294E-2,2.474002354E-2
3.461333025E2,-3.649916872E-2,1.221729559E-3,-1.389717404E-2
3.466374457E2,6.597339362E-2,-5.345067009E-3,2.733619884E-2
3.471415888E2,-6.475166976E-2,-1.985310577E-2,-3.054323839E-3
3.476457318E2,5.803215504E-2,-0.000000000E0,-1.985310577E-3
3.481498747E2,-3.207040019E-3,2.138026757E-3,1.603520103E-2
3.486540173E2,4.260781780E-2,-4.382954910E-2,2.229656465E-2
3.491581599E2,-4.749473557E-2,-3.115410358E-2,-3.329212964E-2
3.496623025E2,-1.435532235E-2,-4.123337194E-2,-1.527161949E-4
3.501664452E2,5.253437161E-2,2.748891478E-3,6.154462695E-2
3.506705878E2,1.221729559E-3,4.291325063E-2,-1.908952370E-2
3.511747303E2,2.733619884E-2,3.237583488E-2,-2.336557768E-2
3.516788727E2,-9.957095981E-2,-5.253437161E-2,-2.138026757E-3
3.521830151E2,1.664606482E-2,-8.552107029E-3,-5.650499370E-3
3.526871575E2,3.222311661E-2,-5.955931731E-3,5.650499370E-3
3.531912999E2,5.650499091E-2,-1.374445739E-3,1.175914705E-2
3.536954425E2,-9.422589093E-2,-9.315688163E-3,1.191186346E-2
3.541995851E2,2.641990222E-2,2.290742937E-3,3.512472380E-3
3.547037276E2,-4.184423760E-2,2.580903657E-2,-1.603520103E-2
3.552078701E2,-1.298087649E-2,-1.069013402E-2,1.374445739E-3
3.557120126E2,-3.008509055E-2,5.803215317E-3,-9.162971750E-3
3.562161551E2,-1.007926930E-2,7.635809598E-4,-2.901607659E-3
3.567202976E2,1.007926930E-2,-1.099556591E-2,-1.221729559E-3
3.572244399E2,-1.145371422E-2,2.351829410E-2,-1.603520103E-2
3.577285819E2,-7.635809947E-3,1.191186346E-2,1.527161949E-4
3.582327258E2,-5.039634649E-3,3.970621154E-3,-2.443459118E-3
3.587368654E2,2.596175298E-3,-3.054323897E-4,-6.108647794E-4
3.592410070E2,-4.581485991E-4,-4.276053514E-3,3.817904973E-3
3.597451486E2,-1.160643063E-2,-5.803215317E-3,-3.970621154E-3
3.602492903E2,7.788525894E-3,8.704823442E-3,-3.207040019E-3
3.607534321E2,2.901607659E-3,-1.618791744E-2,6.566796452E-3
3.612575738E2,-1.527161920E-3,2.443459118E-3,3.359756200E-3
3.617617155E2,-7.941242307E-3,1.450803876E-2,-3.359756200E-3
3.622658574E2,3.665188793E-3,-1.832594397E-3,-3.054323897E-4
3.627699993E2,7.788525894E-3,-1.603520103E-2,4.428769462E-3
3.632741415E2,1.832594397E-3,-1.832594397E-3,5.192350596E-3
3.637782837E2,1.985310577E-2,-2.275471389E-2,-5.345067009E-3
3.642824259E2,-3.680460155E-2,2.336557768E-2,-2.901607659E-3
3.647865681E2,1.298087649E-2,-1.343902480E-2,6.414080039E-3
3.652907102E2,-3.665188793E-3,7.330377586E-3,-6.108647794E-4
3.657948523E2,-9.468403645E-3,2.107483521E-2,-1.527161920E-3
3.662989943E2,3.054323839E-3,4.123337101E-3,1.069013379E-3
3.668031365E2,1.053741761E-2,-2.138026804E-2,-3.054323897E-4
3.673072788E2,-1.114828233E-2,-2.290742937E-3,-5.192350596E-3
3.678114212E2,2.748891478E-3,-2.748891478E-3,2.901607659E-3
3.683155636E2,5.650499370E-3,-5.039634649E-3,3.817904973E-3
3.688197060E2,6.414080039E-3,-3.665188793E-3,4.734201822E-3
3.693238484E2,-4.581485991E-4,8.246674202E-3,-6.108647794E-4
3.698279905E2,6.108647794E-4,-7.635809598E-4,4.581485991E-4
3.703321327E2,7.635809598E-4,-4.581485991E-4,2.443459118E-3
3.708362748E2,-3.054323897E-4,-9.162971983E-4,-1.527161920E-3
3.713404168E2,-4.886918236E-3,-7.635809598E-4,4.581485991E-4
3.718445588E2,-4.428769462E-3,-7.177661173E-3,-5.192350596E-3
3.723487007E2,9.926552884E-3,-7.330377586E-3,5.192350596E-3
3.728528426E2,-1.832594397E-3,3.207040019E-3,1.527161949E-4
3.733569844E2,-1.863137633E-2,3.283398226E-2,-1.023198478E-2
3.738611265E2,3.207040019E-3,-4.581485991E-4,-3.817904973E-3
3.743652686E2,3.970621154E-3,7.941242307E-3,-1.069013379E-3
3.748694108E2,-7.177661173E-3,-3.207040019E-3,-4.886918236E-3
3.753735530E2,-4.123337101E-3,-5.803215317E-3,-3.359756200E-3
3.758776953E2,2.443459118E-3,1.175914705E-2,9.162971983E-4
3.763818376E2,5.955931731E-3,1.832594397E-3,3.359756200E-3
3.768859800E2,4.123337101E-3,-9.162971983E-4,3.054323839E-3
3.773901225E2,-1.069013379E-3,4.428769462E-3,1.374445739E-3
3.778942649E2,-6.566796452E-3,1.710421406E-2,2.076940238E-2
3.783984073E2,-1.435532235E-2,6.108647678E-3,2.764163166E-2
3.789025496E2,-1.603520103E-2,2.993237413E-2,1.053741761E-2
3.794066918E2,-3.054323897E-4,6.719512399E-3,-8.246674202E-3
3.799108339E2,-3.970621154E-2,3.848448023E-2,-9.315688163E-3
3.804149759E2,-1.237001177E-2,1.542433538E-2,-7.788525894E-3
3.809191179E2,-3.817904973E-3,5.192350596E-3,-2.138026757E-3
3.814232598E2,-5.955931731E-3,5.192350596E-3,-1.679878100E-3
3.819274016E2,-1.145371422E-2,6.719512399E-3,-1.527161920E-3
3.824315434E2,-7.635809947E-3,4.276053514E-3,-1.832594397E-3
3.829356851E2,4.734201822E-3,3.665188793E-3,-1.679878100E-3
3.834398269E2,2.748891478E-3,6.719512399E-3,1.527161920E-3
3.839439688E2,-7.788525894E-3,1.634063199E-2,-1.175914705E-2
3.844481106E2,-2.458730713E-2,2.031125315E-2,-2.428187430E-2
3.849522524E2,-3.466657549E-2,1.267544460E-2,-7.788525894E-3
3.854563941E2,-3.069595434E-2,1.908952370E-2,-1.237001177E-2
3.859605359E2,-1.603520103E-2,1.038470119E-2,8.857538924E-3
3.864646776E2,-1.191186346E-2,1.328630932E-2,1.007926930E-2
3.869688191E2,-1.313359290E-2,1.237001177E-2,1.679878123E-2
3.874729606E2,-3.222311661E-2,1.374445762E-2,5.039634649E-3
3.879771022E2,-2.443459118E-3,7.024944760E-3,2.260199748E-2
3.884812441E2,-5.955931731E-3,-2.443459071E-2,2.000582218E-2
3.889853862E2,-3.970621154E-3,-1.313359290E-2,3.726275265E-2
3.894895286E2,-4.260781780E-2,3.039052337E-2,8.704823442E-3
3.899936712E2,-5.192350596E-3,4.734201822E-3,3.940077871E-2
3.904978139E2,-1.435532235E-2,2.458730713E-2,3.497200832E-2
3.910019568E2,-1.557705179E-2,1.649334840E-2,3.695731983E-2
3.915061001E2,6.719512399E-3,1.221729559E-3,4.642572254E-2
3.920102438E2,-1.817322709E-2,2.214384824E-2,3.100138716E-2
3.925143880E2,6.872228812E-3,-5.650499370E-3,4.734202102E-2
3.930185327E2,-6.566796452E-3,3.817904973E-3,4.184423760E-2
3.935226778E2,-2.015853859E-2,1.359174121E-2,3.634645417E-2
3.940268230E2,-3.817904973E-3,1.389717404E-2,4.398226365E-2
3.945309683E2,4.734201822E-3,9.010255337E-3,4.718930274E-2
3.950351136E2,2.748891478E-3,2.901607659E-3,4.917461425E-2
3.955392588E2,-1.328630932E-2,1.527161989E-2,4.046979174E-2
3.960434039E2,-1.282816008E-2,1.634063199E-2,4.153880477E-2
3.965475489E2,-4.581485875E-3,1.160643063E-2,4.505127668E-2
3.970516937E2,-5.650499370E-3,1.328630932E-2,4.566214234E-2
3.975558384E2,1.007926930E-2,4.886918236E-3,5.238165334E-2
3.980599828E2,-6.566796452E-3,1.038470119E-2,3.878991306E-2
3.985641271E2,-3.054323839E-3,8.399390616E-3,3.649916872E-2
3.990682711E2,7.483093534E-3,6.414080039E-3,3.726275265E-2
3.995724149E2,-1.863137633E-2,5.009091273E-2,2.703076601E-2
4.000765587E2,1.527161989E-2,1.359174121E-2,3.100138716E-2
4.005807020E2,5.955931731E-3,7.788525894E-3,2.611446939E-2
4.010848452E2,1.114828233E-2,9.621120058E-3,2.351829410E-2
4.015889881E2,2.443459118E-3,6.566796452E-3,1.435532235E-2
4.020931310E2,1.023198478E-2,3.207040019E-3,1.053741761E-2
4.025972737E2,2.489273995E-2,-7.635809598E-4,1.404988952E-2
4.031014164E2,2.061668597E-2,-1.527161949E-4,8.246674202E-3
4.036055590E2,2.932151034E-2,-7.635809598E-4,6.719512399E-3
4.041097015E2,7.941242307E-3,4.581485991E-4,-6.566796452E-3
4.046138440E2,2.367101051E-2,-3.207040019E-3,-7.330377586E-3
4.051179865E2,1.389717404E-2,-4.276053514E-3,-1.679878123E-2
4.056221289E2,1.496618707E-2,-1.252272818E-2,-2.519817278E-2
4.061262712E2,1.496618707E-2,-1.359174121E-2,-3.176496923E-2
4.066304135E2,3.130681813E-2,-1.603520103E-2,-2.764163166E-2
4.071345561E2,2.962694131E-2,-1.634063199E-2,-3.481929377E-2
4.076386992E2,2.260199748E-2,-2.092211880E-2,-4.337139800E-2
4.081428430E2,2.703076601E-2,-2.550360374E-2,-4.581485689E-2
4.086469873E2,1.267544460E-2,-2.535088919E-2,-5.665770918E-2
4.091511321E2,6.108647678E-3,-2.687804960E-2,-6.062832847E-2
4.096552773E2,1.221729559E-3,-2.580903657E-2,-6.414080411E-2
4.101594228E2,2.076940238E-2,-2.611446939E-2,-5.650499091E-2
4.106635685E2,1.389717404E-2,-2.550360374E-2,-5.635227636E-2
4.111677143E2,1.343902480E-2,-2.840521187E-2,-5.772672221E-2
4.116718603E2,4.734201822E-3,-2.977965772E-2,-6.093376130E-2
4.121760064E2,6.719512399E-3,-3.100138716E-2,-6.078104675E-2
4.126801531E2,-3.665188793E-3,-3.313941509E-2,-6.490438432E-2
4.131843008E2,1.435532235E-2,-3.268126398E-2,-5.650499091E-2
4.136884488E2,2.748891478E-3,-2.932151034E-2,-5.390881747E-2
4.141925970E2,-9.926552884E-3,-2.580903657E-2,-5.192350596E-2
4.146967450E2,-1.069013402E-2,-2.061668597E-2,-4.291325063E-2
4.152008929E2,-1.527161989E-2,-1.802051067E-2,-3.619373962E-2
4.157050407E2,-2.138026804E-2,-1.435532235E-2,-3.161225095E-2
4.162091881E2,-3.543015569E-2,-1.267544460E-2,-2.916879393E-2
4.167133353E2,-1.343902480E-2,-7.635809598E-4,-1.053741761E-2
4.172174823E2,-1.634063199E-2,1.069013379E-3,-6.108647678E-3
4.177216292E2,1.679878100E-3,-4.581485875E-3,4.428769462E-3
4.182257760E2,-2.901607659E-3,-8.093958721E-3,1.527161949E-4
4.187299231E2,5.803215317E-3,-1.145371422E-2,4.581485875E-3
4.192340705E2,-7.483093534E-3,-5.039634649E-3,-8.093958721E-3
4.197382184E2,-8.704823442E-3,-1.359174121E-2,-1.466075517E-2
4.202423663E2,9.117157012E-2,-5.787943676E-2,1.007926930E-2
4.207465141E2,9.025526792E-2,-2.504545636E-2,2.336557768E-2
4.212506616E2,-4.841103405E-2,-8.063415438E-2,5.589412898E-2
4.217548087E2,1.528689116E-1,-4.276053607E-2,-6.750056148E-2
4.222589558E2,-1.343902480E-2,1.023198478E-2,6.108647794E-4
4.227631030E2,-3.573558852E-2,1.634063199E-2,-4.230238497E-2
4.232672503E2,2.794706449E-2,1.511890348E-2,3.283398226E-2
4.237713977E2,7.544180006E-2,-2.138026757E-3,3.878991306E-2
4.242755454E2,3.741546720E-2,-1.802051067E-2,-6.139190868E-2
4.247796932E2,-8.246674202E-3,-5.436696485E-2,1.087339297E-1
4.252838412E2,1.136208475E-1,6.566796452E-2,-7.024944760E-3
4.257879894E2,-8.078686893E-2,-4.276053514E-3,-2.107483521E-2
4.262921374E2,5.772672221E-2,-1.985310577E-3,2.229656465E-2
4.267962855E2,2.382372692E-2,6.108647678E-3,4.581485991E-4
4.273004335E2,-4.932733253E-2,-9.162971983E-4,-1.725693047E-2
4.278045814E2,-4.520399496E-2,2.596175298E-3,-1.908952370E-2
4.283087292E2,-3.741546720E-2,4.123337101E-3,-5.803215317E-3
4.288128768E2,8.292489499E-2,-5.146535859E-2,-5.955931731E-3
4.293170242E2,-2.351829410E-2,1.069013379E-3,-5.650499370E-3
4.298211715E2,-2.351829410E-2,-5.039634649E-3,1.527161949E-4
4.303253185E2,1.053741761E-2,-2.748891478E-3,2.138026757E-3
4.308294654E2,2.138026757E-3,-1.527161949E-4,4.581485991E-4
4.313336119E2,1.847865991E-2,4.886918236E-3,-2.382372692E-2
4.318377581E2,-9.468403645E-3,-6.414080039E-3,3.665188793E-3
4.323419040E2,-2.901607659E-3,-1.832594397E-3,-4.886918236E-3
4.328460496E2,-2.519817278E-2,-9.010255337E-3,1.313359290E-2
4.333501948E2,3.512472380E-3,4.734201822E-3,-6.719512399E-3
4.338543398E2,2.443459118E-3,-0.000000000E0,-4.886918236E-3
4.343584846E2,-6.719512399E-3,3.359756200E-3,-3.054323897E-4
4.348626295E2,-5.024362728E-2,3.878991306E-2,-1.527161920E-3
4.353667745E2,1.023198478E-2,-3.054323839E-3,1.832594397E-3
4.358709197E2,-9.162971750E-3,-1.527161920E-3,4.581485991E-4
4.363750653E2,-1.023198478E-2,-1.908952370E-2,-1.206457894E-2
4.368792113E2,1.679878100E-3,-8.093958721E-3,-2.596175298E-3
4.373833580E2,-5.650499370E-3,1.328630932E-2,3.970621154E-3
4.378875050E2,-6.414080039E-3,1.527161949E-4,1.435532235E-2
4.383916524E2,3.054323839E-3,5.955931731E-3,-6.108647678E-3
4.388958001E2,7.330377586E-3,-2.443459118E-3,-2.031125315E-2
4.393999479E2,-1.389717404E-2,-4.123337101E-3,9.773836471E-3
4.399040956E2,-1.389717404E-2,3.207040019E-3,1.527161920E-3
4.404082434E2,-1.145371422E-2,-2.794706449E-2,-9.315688163E-3
4.409123911E2,1.237001177E-2,-5.497782957E-3,8.552107029E-3
4.414165388E2,-3.359756200E-3,-2.901607659E-3,3.359756200E-3
4.419206865E2,5.955931731E-3,-5.039634649E-3,6.872228812E-3
4.424248341E2,-4.886918236E-3,-9.010255337E-3,1.007926930E-2
4.429289815E2,-5.345067009E-3,-2.901607659E-3,-3.512472380E-3
4.434331289E2,-2.382372692E-2,-9.162971983E-4,-4.581485991E-4
4.439372760E2,7.635809598E-4,-8.704823442E-3,-5.650499370E-3
4.444414231E2,-7.483093534E-3,-7.177661173E-3,-9.773836471E-3
4.449455700E2,-1.481347065E-2,-8.857538924E-3,-1.802051067E-2
4.454497167E2,-3.970621154E-3,-4.123337101E-3,-1.679878123E-2
4.459538631E2,1.985310577E-3,-3.054323839E-3,-8.704823442E-3
4.464580094E2,-1.221729559E-3,-3.817904973E-3,-1.618791744E-2
4.469621556E2,2.596175298E-3,3.512472380E-3,-1.435532235E-2
4.474663016E2,-2.443459118E-3,7.788525894E-3,-8.552107029E-3
4.479704474E2,-0.000000000E0,2.290742937E-3,-9.010255337E-3
4.484745931E2,8.704823442E-3,8.704823442E-3,2.138026757E-3
4.489787386E2,-1.527161949E-4,2.138026757E-3,2.901607659E-3
4.494828837E2,-8.246674202E-3,-6.719512399E-3,-2.596175298E-3
4.499870285E2,2.290742937E-3,3.115410358E-2,-1.985310577E-3
4.504911731E2,-1.084284950E-2,-1.679878100E-3,-7.330377586E-3
4.509953174E2,3.665188793E-3,-3.054323839E-3,-1.527161949E-4
4.514994615E2,-2.397644334E-2,3.023780696E-2,-1.114828233E-2
4.520036054E2,-1.817322709E-2,-3.207040019E-3,-2.367101051E-2
4.525077494E2,-1.420260593E-2,2.916879393E-2,-1.634063199E-2
4.530118938E2,9.162971750E-3,-7.177661173E-3,-1.359174121E-2
4.535160387E2,-5.803215317E-3,1.145371422E-2,9.162971983E-4
4.540201838E2,1.007926930E-2,-5.497782957E-3,1.832594397E-3
4.545243290E2,-2.244928107E-2,1.175914705E-2,-5.192350596E-3
4.550284742E2,-1.038470119E-2,-8.246674202E-3,-1.069013402E-2
4.555326193E2,1.634063199E-2,9.926552884E-3,1.252272818E-2
4.560367642E2,-4.123337101E-3,-3.207040019E-3,-3.359756200E-3
4.565409091E2,-5.497782957E-3,1.527161920E-3,1.527161920E-3
4.570450541E2,-1.023198478E-2,1.481347065E-2,1.175914705E-2
4.575491990E2,4.276053514E-3,-1.007926930E-2,1.374445762E-2
4.580533437E2,-1.740964688E-2,2.290742844E-2,6.872228812E-3
4.585574884E2,-9.468403645E-3,-2.901607659E-3,1.527161920E-3
4.590616330E2,-1.679878100E-3,9.773836471E-3,1.481347065E-2
4.595657776E2,1.221729559E-3,3.359756200E-3,1.649334840E-2
4.600699222E2,-3.054323897E-4,9.926552884E-3,1.267544460E-2
4.605740668E2,-5.894844979E-2,-7.101303339E-2,6.597339362E-2
4.610782112E2,1.233946830E-1,2.076940238E-2,3.084867075E-2
4.615823555E2,-4.245510325E-2,-2.779434808E-2,-2.916879393E-2
4.620864996E2,1.291978955E-1,-1.557705179E-2,-6.093376130E-2
4.625906437E2,-6.902772188E-2,4.627300799E-2,1.298087649E-2
4.630947879E2,3.054323897E-4,1.069013379E-3,7.024944760E-3
4.635989321E2,8.399390616E-3,1.221729559E-3,4.886918236E-3
4.641030762E2,1.038470119E-2,-6.093376130E-2,-3.649916872E-2
4.646072202E2,-3.130681813E-2,4.123337194E-2,1.053741761E-2
4.651113641E2,-3.420842811E-2,3.955349326E-2,-9.162971750E-3
4.656155079E2,-2.412915789E-2,1.084284950E-2,-9.621120058E-3
4.661196516E2,-8.399390616E-3,-4.886918236E-3,-5.497782957E-3
4.666237952E2,-4.581485991E-4,1.130099874E-2,3.665188793E-3
4.671279386E2,-2.443459118E-3,7.635809947E-3,-2.901607659E-3
4.676320819E2,-2.596175298E-3,2.138026757E-3,3.054323897E-4
4.681362252E2,-2.138026757E-3,7.635809598E-4,-1.069013379E-3
4.686403685E2,-1.175914705E-2,-1.679878100E-3,-5.497782957E-3
4.691445118E2,-6.108647678E-3,1.343902480E-2,1.832594397E-3
4.696486550E2,1.069013402E-2,-1.114828233E-2,8.857538924E-3
4.701527983E2,6.566796452E-3,-5.039634649E-3,1.832594397E-3
4.706569416E2,7.483093441E-2,-7.101303339E-2,7.635809947E-3
4.711610848E2,-2.748891525E-2,5.192350596E-3,-4.184423760E-2
4.716652279E2,-1.053741761E-2,-1.221729559E-3,1.786779426E-2
4.721693709E2,-8.093958721E-3,1.527161949E-4,-0.000000000E0
4.726735137E2,-8.093958721E-3,3.359756200E-3,-6.108647794E-4
4.731776564E2,-7.483093534E-3,4.581485991E-4,6.566796452E-3
4.736817990E2,-1.313359290E-2,3.512472380E-3,2.901607659E-3
4.741859414E2,1.114828233E-2,-1.985310577E-3,1.435532235E-2
4.746900838E2,-8.552107029E-3,2.443459118E-3,-2.290742937E-3
4.751942262E2,-2.412915789E-2,-6.108647794E-4,-3.695731983E-2
4.756983684E2,2.260199748E-2,-7.941242307E-3,7.024944760E-3
4.762025103E2,2.871064469E-2,3.023780696E-2,2.367101051E-2
4.767066521E2,-3.375028074E-2,-3.084867075E-2,1.038470119E-2
4.772107937E2,-2.916879393E-2,9.162971750E-3,-2.290742937E-3
4.777149352E2,-1.313359290E-2,4.581485875E-3,-0.000000000E0
4.782190766E2,-1.374445762E-2,1.023198478E-2,-2.138026757E-3
4.787232182E2,-5.650499370E-3,3.207040019E-3,4.581485991E-4
4.792273595E2,-9.162971750E-3,1.328630932E-2,6.108647794E-4
4.797315007E2,-1.313359290E-2,1.267544460E-2,4.886918236E-3
4.802356419E2,-5.650499370E-3,2.901607659E-3,4.123337101E-3
4.807397828E2,-8.093958721E-3,2.748891478E-3,-4.581485991E-4
4.812439236E2,-1.511890348E-2,-6.261364091E-3,-5.650499370E-3
4.817480642E2,-1.130099874E-2,1.527161949E-4,-0.000000000E0
4.822522049E2,6.414080039E-3,9.468403645E-3,1.114828233E-2
4.827563455E2,-2.748891478E-3,4.581485991E-4,1.679878100E-3
4.832604861E2,7.635809947E-3,-2.504545636E-2,1.099556591E-2
4.837646266E2,-9.193515033E-2,8.338304609E-2,-4.902189970E-2
4.842687671E2,-2.321286127E-2,6.719512399E-3,2.443459071E-2
4.847729074E2,3.115410358E-2,1.023198478E-2,1.069013379E-3
4.852770476E2,9.712749720E-2,-4.856374860E-2,-7.941242307E-3
4.857811879E2,7.086031139E-2,1.069013379E-3,-2.275471389E-2
4.862853283E2,1.740964688E-2,-6.108647794E-4,2.993237413E-2
4.867894688E2,-2.474002354E-2,0.000000000E0,-3.054323839E-3
4.872936095E2,-1.191186346E-2,-3.970621154E-3,-9.162971983E-4
4.877977504E2,-1.664606482E-2,-1.221729559E-3,0.000000000E0
4.883018916E2,-2.428187430E-2,-8.399390616E-3,-3.359756200E-3
4.888060328E2,9.621120058E-3,3.359756200E-3,5.650499370E-3
4.893101743E2,6.872228812E-3,5.955931731E-3,4.734201822E-3
4.898143158E2,9.926552884E-3,6.261364091E-3,3.359756200E-3
4.903184573E2,-3.970621154E-3,5.039634649E-3,1.069013379E-3
4.908225987E2,-6.261364091E-3,8.399390616E-3,-9.162971983E-4
4.913267401E2,-4.581485875E-3,3.817904973E-3,-6.108647794E-4
4.918308814E2,-1.435532235E-2,6.719512399E-3,1.985310577E-3
4.923350226E2,-4.123337101E-3,2.748891478E-3,-1.221729559E-3
4.928391638E2,-5.345067009E-3,5.955931731E-3,-2.443459118E-3
4.933433048E2,-9.468403645E-3,5.650499370E-3,-6.566796452E-3
4.938474458E2,-1.160643063E-2,8.552107029E-3,-6.719512399E-3
4.943515867E2,-1.389717404E-2,2.932151034E-2,-9.162971983E-4
4.948557277E2,-1.099556591E-2,1.206457894E-2,-9.162971983E-4
4.953598687E2,-1.863137633E-2,1.725693047E-2,-5.497782957E-3
4.958640098E2,-1.084284950E-2,8.552107029E-3,-1.832594397E-3
4.963681510E2,-1.527161949E-4,-1.069013402E-2,5.803215317E-3
4.968722923E2,7.635809598E-4,-1.221729559E-3,6.108647794E-4
4.973764337E2,9.162971750E-3,-1.114828233E-2,5.039634649E-3
4.978805751E2,-1.740964688E-2,1.511890348E-2,-4.276053514E-3
4.983847165E2,1.221729559E-3,0.000000000E0,1.069013379E-3
4.988888578E2,-4.581485875E-3,3.054323839E-3,-4.581485991E-4
4.993929991E2,-3.054323897E-4,-3.817904973E-3,8.246674202E-3
4.998971403E2,-1.985310577E-3,-2.748891478E-3,1.206457894E-2
5.004012815E2,-1.527161989E-2,-1.221729559E-3,5.329795182E-2
5.009054227E2,4.734201822E-3,1.084284950E-2,-1.725693047E-2
5.014095637E2,0.000000000E0,3.512472380E-3,-6.108647794E-4
5.019137047E2,-1.985310577E-3,3.054323839E-3,6.108647794E-4
5.024178455E2,-6.414080039E-3,4.734201822E-3,-0.000000000E0
5.029219863E2,-1.038470119E-2,1.313359290E-2,-3.207040019E-3
5.034261269E2,-2.901607752E-2,2.290742844E-2,-6.108647794E-4
5.039302672E2,-9.926552884E-3,4.886918236E-3,3.359756200E-3
5.044344075E2,-5.955931731E-3,3.207040019E-3,4.581485991E-4
5.049385476E2,-7.483093534E-3,2.138026757E-3,4.581485991E-4
5.054426877E2,-1.481347065E-2,1.985310577E-3,3.054323897E-4
5.059468278E2,4.581485991E-4,5.039634649E-3,-1.832594397E-3
5.064509678E2,6.719512399E-3,1.038470119E-2,-2.596175298E-3
5.069551076E2,-1.527161949E-4,1.130099874E-2,4.581485991E-4
5.074592473E2,-8.704823442E-3,1.313359290E-2,-7.177661173E-3
5.079633870E2,-9.162971750E-3,1.130099874E-2,3.665188793E-3
5.084675264E2,-2.565632015E-2,2.122755162E-2,9.315688163E-3
5.089716658E2,-2.794706449E-2,1.313359290E-2,1.481347065E-2
5.094758051E2,-3.161225095E-2,-3.359756200E-3,4.581485991E-4
5.099799442E2,-9.468403645E-3,-9.468403645E-3,-1.832594397E-3
5.104840832E2,2.153298259E-2,4.581485875E-3,0.000000000E0
5.109882221E2,-4.428769462E-3,9.621120058E-3,-1.527161920E-3
5.114923607E2,9.162971983E-4,6.108647678E-3,-2.596175298E-3
5.119964993E2,-1.527161920E-3,4.886918236E-3,1.374445739E-3
5.125006378E2,-3.054323839E-3,6.414080039E-3,4.276053514E-3
5.130047763E2,-1.359174121E-2,7.483093534E-3,-2.138026757E-3
5.135089146E2,-2.489273995E-2,7.635809598E-4,-1.527161920E-3
5.140130528E2,-1.374445739E-3,-1.527161949E-4,8.399390616E-3
5.145171909E2,4.581485875E-3,7.330377586E-3,1.939495653E-2
5.150213288E2,-6.566796452E-3,7.941242307E-3,2.061668597E-2
5.155254666E2,-1.343902480E-2,5.345067009E-3,1.695149764E-2
5.160296044E2,-1.603520103E-2,3.970621154E-3,1.786779426E-2
5.165337420E2,-2.733619884E-2,8.552107029E-3,2.214384824E-2
5.170378796E2,-1.328630932E-2,7.635809947E-3,2.168569900E-2
5.175420171E2,-3.176496923E-2,1.191186346E-2,2.290742937E-3
5.180461545E2,-6.108647678E-3,-2.061668597E-2,1.389717404E-2
5.185502918E2,3.008509055E-2,-2.641990222E-2,3.054323979E-2
5.190544289E2,-8.857538924E-3,-7.635809598E-4,1.511890348E-2
5.195585660E2,-8.246674202E-3,-6.872228812E-3,2.199113183E-2
5.200627029E2,-1.618791744E-2,9.162971983E-4,5.192350596E-3
5.205668397E2,-9.315688163E-3,-4.123337101E-3,-4.886918236E-3
5.210709765E2,-9.162971983E-4,-1.832594397E-3,7.330377586E-3
5.215751132E2,-5.497782957E-3,-6.108647678E-3,4.276053514E-3
5.220792499E2,-1.527161920E-3,-4.886918236E-3,3.817904973E-3
5.225833866E2,-6.414080039E-3,-7.330377586E-3,-3.970621154E-3
5.230875234E2,-6.719512399E-3,-2.901607659E-3,-7.330377586E-3
5.235916602E2,-4.123337101E-3,-1.679878100E-3,4.734201822E-3
5.240957971E2,5.345067009E-3,7.330377586E-3,5.803215317E-3
5.245999339E2,-3.512472380E-3,5.497782957E-3,1.328630932E-2
5.251040708E2,-1.114828233E-2,5.039634649E-3,6.414080039E-3
5.256082077E2,-6.414080039E-3,6.566796452E-3,4.276053514E-3
5.261123446E2,-9.926552884E-3,3.130681813E-2,1.374445762E-2
5.266164814E2,-1.069013402E-2,-4.734201822E-3,-5.955931731E-3
5.271206183E2,-1.374445762E-2,-7.788525894E-3,-7.788525894E-3
5.276247554E2,5.650499370E-3,7.177661173E-3,3.207040019E-3
5.281288930E2,0.000000000E0,1.404988952E-2,1.618791744E-2
5.286330313E2,-1.863137633E-2,1.572976820E-2,1.740964688E-2
5.291371701E2,-2.138026757E-3,6.566796452E-3,7.024944760E-3
5.296413093E2,-1.557705179E-2,7.635809947E-3,5.039634649E-3
5.301454487E2,-4.321868345E-2,-2.901607659E-3,1.191186346E-2
5.306495882E2,-2.306014486E-2,-4.734201822E-3,-3.054323839E-3
5.311537280E2,-8.857538924E-3,4.428769462E-3,1.786779426E-2
5.316578679E2,-5.803215504E-2,1.160643063E-2,3.543015569E-2
5.321620077E2,-3.970621154E-3,-3.359756200E-3,2.764163166E-2
5.326661475E2,-3.069595434E-2,2.367101051E-2,5.451968312E-2
5.331702871E2,-1.450803876E-2,9.162971983E-4,3.817904741E-2
5.336744265E2,-1.786779426E-2,5.345067009E-3,4.062250629E-2
5.341785657E2,-1.832594350E-2,4.581485875E-3,4.367683083E-2
5.346827049E2,-2.458730713E-2,2.138026757E-3,4.673115537E-2
5.351868441E2,-1.206457894E-2,-3.512472380E-3,4.948004708E-2
5.356909832E2,-1.710421406E-2,2.290742937E-3,4.963276163E-2
5.361951221E2,-1.588248461E-2,2.443459118E-3,5.253437161E-2
5.366992609E2,-2.138026804E-2,9.162971750E-3,4.092793912E-2
5.372033996E2,-2.076940238E-2,1.832594397E-3,4.260781780E-2
5.377075381E2,-1.069013402E-2,6.414080039E-3,4.108065739E-2
5.382116767E2,3.512472380E-3,-2.596175298E-3,5.100720748E-2
5.387158152E2,-5.192350596E-3,3.512472380E-3,4.413498193E-2
5.392199537E2,-2.290742937E-3,3.359756200E-3,3.665188700E-2
5.397240922E2,-7.330377586E-3,8.704823442E-3,2.657261863E-2
5.402282306E2,-5.039634649E-3,1.099556591E-2,2.611446939E-2
5.407323689E2,-1.023198478E-2,1.023198478E-2,8.857538924E-3
5.412365070E2,4.886918236E-3,2.596175298E-3,1.007926930E-2
5.417406451E2,1.282816008E-2,-6.108647794E-4,9.926552884E-3
5.422447830E2,5.650499370E-3,-5.650499370E-3,6.872228812E-3
5.427489209E2,3.054323839E-3,1.267544460E-2,5.039634649E-3
5.432530587E2,2.199113183E-2,-2.764163166E-2,3.344484791E-2
5.437571963E2,-3.207040019E-3,-2.382372692E-2,-5.039634649E-3
5.442613339E2,1.175914705E-2,3.039052337E-2,-1.679878123E-2
5.447654714E2,-8.399390616E-3,-8.857538924E-3,-7.330377586E-3
5.452696088E2,1.389717404E-2,-6.566796452E-3,1.832594397E-3
5.457737462E2,2.550360374E-2,-7.559451461E-2,1.527161989E-2
5.462778835E2,-8.246674202E-3,2.428187430E-2,-9.010255337E-3
5.467820209E2,3.665188793E-3,2.015853859E-2,-2.748891478E-3
5.472861582E2,2.061668597E-2,2.244928107E-2,3.054323897E-4
5.477902954E2,4.169152305E-2,-3.695731983E-2,1.328630932E-2
5.482944325E2,-6.261363626E-2,3.481929377E-2,-2.458730713E-2
5.487985695E2,-8.704823442E-3,-1.756236330E-2,-1.939495653E-2
5.493027064E2,4.581485991E-4,-6.185005978E-2,-4.123337101E-3
5.498068433E2,1.679878100E-3,1.252272818E-2,4.581485991E-4
5.503109801E2,2.382372692E-2,3.497200832E-2,-4.428769462E-3
5.508151168E2,1.527161920E-3,4.581485991E-4,-1.679878100E-3
5.513192534E2,1.832594397E-3,4.886918236E-3,1.374445739E-3
5.518233899E2,3.054323897E-4,1.069013402E-2,-9.162971983E-4
5.523275264E2,2.443459118E-3,-4.138609022E-2,-1.007926930E-2
5.528316627E2,-8.246674202E-3,3.970621154E-3,-6.108647678E-3
5.533357990E2,-2.901607659E-3,2.183841541E-2,6.261364091E-3
5.538399352E2,-2.138026757E-3,1.664606482E-2,2.596175298E-3
5.543440715E2,2.748891478E-3,-6.108647794E-4,3.512472380E-3
5.548482076E2,-1.832594397E-3,1.084284950E-2,1.985310577E-3
5.553523437E2,-1.221729559E-3,6.108647678E-3,-2.138026757E-3
5.558564797E2,-1.023198478E-2,-6.414080039E-3,-1.053741761E-2
5.563606158E2,6.108647678E-3,-3.481929377E-2,-8.246674202E-3
5.568647517E2,3.207040019E-3,3.054323839E-3,4.581485991E-4
5.573688876E2,9.468403645E-3,-3.054323897E-4,9.162971983E-4
5.578730235E2,7.635809947E-3,-1.038470119E-2,-1.527161949E-4
5.583771593E2,-1.114828233E-2,8.399390616E-3,-2.596175298E-3
5.588812951E2,3.619373962E-2,-4.398226365E-2,8.704823442E-3
5.593854308E2,-2.764163166E-2,2.733619884E-2,-9.468403645E-3
5.598895665E2,-2.458730713E-2,2.076940238E-2,-1.099556591E-2
5.603937021E2,2.107483521E-2,1.725693047E-2,9.468403645E-3
5.608978377E2,-3.512472380E-3,1.496618707E-2,6.108647678E-3
5.614019734E2,7.635809598E-4,6.566796452E-3,-1.069013379E-3
5.619061094E2,-1.527161949E-4,2.596175298E-3,1.069013379E-3
5.624102457E2,1.313359290E-2,-3.100138716E-2,1.053741761E-2
5.629143821E2,-5.803215317E-3,-1.817322709E-2,-4.734201822E-3
5.634185187E2,2.153298259E-2,-5.146535859E-2,1.130099874E-2
5.639226554E2,-3.176496923E-2,4.291325063E-2,9.926552884E-3
5.644267922E2,3.054323839E-3,4.230238497E-2,-4.886918236E-3
5.649309291E2,-9.162971983E-4,2.596175298E-3,4.886918236E-3
5.654350662E2,-7.635809947E-3,-4.428769462E-3,-3.207040019E-3
5.659392037E2,-1.099556591E-2,9.773836471E-3,-2.748891478E-3
5.664433412E2,-1.328630932E-2,6.108647678E-3,-3.817904973E-3
5.669474788E2,3.512472380E-3,3.054323897E-4,3.665188793E-3
5.674516164E2,5.803215317E-3,-1.527161949E-4,2.901607659E-3
5.679557540E2,-1.527161949E-4,1.099556591E-2,5.345067009E-3
5.684598916E2,1.527161949E-4,6.108647678E-3,9.162971983E-4
5.689640292E2,-6.108647794E-4,0.000000000E0,4.581485991E-4
5.694681668E2,-6.108647678E-3,1.832594397E-3,-3.970621154E-3
5.699723044E2,-4.581485875E-3,-9.468403645E-3,-5.955931731E-3
5.704764419E2,2.443459118E-3,-2.443459118E-3,2.443459118E-3
5.709805794E2,9.010255337E-3,-5.039634649E-3,4.428769462E-3
5.714847168E2,6.108647794E-4,1.221729559E-3,3.359756200E-3
5.719888541E2,-6.108647794E-4,-1.527161949E-4,4.581485991E-4
5.724929913E2,1.985310577E-3,1.527161949E-4,1.069013379E-3
5.729971285E2,-2.290742937E-3,3.054323839E-3,-4.581485991E-4
5.735012658E2,-7.024944760E-3,-1.527161949E-4,-4.276053514E-3
5.740054029E2,-6.261364091E-3,1.374445739E-3,-2.596175298E-3
5.745095400E2,4.428769462E-3,-6.108647794E-4,3.207040019E-3
5.750136769E2,4.123337101E-3,3.512472380E-3,3.665188793E-3
5.755178138E2,1.527161920E-3,1.374445739E-3,2.443459118E-3
5.760219505E2,1.527161949E-4,4.581485991E-4,9.162971983E-4
5.765260872E2,-7.635809598E-4,4.581485991E-4,-1.374445739E-3
5.770302239E2,-5.497782957E-3,-3.054323897E-4,-3.970621154E-3
5.775343606E2,-5.650499370E-3,3.054323897E-4,-3.665188793E-3
5.780384972E2,8.704823442E-3,-3.054323839E-3,4.276053514E-3
5.785426338E2,3.054323839E-3,5.955931731E-3,2.290742937E-3
5.790467704E2,8.704823442E-3,-5.650499370E-3,-5.650499370E-3
5.795509069E2,-1.970038936E-2,1.786779426E-2,-1.175914705E-2
5.800550433E2,-5.345067009E-3,4.276053514E-3,1.847865991E-2
5.805591797E2,-2.871064469E-2,1.282816008E-2,2.641990222E-2
5.810633162E2,2.138026757E-3,-3.084867075E-2,-2.214384824E-2
5.815674525E2,9.315688163E-3,1.954767294E-2,1.435532235E-2
5.820715889E2,2.672533318E-2,-3.252854943E-2,2.290742937E-3
5.825757252E2,-8.704823442E-3,-3.207040019E-3,5.574141070E-2
5.830798614E2,-3.481929377E-2,1.496618707E-2,6.994401664E-2
5.835839976E2,-5.711585656E-2,2.229656465E-2,1.110246703E-1
5.840881337E2,2.672533318E-2,3.955349326E-2,2.794706449E-2
5.845922698E2,1.496618707E-2,8.093958721E-3,-1.725693047E-2
5.850964060E2,4.734201822E-3,-1.603520103E-2,-6.261364091E-3
5.856005421E2,-6.719512399E-3,2.428187430E-2,4.581485875E-3
5.861046781E2,2.092211880E-2,-2.871064469E-2,3.054323897E-4
5.866088141E2,-8.552107029E-3,1.740964688E-2,-1.069013379E-3
5.871129500E2,7.788525894E-3,-1.282816008E-2,-1.069013379E-3
5.876170858E2,-1.099556591E-2,2.855792828E-2,1.985310577E-3
5.881212219E2,3.970621154E-3,-9.468403645E-3,-7.635809947E-3
5.886253584E2,-4.581485991E-4,-7.635809947E-3,1.557705179E-2
5.891294953E2,6.719512399E-3,3.359756200E-3,1.007926930E-2
5.896336327E2,2.580903657E-2,-4.642572254E-2,5.803215317E-3
5.901377705E2,-3.054323897E-4,1.160643063E-2,-1.756236330E-2
5.906419085E2,1.832594397E-3,-5.192350596E-3,-2.748891478E-3
5.911460468E2,-3.512472380E-3,-4.734201822E-3,-7.635809947E-3
5.916501852E2,-1.740964688E-2,1.786779426E-2,-1.221729559E-3
5.921543237E2,1.496618707E-2,-2.443459071E-2,-1.985310577E-3
5.926584625E2,7.635809598E-4,-1.221729559E-3,-1.832594397E-3
5.931626015E2,-1.985310577E-3,3.817904973E-3,-2.092211880E-2
5.936667405E2,1.374445739E-3,6.108647794E-4,-7.330377586E-3
5.941708795E2,7.941242307E-3,-9.162971750E-3,-1.527161920E-3
5.946750185E2,-1.374445739E-3,-4.734201822E-3,-3.207040019E-3
5.951791574E2,-8.093958721E-3,7.177661173E-3,-1.985310577E-3
5.956832964E2,-8.552107029E-3,7.483093534E-3,-3.359756200E-3
5.961874352E2,9.468403645E-3,4.276053514E-3,1.069013379E-3
5.966915739E2,6.414080039E-3,7.941242307E-3,-5.039634649E-3
5.971957126E2,7.635809598E-4,1.053741761E-2,-5.192350596E-3
5.976998513E2,1.679878100E-3,9.926552884E-3,-1.175914705E-2
5.982039901E2,4.886918236E-3,1.221729559E-3,-3.817904973E-3
5.987081290E2,2.901607659E-3,4.581485875E-3,-3.512472380E-3
5.992122681E2,1.832594397E-3,2.901607659E-3,-4.734201822E-3
5.997164075E2,-4.276053514E-3,3.512472380E-3,-1.404988952E-2
6.002205470E2,1.114828233E-2,8.246674202E-3,-2.015853859E-2
6.007246865E2,1.802051067E-2,-1.007926930E-2,4.245510325E-2
6.012288263E2,1.511890348E-2,5.955931731E-3,4.535670951E-2
6.017329661E2,1.175914705E-2,1.634063199E-2,-4.428769462E-3
6.022371060E2,6.719512399E-3,2.321286127E-2,-2.336557768E-2
6.027412460E2,2.076940238E-2,-1.908952370E-2,-3.604102135E-2
6.032453861E2,-3.207040019E-3,9.621120058E-3,-3.558287397E-2
6.037495263E2,2.580903657E-2,-2.626718581E-2,-5.039634556E-2
6.042536671E2,-7.941242307E-3,3.176496923E-2,-3.145953640E-2
6.047578083E2,2.687804960E-2,-3.848448023E-2,-6.291907281E-2
6.052619499E2,1.450803876E-2,-8.231402934E-2,-4.550942779E-2
6.057660915E2,2.443459118E-3,-3.909534588E-2,-3.039052337E-2
6.062702331E2,-1.985310577E-3,3.970621154E-3,-2.840521187E-2
6.067743744E2,-9.162971750E-3,7.788525894E-3,-3.894263133E-2
6.072785154E2,-1.221729536E-2,1.725693047E-2,-3.543015569E-2
6.077826561E2,6.566796452E-3,-6.566796452E-3,-1.496618707E-2
6.082867963E2,6.566796452E-3,-1.771507785E-2,-2.000582218E-2
6.087909359E2,-4.276053514E-3,1.527161920E-3,-4.581485875E-3
6.092950751E2,-1.832594397E-3,-3.512472380E-3,3.665188793E-3
6.097992138E2,5.192350596E-3,-1.084284950E-2,1.527161920E-3
6.103033522E2,-1.038470119E-2,-1.069013379E-3,-3.054323839E-3
6.108074903E2,-1.160643063E-2,-4.428769462E-3,-5.497782957E-3
6.113116286E2,-3.817904973E-3,3.512472380E-3,-4.734201822E-3
6.118157669E2,1.343902480E-2,4.581485991E-4,5.955931731E-3
6.123199053E2,6.261364091E-3,-7.635809598E-4,-2.443459118E-3
6.128240435E2,3.970621154E-3,1.679878100E-3,-1.649334840E-2
6.133281813E2,8.552107029E-3,-2.596175298E-3,-3.283398226E-2
6.138323189E2,8.704823442E-3,-1.664606482E-2,-1.221729536E-2
6.143364561E2,-1.069013379E-3,-6.261364091E-3,-2.687804960E-2
6.148405931E2,-3.359756200E-3,-2.290742937E-3,-3.207040206E-2
6.153447299E2,1.084284950E-2,-3.359756200E-3,-2.229656465E-2
6.158488665E2,1.649334840E-2,-4.581485875E-3,-2.092211880E-2
6.163530029E2,3.970621154E-3,7.635809598E-4,-2.535088919E-2
6.168571392E2,2.138026757E-3,-1.069013402E-2,-3.115410358E-2
6.173612755E2,3.054323839E-3,7.635809598E-4,-1.893680729E-2
6.178654116E2,2.290742937E-3,-5.955931731E-3,-1.191186346E-2
6.183695475E2,-9.010255337E-3,-2.443459118E-3,-1.221729536E-2
6.188736833E2,-2.443459118E-3,-3.970621154E-3,-8.704823442E-3
6.193778189E2,1.130099874E-2,1.298087649E-2,2.962694131E-2
6.198819544E2,-5.345067009E-3,-5.955931731E-3,2.000582218E-2
6.203860895E2,3.283398226E-2,-4.948004708E-2,1.904370934E-1
6.208902243E2,3.054323839E-3,-4.245510325E-2,-6.887500733E-2
6.213943588E2,1.496618707E-2,-3.848448023E-2,-2.092211880E-2
6.218984929E2,-2.458730713E-2,-1.175914705E-2,-4.123337194E-2
6.224026270E2,-1.206457894E-2,-2.290742937E-3,-7.635809947E-3
6.229067610E2,5.497782957E-3,-9.468403645E-3,3.207040019E-3
6.234108951E2,-1.679878100E-3,-4.276053514E-3,2.901607659E-3
6.239150290E2,-1.832594397E-3,-5.803215317E-3,1.527161920E-3
6.244191628E2,-6.108647794E-4,-5.955931731E-3,1.527161949E-4
6.249232964E2,-3.512472380E-3,-4.581485875E-3,1.374445739E-3
6.254274297E2,-7.635809598E-4,-6.108647678E-3,1.985310577E-3
6.259315627E2,-1.023198478E-2,-3.512472380E-3,-2.138026757E-3
6.264356955E2,-8.857538924E-3,-4.581485875E-3,-1.527161949E-4
6.269398280E2,5.650499370E-3,-1.481347065E-2,9.773836471E-3
6.274439601E2,9.162971983E-4,-4.886918236E-3,-0.000000000E0
6.279480921E2,-4.581485991E-4,-3.054323897E-4,1.679878100E-3
6.284522239E2,-5.192350596E-3,5.650499370E-3,-2.596175298E-3
6.289563556E2,-7.635809598E-4,1.374445739E-3,9.162971983E-4
6.294604871E2,1.832594397E-3,-4.581485991E-4,-4.581485991E-4
6.299646184E2,-3.054323839E-3,3.512472380E-3,-0.000000000E0
6.304687496E2,-7.635809947E-3,1.527161920E-3,-2.290742937E-3
6.309728809E2,3.970621154E-3,-9.162971983E-4,1.679878100E-3
6.314770122E2,1.374445739E-3,2.748891478E-3,1.221729559E-3
6.319811434E2,2.443459118E-3,-9.162971983E-4,0.000000000E0
6.324852745E2,1.985310577E-3,-1.374445739E-3,2.443459118E-3
6.329894053E2,-4.734201822E-3,-4.581485875E-3,-2.138026757E-3
6.334935364E2,-1.282816008E-2,1.069013379E-3,-1.527161920E-3
6.339976683E2,-7.024944760E-3,-3.054323897E-4,-3.359756200E-3
6.345018011E2,2.901607659E-3,-1.221729559E-3,2.443459118E-3
6.350059347E2,1.832594397E-3,6.414080039E-3,2.748891478E-3
6.355100688E2,-7.635809598E-4,1.389717404E-2,3.817904973E-3
6.360142034E2,0.000000000E0,3.665188793E-3,3.512472380E-3
6.365183382E2,1.985310577E-3,-0.000000000E0,-6.719512399E-3
6.370224734E2,4.581485875E-3,-5.345067009E-3,1.527161920E-3
6.375266087E2,-3.054323897E-4,-1.175914705E-2,2.596175298E-3
6.380307442E2,-7.177661173E-3,9.621120058E-3,-2.901607659E-3
6.385348800E2,-1.679878100E-3,6.261364091E-3,-2.443459118E-3
6.390390158E2,-7.635809598E-4,7.635809598E-4,3.054323897E-4
6.395431518E2,3.207040019E-3,1.221729559E-3,2.290742937E-3
6.400472879E2,-3.817904973E-3,-3.054323897E-4,-1.527161949E-4
6.405514240E2,-7.177661173E-3,3.665188793E-3,-1.679878100E-3
6.410555602E2,-6.872228812E-3,-5.039634649E-3,-2.138026757E-3
6.415596966E2,5.955931731E-3,-1.679878100E-3,3.207040019E-3
6.420638331E2,6.108647794E-4,1.832594397E-3,-4.123337101E-3
6.425679698E2,1.527161920E-3,5.345067009E-3,-4.581485875E-3
6.430721066E2,6.108647794E-4,1.221729559E-3,-4.581485875E-3
6.435762436E2,-7.635809598E-4,3.054323839E-3,-6.719512399E-3
6.440803807E2,2.901607659E-3,-4.886918236E-3,-4.734201822E-3
6.445845179E2,-2.138026757E-3,3.512472380E-3,-5.345067009E-3
6.450886553E2,-8.246674202E-3,8.246674202E-3,-9.468403645E-3
6.455927931E2,7.330377586E-3,-6.108647678E-3,4.276053514E-3
6.460969309E2,6.108647794E-4,3.207040019E-3,5.650499370E-3
6.466010689E2,-1.527161920E-3,1.237001177E-2,7.635809598E-4
6.471052071E2,-5.803215317E-3,4.734201822E-3,5.039634649E-3
6.476093456E2,-1.221729536E-2,6.872228812E-3,1.389717404E-2
6.481134845E2,-1.725693047E-2,1.053741761E-2,1.389717404E-2
6.486176236E2,-2.443459071E-2,8.857538924E-3,2.000582218E-2
6.491217629E2,-9.926552884E-3,-5.803215317E-3,3.588830680E-2
6.496259023E2,-9.773836471E-3,2.138026757E-3,4.474584386E-2
6.501300419E2,-7.330377586E-3,6.872228812E-3,4.734202102E-2
6.506341814E2,-7.024944760E-3,4.581485875E-3,4.948004708E-2
6.511383210E2,-3.359756200E-3,6.872228812E-3,4.993819445E-2
6.516424604E2,-1.679878100E-3,7.024944760E-3,4.917461425E-2
6.521465997E2,-9.773836471E-3,1.328630932E-2,4.001164436E-2
6.526507391E2,-7.483093534E-3,2.443459118E-3,3.084867075E-2
6.531548786E2,9.315688163E-3,4.123337101E-3,2.901607752E-2
6.536590180E2,1.084284950E-2,2.443459118E-3,2.764163166E-2
6.541631573E2,5.650499370E-3,2.290742937E-3,1.985310577E-2
6.546672966E2,8.552107029E-3,3.512472380E-3,1.618791744E-2
6.551714360E2,5.497782957E-3,4.581485991E-4,9.468403645E-3
6.556755756E2,5.803215317E-3,1.466075517E-2,1.832594397E-3
6.561797152E2,2.290742937E-3,1.450803876E-2,-4.123337101E-3
6.566838548E2,-1.435532235E-2,2.397644334E-2,1.069013379E-3
6.571879945E2,-6.719512399E-3,-1.802051067E-2,1.527161920E-3
6.576921342E2,4.581485991E-4,-6.108647794E-4,0.000000000E0
6.581962738E2,4.734201822E-3,8.552107029E-3,1.985310577E-3
6.587004133E2,1.374445739E-3,2.015853859E-2,-7.635809598E-4
6.592045530E2,2.138026757E-3,2.290742937E-3,-1.527161949E-4
6.597086927E2,-1.832594397E-3,1.237001177E-2,9.162971983E-4
6.602128326E2,2.290742937E-3,9.315688163E-3,-1.527161949E-4
6.607169727E2,3.054323839E-3,0.000000000E0,2.443459118E-3
6.612211130E2,3.359756200E-3,-4.581485991E-4,2.290742937E-3
6.617252534E2,4.276053514E-3,-4.581485991E-4,-6.261364091E-3
6.622293940E2,-5.650499370E-3,2.901607659E-3,-3.512472380E-3
6.627335347E2,1.527161920E-3,-6.108647794E-4,3.054323839E-3
6.632376756E2,-8.246674202E-3,7.788525894E-3,-8.093958721E-3
6.637418166E2,-4.428769462E-3,7.788525894E-3,-7.483093534E-3
6.642459578E2,1.160643063E-2,4.734201822E-3,2.596175298E-3
6.647500991E2,5.345067009E-3,1.404988952E-2,1.985310577E-3
6.652542407E2,2.138026757E-3,1.695149764E-2,2.443459118E-3
6.657583825E2,1.374445739E-3,1.252272818E-2,2.596175298E-3
6.662625244E2,6.261364091E-3,5.192350596E-3,7.635809598E-4
6.667666664E2,-1.069013379E-3,4.428769462E-3,7.635809598E-4
6.672708088E2,-7.635809598E-4,2.748891478E-3,-1.374445739E-3
6.677749518E2,-3.054323839E-3,2.748891478E-3,-2.596175298E-3
6.682790953E2,-7.635809947E-3,3.054323839E-3,-7.330377586E-3
6.687832389E2,-5.345067009E-3,-1.527161949E-4,-3.665188793E-3
6.692873828E2,6.108647678E-3,1.069013379E-3,4.428769462E-3
6.697915270E2,0.000000000E0,4.734201822E-3,1.374445739E-3
6.702956718E2,2.443459118E-3,3.970621154E-3,-1.527161949E-4
6.707998169E2,1.527161949E-4,2.138026757E-3,2.290742937E-3
6.713039625E2,6.108647794E-4,1.527161920E-3,2.138026757E-3
6.718081083E2,0.000000000E0,2.748891478E-3,-1.221729559E-3
6.723122544E2,7.635809598E-4,-5.039634649E-3,0.000000000E0
6.728164006E2,2.596175298E-3,-8.246674202E-3,1.679878100E-3
6.733205467E2,-4.276053514E-3,-2.901607659E-3,-3.665188793E-3
6.738246927E2,-4.734201822E-3,4.581485991E-4,-5.803215317E-3
6.743288386E2,7.024944760E-3,-1.527161920E-3,6.872228812E-3
6.748329844E2,1.069013379E-3,1.374445739E-3,1.679878100E-3
6.753371301E2,-1.069013379E-3,3.207040019E-3,-4.581485991E-4
6.758412756E2,2.748891478E-3,1.069013379E-3,2.901607659E-3
6.763454209E2,-5.650499370E-3,6.566796452E-3,-4.123337101E-3
6.768495661E2,-3.512472380E-3,-2.290742937E-3,-1.985310577E-3
6.773537112E2,-7.941242307E-3,-1.832594397E-3,-5.039634649E-3
6.778578560E2,7.330377586E-3,-2.748891478E-3,6.872228812E-3
6.783620007E2,6.414080039E-3,-2.183841541E-2,7.483093534E-3
6.788661453E2,1.221729559E-3,4.886918236E-3,3.054323897E-4
6.793702899E2,1.221729559E-3,-2.443459118E-3,0.000000000E0
6.798744344E2,1.527161920E-3,-7.635809598E-4,-9.162971983E-4
6.803785789E2,-4.276053514E-3,2.290742937E-3,-6.414080039E-3
6.808827233E2,-1.130099874E-2,4.581485991E-4,-9.468403645E-3
6.813868678E2,1.374445739E-3,-1.221729559E-3,-4.581485991E-4
6.818910123E2,4.581485875E-3,2.443459118E-3,5.039634649E-3
6.823951569E2,4.581485991E-4,4.581485991E-4,2.138026757E-3
6.828993018E2,4.581485991E-4,-4.581485991E-4,6.108647794E-4
6.834034468E2,3.054323839E-3,-2.901607659E-3,2.748891478E-3
6.839075919E2,-1.069013379E-3,-6.414080039E-3,-3.054323897E-4
6.844117371E2,-5.345067009E-3,-2.138026757E-3,-5.803215317E-3
6.849158823E2,-1.527161920E-3,-3.054323839E-3,1.069013379E-3
6.854200275E2,1.206457894E-2,-1.527161989E-2,1.832594350E-2
6.859241727E2,-9.162971983E-4,1.740964688E-2,-1.007926930E-2
6.864283178E2,1.527161949E-4,1.985310577E-3,2.748891478E-3
6.869324629E2,-3.359756200E-3,5.955931731E-3,-3.359756200E-3
6.874366079E2,-2.748891478E-3,3.817904973E-3,-3.512472380E-3
6.879407529E2,-6.872228812E-3,-5.039634649E-3,-4.886918236E-3
6.884448976E2,3.817904973E-3,-4.123337101E-3,1.832594397E-3
6.889490422E2,2.748891478E-3,-2.138026757E-3,2.748891478E-3
6.894531867E2,5.039634649E-3,-1.221729559E-3,3.817904973E-3
6.899573310E2,-7.635809598E-4,1.527161920E-3,-1.527161920E-3
6.904614753E2,-9.162971983E-4,1.679878100E-3,-1.527161920E-3
6.909656193E2,-3.817904973E-3,4.123337101E-3,-3.665188793E-3
6.914697632E2,-7.941242307E-3,1.374445739E-3,-6.261364091E-3
6.919739070E2,-2.290742937E-3,-0.000000000E0,-3.359756200E-3
6.924780506E2,7.788525894E-3,-1.679878100E-3,5.803215317E-3
6.929821940E2,-3.054323897E-4,2.138026757E-3,-9.162971983E-4
6.934863372E2,1.069013379E-3,1.221729559E-3,3.054323897E-4
6.939904804E2,9.162971983E-4,2.443459118E-3,-1.527161949E-4
6.944946233E2,-4.581485875E-3,1.527161920E-3,-3.665188793E-3
6.949987663E2,-6.261364091E-3,1.527161920E-3,-5.803215317E-3
6.955029090E2,2.901607659E-3,-7.177661173E-3,2.443459118E-3
6.960070516E2,4.581485875E-3,4.581485991E-4,2.596175298E-3
6.965111940E2,3.207040019E-3,9.010255337E-3,-6.108647794E-4
6.970153364E2,9.468403645E-3,-3.711003438E-2,-1.664606482E-2
6.975194786E2,1.985310577E-2,-8.384118974E-2,-3.985892609E-2
6.980236208E2,9.010255337E-3,-7.131846249E-2,-4.886918236E-3
6.985277630E2,4.886918236E-3,5.039634649E-3,6.872228812E-3
6.990319051E2,5.192350596E-3,0.000000000E0,1.985310577E-3
6.995360470E2,1.679878100E-3,-4.581485991E-4,1.069013379E-3
7.000401890E2,1.679878100E-3,1.527161949E-4,1.069013379E-3
7.005443307E2,1.527161920E-3,-2.748891478E-3,-0.000000000E0
7.010484724E2,-4.581485991E-4,1.374445739E-3,-1.374445739E-3
7.015526140E2,-5.497782957E-3,-3.054323897E-4,-3.512472380E-3
7.020567557E2,-5.192350596E-3,-2.901607659E-3,-4.276053514E-3
7.025608974E2,4.734201822E-3,2.901607659E-3,3.054323839E-3
7.030650391E2,1.832594397E-3,6.414080039E-3,3.054323839E-3
7.035691807E2,1.374445739E-3,-1.374445739E-3,7.635809598E-4
7.040733222E2,1.832594397E-3,-2.290742937E-3,3.054323897E-4
7.045774638E2,1.679878100E-3,-4.581485875E-3,-1.527161949E-4
7.050816052E2,1.527161920E-3,-2.443459118E-3,1.374445739E-3
7.055857466E2,7.483093534E-3,-2.076940238E-2,1.710421406E-2
7.060898880E2,7.635809598E-4,-1.084284950E-2,1.527161989E-2
7.065940295E2,-7.941242307E-3,7.177661173E-3,-8.246674202E-3
7.070981709E2,-3.512472380E-3,-5.497782957E-3,6.108647794E-4
7.076023123E2,5.039634649E-3,-1.603520103E-2,1.069013402E-2
7.081064536E2,6.261364091E-3,1.679878100E-3,-2.290742937E-3
7.086105948E2,6.108647794E-4,6.108647794E-4,-4.581485991E-4
7.091147358E2,1.374445739E-3,-1.832594397E-3,9.162971983E-4
7.096188770E2,1.069013379E-3,-2.443459118E-3,7.635809598E-4
7.101230181E2,4.581485991E-4,-1.374445739E-3,1.679878100E-3
7.106271592E2,-7.635809598E-4,6.108647794E-4,1.527161949E-4
7.111313002E2,6.108647794E-4,-1.069013379E-3,9.162971983E-4
7.116354412E2,-4.734201822E-3,3.207040019E-3,-0.000000000E0
7.121395820E2,-6.719512399E-3,7.635809598E-4,-4.581485991E-4
7.126437229E2,5.192350596E-3,-3.665188793E-3,4.581485991E-4
7.131478638E2,5.192350596E-3,-4.581485875E-3,7.635809598E-4
7.136520046E2,6.872228812E-3,-2.290742937E-3,-3.054323839E-3
7.141561461E2,9.621120058E-3,-1.252272818E-2,1.527161920E-3
7.146602869E2,1.130099874E-2,-1.145371422E-2,-2.596175298E-3
7.151644276E2,1.634063199E-2,-1.679878123E-2,-6.414080039E-3
7.156685685E2,9.468403645E-3,-9.162971750E-3,-1.252272818E-2
7.161727093E2,2.535088919E-2,-9.162971750E-3,-2.977965772E-2
7.166768505E2,3.558287397E-2,-2.229656465E-2,-2.748891525E-2
7.171809919E2,1.389717404E-2,-1.893680729E-2,-2.840521187E-2
7.176851336E2,2.275471389E-2,-2.046396956E-2,-3.695731983E-2
7.181892755E2,1.817322709E-2,-1.527161989E-2,-4.520399496E-2
7.186934177E2,2.443459071E-2,-2.092211880E-2,-5.009091273E-2
7.191975605E2,3.817904973E-3,-1.206457894E-2,-6.246092543E-2
7.197017038E2,-1.527161949E-4,-2.138026757E-3,-6.154462695E-2
7.202058481E2,-9.773836471E-3,-2.764163166E-2,-5.986474827E-2
7.207099931E2,1.603520103E-2,-1.618791744E-2,-6.551524997E-2
7.212141387E2,4.581485875E-3,-1.221729536E-2,-7.101303339E-2
7.217182846E2,7.635809598E-4,-4.581485875E-3,-7.269290835E-2
7.222224308E2,1.130099874E-2,-1.221729536E-2,-7.208204269E-2
7.227265771E2,2.443459118E-3,-3.512472380E-3,-7.895427197E-2
7.232307235E2,6.414080039E-3,-7.483093534E-3,-7.467821985E-2
7.237348699E2,4.734201822E-3,-4.581485875E-3,-7.849612087E-2
7.242390164E2,-6.108647678E-3,-5.650499370E-3,-8.659008145E-2
7.247431629E2,5.039634649E-3,-4.276053514E-3,-7.681624591E-2
7.252473093E2,1.466075517E-2,-1.221729536E-2,-9.300415963E-2
7.257514556E2,1.145371422E-2,-2.901607752E-2,-7.757982612E-2
7.262556019E2,1.404988952E-2,-1.924224012E-2,-7.605266571E-2
7.267597481E2,4.276053514E-3,-6.719512399E-3,-7.131846249E-2
7.272638944E2,1.206457894E-2,-1.802051067E-2,-7.192932814E-2
7.277680405E2,1.985310577E-3,-1.817322709E-2,-7.345648855E-2
7.282721865E2,1.359174121E-2,-2.703076601E-2,-7.483093441E-2
7.287763323E2,1.878409274E-2,-6.368265301E-2,-8.506292105E-2
7.292804780E2,-5.345067009E-3,-2.229656465E-2,-8.750637621E-2
7.297846234E2,1.313359290E-2,-2.489273995E-2,-6.948586553E-2
7.302887688E2,1.069013402E-2,-1.695149764E-2,-7.009673119E-2
7.307929142E2,2.901607659E-3,-7.635809947E-3,-7.773254067E-2
7.312970594E2,2.596175298E-3,-1.740964688E-2,-7.635809481E-2
7.318012045E2,7.941242307E-3,-9.010255337E-3,-8.231402934E-2
7.323053492E2,1.527161949E-4,-1.466075517E-2,-8.292489499E-2
7.328094938E2,-2.290742937E-3,-1.924224012E-2,-7.727439702E-2
7.333136383E2,1.374445739E-3,-2.382372692E-2,-7.589995116E-2
7.338177827E2,5.192350596E-3,-1.695149764E-2,-7.544180006E-2
7.343219269E2,2.015853859E-2,-2.458730713E-2,-6.429351866E-2
7.348260711E2,-6.108647678E-3,-2.428187430E-2,-7.635809481E-2
7.353302154E2,1.450803876E-2,-3.069595434E-2,-5.818486959E-2
7.358343595E2,-4.428769462E-3,-1.725693047E-2,-7.880155742E-2
7.363385037E2,-5.497782957E-3,-1.710421406E-2,-7.605266571E-2
7.368426479E2,-6.108647794E-4,-2.153298259E-2,-8.017600328E-2
7.373467920E2,-3.665188793E-3,-2.733619884E-2,-7.696896046E-2
7.378509361E2,-4.123337101E-3,-2.519817278E-2,-7.162389904E-2
7.383550802E2,1.160643063E-2,-2.825249545E-2,-7.024945319E-2
7.388592242E2,1.175914705E-2,-2.061668597E-2,-7.116574794E-2
7.393633681E2,-2.443459118E-3,-5.497782957E-3,-8.735366166E-2
7.398675119E2,3.115410358E-2,-1.970038936E-2,-7.544180006E-2
7.403716555E2,1.007926930E-2,-4.718930274E-2,-1.020144150E-1
7.408757992E2,-1.145371422E-2,-3.039052337E-2,-4.703658819E-2
7.413799427E2,-8.857538924E-3,-4.734201822E-3,-6.566796452E-2
7.418840862E2,-4.734201822E-3,2.458730713E-2,-6.826414168E-2
7.423882297E2,2.290742937E-3,-1.985310577E-2,-6.826414168E-2
7.428923732E2,-6.261364091E-3,-4.276053514E-3,-7.574722916E-2
7.433965165E2,-1.740964688E-2,-1.634063199E-2,-7.620538026E-2
7.439006597E2,-2.748891525E-2,-5.650499370E-3,-6.734783947E-2
7.444048030E2,6.108647794E-4,-7.330377586E-3,-4.306596518E-2
7.449089463E2,-2.565632015E-2,6.414080039E-3,-4.444041103E-2
7.454130896E2,-1.756236330E-2,4.428769462E-3,-3.329212964E-2
7.459172327E2,-1.725693047E-2,3.054323839E-3,-2.275471389E-2
7.464213759E2,-2.031125315E-2,9.162971983E-4,-1.725693047E-2
7.469255192E2,-2.580903657E-2,7.941242307E-3,-4.581485875E-3
7.474296625E2,-1.175914705E-2,-2.290742937E-3,-5.955931731E-3
7.479338058E2,2.138026757E-3,1.221729559E-3,1.985310577E-3
7.484379492E2,6.872228812E-3,1.679878100E-3,3.054323839E-3
7.489420926E2,-9.162971983E-4,2.596175298E-3,3.054323897E-4
7.494462362E2,-6.108647794E-4,1.374445739E-3,-6.108647794E-4
7.499503798E2,4.581485991E-4,-2.748891478E-3,1.221729559E-3
7.504545233E2,-3.054323839E-3,5.192350596E-3,4.581485991E-4
7.509586667E2,-2.458730713E-2,1.267544460E-2,3.970621154E-3
7.514628100E2,-1.130099874E-2,3.665188793E-3,4.886918236E-3
7.519669534E2,5.345067009E-3,1.221729559E-3,1.893680729E-2
7.524710967E2,-1.679878100E-3,6.719512399E-3,1.664606482E-2
7.529752400E2,2.901607659E-3,-1.527161920E-3,1.786779426E-2
7.534793834E2,-6.261364091E-3,7.177661173E-3,4.581485991E-4
7.539835267E2,-2.657261863E-2,-8.399390616E-3,-2.031125315E-2
7.544876698E2,1.450803876E-2,-1.221729536E-2,3.695731983E-2
7.549918131E2,1.160643063E-2,1.527161920E-3,3.756818548E-2
7.554959572E2,6.414080039E-3,2.596175298E-3,2.443459071E-2
7.560001024E2,-3.359756200E-3,5.039634649E-3,1.328630932E-2
7.565042486E2,7.483093534E-3,-6.108647678E-3,2.046396956E-2
7.570083954E2,-3.359756200E-3,6.261364091E-3,1.634063199E-2
7.575125429E2,1.679878100E-3,-7.635809598E-4,1.588248461E-2
7.580166908E2,4.123337101E-3,-2.290742937E-3,1.802051067E-2
7.585208388E2,-1.527161949E-4,2.076940238E-2,1.130099874E-2
7.590249870E2,-7.177661173E-3,6.108647678E-3,1.114828233E-2
7.595291352E2,-2.138026757E-3,1.374445739E-3,1.343902480E-2
7.600332834E2,1.313359290E-2,9.621120058E-3,1.985310577E-2
7.605374321E2,1.160643063E-2,1.679878100E-3,1.740964688E-2
7.610415814E2,-6.566796452E-3,1.130099874E-2,2.199113183E-2
7.615457313E2,5.955931731E-3,3.359756200E-3,1.618791744E-2
7.620498817E2,-5.955931731E-3,1.710421406E-2,1.740964688E-2
7.625540323E2,-5.039634649E-3,2.107483521E-2,1.313359290E-2
7.630581834E2,-6.719512399E-3,-7.635809598E-4,1.664606482E-2
7.635623348E2,-1.832594397E-3,5.345067009E-3,1.985310577E-2
7.640664863E2,-0.000000000E0,2.748891478E-3,1.939495653E-2
7.645706381E2,1.221729559E-3,-9.315688163E-3,3.970621154E-2
7.650747899E2,-1.374445739E-3,-1.221729559E-3,4.306596518E-2
7.655789417E2,-2.596175298E-3,3.817904973E-3,3.375028074E-2
7.660830934E2,-1.298087649E-2,1.038470119E-2,4.306596518E-2
7.665872450E2,-1.511890348E-2,4.123337101E-3,3.909534588E-2
7.670913964E2,2.443459118E-3,2.290742937E-3,4.581485689E-2
7.675955477E2,-1.679878100E-3,7.024944760E-3,4.596757516E-2
7.680996988E2,1.679878100E-3,5.497782957E-3,4.245510325E-2
7.686038498E2,5.039634649E-3,6.719512399E-3,3.145953640E-2
7.691080008E2,2.901607659E-3,5.192350596E-3,2.183841541E-2
7.696121516E2,4.276053514E-3,1.374445739E-3,8.704823442E-3
7.701163022E2,-3.054323897E-4,-7.635809598E-4,-1.679878100E-3
7.706204524E2,-4.581485875E-3,7.635809947E-3,-4.123337101E-3
7.711246023E2,1.099556591E-2,-4.581485991E-4,2.596175298E-3
7.716287519E2,6.872228812E-3,4.886918236E-3,-4.428769462E-3
7.721329013E2,-6.108647678E-3,2.290742937E-3,7.788525894E-3
7.726370505E2,2.443459118E-3,-1.496618707E-2,-4.276053514E-3
7.731411997E2,4.734201822E-3,-1.985310577E-3,-8.093958721E-3
7.736453487E2,7.483093534E-3,-2.290742937E-3,3.359756200E-3
7.741494975E2,-1.420260593E-2,-8.704823442E-3,-7.941242307E-3
7.746536463E2,2.748891478E-3,-1.343902480E-2,-2.901607659E-3
7.751577951E2,5.955931731E-3,4.276053514E-3,-3.054323839E-3
7.756619440E2,3.817904973E-3,1.084284950E-2,3.054323897E-4
7.761660928E2,-1.725693047E-2,1.206457894E-2,-3.207040019E-3
7.766702423E2,1.023198478E-2,-5.497782957E-3,-9.162971983E-4
7.771743927E2,-9.468403645E-3,-1.069013379E-3,-3.054323897E-4
7.776785445E2,6.108647794E-4,7.635809598E-4,-7.635809598E-4
7.781826977E2,1.679878100E-3,0.000000000E0,1.114828233E-2
7.786868522E2,6.108647678E-3,-2.443459118E-3,1.130099874E-2
7.791910075E2,-2.443459118E-3,1.985310577E-3,5.650499370E-3
7.796951635E2,1.832594397E-3,9.162971983E-4,9.621120058E-3
7.801993203E2,7.635809598E-4,1.069013379E-3,6.414080039E-3
7.807034781E2,-3.665188793E-3,1.374445739E-3,4.123337101E-3
7.812076366E2,3.054323839E-3,-9.162971983E-4,7.483093534E-3
7.817117957E2,-1.435532235E-2,9.162971983E-4,-3.817904973E-3
7.822159551E2,1.985310577E-3,9.162971983E-4,1.985310577E-3
7.827201143E2,3.970621154E-3,1.832594397E-3,1.832594397E-3
7.832242733E2,-3.054323839E-3,2.443459118E-3,0.000000000E0
7.837284323E2,7.635809947E-3,-3.054323839E-3,4.734201822E-3
7.842325915E2,-1.130099874E-2,8.399390616E-3,-6.414080039E-3
7.847367511E2,4.886918236E-3,0.000000000E0,3.054323839E-3
7.852409112E2,-2.901607659E-3,-1.832594397E-3,-3.359756200E-3
7.857450718E2,1.527161949E-4,-2.138026757E-3,-8.399390616E-3
7.862492326E2,-1.038470119E-2,-1.069013379E-3,-1.985310577E-2
7.867533935E2,5.650499370E-3,3.207040019E-3,1.985310577E-3
7.872575541E2,1.527161920E-3,4.734201822E-3,2.748891478E-3
7.877617144E2,-1.527161920E-3,3.665188793E-3,-3.207040019E-3
7.882658745E2,7.635809947E-3,1.527161949E-4,1.985310577E-3
7.887700341E2,-9.162971983E-4,1.527161949E-4,3.359756200E-3
7.892741935E2,3.054323839E-3,-4.123337101E-3,7.635809598E-4
7.897783524E2,3.054323897E-4,-9.162971983E-4,2.443459118E-3
7.902825109E2,-2.397644334E-2,5.955931731E-3,-1.603520103E-2
7.907866690E2,1.939495653E-2,-5.497782957E-3,1.007926930E-2
7.912908269E2,-2.825249545E-2,1.679878123E-2,-1.725693047E-2
7.917949847E2,2.061668597E-2,3.512472380E-3,1.175914705E-2
7.922991422E2,1.069013379E-3,-7.330377586E-3,1.038470119E-2
7.928032997E2,-7.635809947E-3,-9.468403645E-3,-2.138026757E-3
7.933074573E2,1.710421406E-2,-2.290742937E-3,1.863137633E-2
7.938116156E2,-1.481347065E-2,1.191186346E-2,3.054323839E-3
7.943157747E2,8.704823442E-3,-2.290742937E-3,5.345067009E-3
7.948199346E2,-7.024944760E-3,-2.596175298E-3,-5.650499370E-3
7.953240955E2,7.635809598E-4,-3.207040019E-3,-1.527161920E-3
7.958282574E2,3.359756200E-3,3.054323839E-3,4.581485875E-3
7.963324198E2,1.527161920E-3,5.497782957E-3,-9.162971983E-4
7.968365827E2,4.581485875E-3,6.719512399E-3,5.039634649E-3
7.973407459E2,-3.359756200E-3,1.374445739E-3,-3.054323839E-3
7.978449092E2,2.901607659E-3,-1.221729559E-3,3.054323897E-4
7.983490729E2,-1.053741761E-2,1.374445739E-3,-5.039634649E-3
7.988532374E2,-7.635809598E-4,0.000000000E0,-0.000000000E0
7.993574023E2,9.926552884E-3,-2.596175298E-3,6.261364091E-3
7.998615673E2,6.108647794E-4,2.596175298E-3,3.970621154E-3
8.003657318E2,-4.581485991E-4,-1.069013379E-3,-1.069013379E-3
8.008698959E2,-6.108647794E-4,5.650499370E-3,1.221729559E-3
8.013740593E2,7.635809598E-4,-2.290742937E-3,-4.581485991E-4
8.018782222E2,-2.901607659E-3,2.443459118E-3,-9.162971983E-4
8.023823844E2,-4.581485875E-3,-5.955931731E-3,-3.817904973E-3
8.028865460E2,3.665188793E-3,-1.985310577E-3,6.108647794E-4
8.033907070E2,3.970621154E-3,2.443459118E-3,3.207040019E-3
8.038948674E2,2.901607659E-3,-2.901607659E-3,1.832594397E-3
8.043990271E2,-3.817904973E-3,5.345067009E-3,-1.221729559E-3
8.049031865E2,2.596175298E-3,-2.443459118E-3,1.832594397E-3
8.054073457E2,-4.276053514E-3,5.039634649E-3,-1.832594397E-3
8.059115047E2,-5.345067009E-3,4.581485991E-4,-4.734201822E-3
8.064156634E2,7.635809598E-4,-9.162971983E-4,1.527161949E-4
8.069198215E2,1.985310577E-3,8.857538924E-3,4.276053514E-3
8.074239792E2,-3.054323897E-4,6.566796452E-3,3.512472380E-3
8.079281365E2,-3.054323897E-4,3.207040019E-3,1.221729559E-3
8.084322932E2,9.162971983E-4,-2.748891478E-3,-4.581485991E-4
8.089364497E2,-7.788525894E-3,1.374445739E-3,-5.345067009E-3
8.094406057E2,-1.221729559E-3,-6.872228812E-3,-3.207040019E-3
8.099447615E2,8.093958721E-3,-3.054323839E-3,4.886918236E-3
8.104489169E2,1.221729559E-3,2.290742937E-3,2.443459118E-3
8.109530720E2,2.138026757E-3,-4.581485991E-4,9.162971983E-4
8.114572268E2,1.023198478E-2,-2.183841541E-2,3.665188793E-3
8.119613811E2,-2.290742937E-3,3.512472380E-3,-1.832594397E-3
8.124655350E2,-4.581485875E-3,6.108647794E-4,-4.581485875E-3
8.129696885E2,-5.955931731E-3,6.108647794E-4,-4.123337101E-3
8.134738416E2,1.069013379E-3,5.192350596E-3,1.221729559E-3
8.139779942E2,3.359756200E-3,2.901607659E-3,2.901607659E-3
8.144821463E2,2.596175298E-3,-7.635809598E-4,2.443459118E-3
8.149862979E2,-1.527161920E-3,2.290742937E-3,0.000000000E0
8.154904490E2,1.985310577E-3,-1.527161949E-4,-7.635809598E-4
8.159945996E2,-4.581485991E-4,3.054323897E-4,-0.000000000E0
8.164987499E2,-3.817904973E-3,-9.162971983E-4,-2.901607659E-3
8.170029002E2,-2.443459118E-3,-4.276053514E-3,-2.138026757E-3
8.175070509E2,2.901607659E-3,1.527161949E-4,1.527161949E-4
8.180112028E2,2.596175298E-3,4.276053514E-3,3.817904973E-3
8.185153569E2,2.596175298E-3,-1.374445739E-3,1.221729559E-3
8.190195136E2,1.679878100E-3,-4.581485991E-4,-1.527161949E-4
8.195236730E2,2.138026757E-3,-1.985310577E-3,1.221729559E-3
8.200278349E2,-5.192350596E-3,2.901607659E-3,-5.039634649E-3
8.205319994E2,-5.039634649E-3,-1.527161920E-3,-4.276053514E-3
8.210361668E2,1.221729559E-3,-1.527161920E-3,9.162971983E-4
8.215403373E2,1.145371422E-2,-1.175914705E-2,-1.007926930E-2
8.220445107E2,3.665188793E-3,-1.023198478E-2,5.803215317E-3
8.225486868E2,1.093447953E-1,-9.056070447E-2,-1.466075517E-2
8.230528651E2,8.277218044E-2,-1.412624866E-1,-5.650499370E-3
8.235570454E2,-9.010255337E-3,-7.330377586E-3,1.206457894E-2
