"Time (s)","Linear Acceleration x (m/s^2)","Linear Acceleration y (m/s^2)","Linear Acceleration z (m/s^2)"
0.000000000E0,1.842561960E-1,3.009366989E-2,-2.781963348E-2
1.898528150E-1,3.551393747E-1,-2.848625183E-3,1.673698425E-2
6.898528150E-1,1.628845334E-1,7.666158676E-2,8.916854858E-3
1.189852815E0,2.417863607E-1,-7.609987259E-2,6.719112396E-2
1.689852815E0,-5.473687649E-1,7.700018883E-1,-4.103126526E-1
2.189852815E0,8.037969470E-2,-1.336601019E0,1.230429649E0
2.689852815E0,-1.254722774E-1,8.861446381E-2,2.496185303E-1
3.189852815E0,-8.468195796E-3,4.614734650E-2,-8.273887634E-2
3.689852815E0,-1.415820122E-1,-7.383632660E-2,3.066921234E-2
4.189852815E0,3.600524366E-2,9.067296982E-3,2.947711945E-2
4.689852815E0,-4.027408361E-2,-1.139528751E-1,2.706813812E-2
5.189852815E0,-1.655271649E-2,1.940679550E-2,9.967803955E-3
5.689852815E0,-3.196567297E-3,1.651430130E-2,7.386112213E-2
6.189852815E0,-4.835960269E-2,-1.217260361E-1,2.357578278E-2
6.689852815E0,1.383292675E-2,1.565988064E-1,-3.814697266E-5
7.189852815E0,-5.155831575E-3,-3.716719151E-1,3.629779816E-2
7.689852815E0,3.578184545E-2,3.388388157E-1,-1.772403717E-2
8.189852815E0,-7.502943277E-3,-5.788533688E-1,-7.541179657E-2
8.689852815E0,-1.757612824E-2,-3.460574150E-2,-1.700210571E-2
9.189852815E0,4.036992788E-3,-2.072145939E-1,-2.738380432E-2
9.689852815E0,4.922729731E-2,1.374959946E-1,4.903793335E-3
1.018985282E1,-3.336054087E-2,-1.947975159E-2,1.151781082E-1
1.068985282E1,-9.175685048E-2,1.707885265E-1,3.432626724E-1
1.118985282E1,6.459227204E-2,-1.172544956E-1,-2.635583878E-1
1.168985282E1,9.495586157E-3,-1.879332066E-1,-2.883272171E-1
1.218985282E1,1.341146231E-2,1.897611618E-1,9.799957275E-2
1.268985282E1,-6.392806768E-3,8.144879341E-2,7.458496094E-2
1.318985282E1,-7.946610451E-3,1.036882401E-2,2.746486664E-2
1.368985282E1,-6.039702892E-2,9.403371811E-2,-2.653026581E-2
1.418985282E1,-2.459678054E-2,9.389162064E-3,7.124805450E-2
1.468985282E1,-2.388793230E-2,-4.712581635E-3,-1.028337479E-1
1.518985282E1,-6.010848284E-2,3.052163124E-2,1.327447891E-1
1.568985282E1,9.577274323E-3,-3.626918793E-2,3.175926208E-2
1.618985282E1,6.276279688E-3,-8.282566071E-2,3.108119965E-2
1.668985282E1,4.680812359E-3,-1.010673046E-1,7.386398315E-2
1.718985282E1,-2.170151472E-2,-8.164024353E-2,1.298904419E-3
1.768985282E1,-2.796897292E-2,-2.751755714E-2,8.790874481E-2
1.818985282E1,-6.189984083E-2,-1.281931400E-1,4.971981049E-2
1.868985282E1,3.694474697E-3,1.224017143E-2,4.621124268E-2
1.918985282E1,-5.739253759E-2,-5.044531822E-2,3.009128571E-2
1.968985282E1,5.586451292E-2,1.294279099E-2,-8.502864838E-2
2.018985282E1,-8.000671864E-3,8.258557320E-2,-4.448318481E-2
2.068985282E1,-5.272889137E-2,-7.260537148E-2,-3.872404099E-1
2.118985282E1,-1.870214939E-2,-1.792039871E-1,-4.907875061E-1
2.168985282E1,-6.179732084E-2,-3.179311752E-3,3.509073257E-1
2.218985282E1,-1.541322470E-2,4.208159447E-2,-2.086238861E-1
2.268985282E1,-1.431756020E-1,-1.206080914E-1,6.880664825E-2
2.318985282E1,1.060531735E-1,1.616883278E-2,-1.584329605E-1
2.368985282E1,-5.368173122E-2,-9.615659714E-2,-4.749622345E-1
2.418985282E1,-6.209433079E-2,3.778886795E-2,6.790637970E-2
2.468985282E1,-5.854833126E-2,-2.145812511E-1,3.841018677E-2
2.518985282E1,-3.367197514E-2,-2.672505379E-2,-1.388759613E-1
2.568985282E1,4.029011726E-2,2.217085361E-1,-7.956218719E-2
2.618985282E1,4.654526711E-3,-1.713180542E-1,-1.528005600E-1
2.668985282E1,3.424859047E-2,-1.117854118E-1,-3.156652451E-1
2.718985282E1,-5.851995945E-2,1.216151714E-1,3.931808472E-2
2.768985282E1,-4.040479660E-3,7.525324821E-2,6.573200226E-2
2.818985282E1,3.818130493E-2,2.941155434E-2,6.173038483E-2
2.868985282E1,5.848920345E-2,-3.486418724E-2,3.859615326E-2
2.918985282E1,-1.780760288E-2,-2.163648605E-3,-3.854942322E-2
2.968985282E1,3.295814991E-2,-8.449029922E-2,4.450225830E-2
3.018985282E1,-1.205487251E-1,4.764866829E-2,-3.428363800E-2
3.068985282E1,1.042729616E-1,4.687643051E-2,-8.463191986E-2
3.118985282E1,5.689275265E-2,-8.832621574E-2,-1.787118912E-1
3.168985282E1,3.437757492E-2,3.457801342E-1,-8.085641861E-1
3.218985282E1,6.025457382E-2,-1.422047615E-1,-2.847080231E-1
3.268985282E1,-1.546001434E-2,-7.652115822E-2,-1.974296570E-2
3.318985282E1,2.661049366E-2,7.686996460E-2,-1.022529602E-2
3.368985282E1,-1.484322548E-2,-5.485367775E-2,1.228151321E-1
3.418985282E1,-8.480489254E-2,6.034994125E-2,6.767940521E-2
3.468985282E1,-2.740418911E-2,1.039750576E-1,1.638536453E-1
3.518985282E1,-5.671119690E-2,-1.265892982E-1,-3.417015076E-3
3.568985282E1,-8.272838593E-2,1.671147346E-2,5.960559845E-2
3.618985282E1,6.007075310E-3,8.174180984E-3,1.825428009E-2
3.668985282E1,-1.022493839E-2,-4.338860512E-2,3.905868530E-2
3.718985282E1,-6.503677368E-2,9.210824966E-3,-9.145450592E-2
3.768985282E1,-3.186643124E-2,-3.034806252E-2,6.605625153E-2
3.818985282E1,-1.078013182E-1,-6.856346130E-2,1.273717880E-1
3.868985282E1,1.220675707E-1,3.435683250E-2,-1.708536148E-1
3.918985282E1,1.012914181E-1,1.163527966E-1,-8.040618896E-2
3.968985282E1,-2.976489067E-2,-1.230916977E-1,-1.208305359E-2
4.018985282E1,2.857339382E-2,-1.268365383E-1,-1.144409180E-3
4.068985282E1,5.184412003E-4,6.022453308E-2,1.084203720E-1
4.118985282E1,-5.919933319E-4,-1.201415062E-2,1.545333862E-2
4.168985282E1,-2.671182156E-2,6.157779694E-2,-9.903621674E-2
4.218985282E1,-5.002200603E-2,5.175805092E-2,2.813348770E-1
4.268985282E1,-4.379725456E-2,-4.783725739E-2,9.952831268E-2
4.318985282E1,-1.463012695E-1,8.453416824E-2,3.422670364E-1
4.368985282E1,8.919811249E-2,2.726793289E-2,8.780002594E-2
4.418985282E1,3.564596176E-2,2.578268051E-1,1.541604996E-1
4.468985282E1,-1.184549332E-1,-1.986882687E-1,-4.626722336E-1
4.518985282E1,-1.828033924E-1,-3.614156246E-1,8.932113647E-2
4.568985282E1,7.260072231E-2,5.659127235E-2,7.407379150E-2
4.618985282E1,1.672146320E-1,1.307010651E-3,-1.600971222E-1
4.668985282E1,-4.411113262E-2,2.206394672E-1,-1.713685989E-1
4.718985282E1,5.055081844E-2,4.605984688E-2,-1.376667023E-1
4.768985282E1,-8.100235462E-2,-8.009076118E-2,2.298173904E-1
4.818985282E1,-2.571117878E-2,-1.703214645E-2,-2.425670624E-2
4.868985282E1,-1.265687943E-1,3.289937973E-3,2.244949341E-1
4.918985282E1,3.679716587E-2,-5.077075958E-2,-1.325464249E-1
4.968985282E1,3.558909893E-2,-1.274745464E-1,-6.249618530E-2
5.018985282E1,6.933414936E-2,1.631686687E-1,-3.193330765E-1
5.068985282E1,-3.246176243E-2,1.615524292E-2,-3.032798767E-1
5.118985282E1,-2.761125565E-2,2.778172493E-2,2.535266876E-1
5.168985282E1,7.848465443E-2,-4.579401016E-2,-6.278324127E-2
5.218985282E1,-2.455663681E-2,-3.629279137E-2,1.149845123E-2
5.268985282E1,-8.189940453E-2,1.744387150E-1,-1.459970474E-1
5.318985282E1,-1.288712025E-2,-1.827428341E-1,2.221670151E-1
5.368985282E1,-1.084542274E-2,-1.562540531E-1,4.033498764E-1
5.418985282E1,5.986607075E-2,-1.724126339E-1,-6.118707657E-1
5.468985282E1,-4.934823513E-2,-1.095993519E-1,-1.274175644E-1
5.518985282E1,3.902339935E-2,5.644726753E-2,-9.334564209E-2
5.568985282E1,-5.640637875E-2,-7.213449478E-2,1.027288437E-1
5.618985282E1,1.489233971E-2,-1.420485973E-1,5.897235870E-2
5.668985282E1,-5.754637718E-2,6.161308289E-2,2.160215378E-1
5.718985282E1,-4.731392860E-2,-1.291105747E-1,1.528244019E-1
5.768985282E1,-1.592742205E-1,1.915526390E-2,1.424655914E-1
5.818985282E1,2.994239330E-2,5.076885223E-3,3.083133698E-2
5.868985282E1,-2.375125885E-3,1.049377918E-1,-1.428222656E-2
5.918985282E1,-5.156147480E-2,-7.832765579E-3,-5.264472961E-2
5.968985282E1,-3.763425350E-2,-1.849484444E-2,-5.788421631E-2
6.018985282E1,2.271354198E-2,-8.154416084E-2,-6.494522095E-4
6.068985282E1,1.237218380E-1,1.333761215E-1,-2.337932587E-2
6.118985282E1,5.253767967E-2,-2.561569214E-2,1.866426468E-1
6.168985282E1,1.572370529E-4,1.555354595E-1,-6.100654602E-3
6.218985282E1,2.461540699E-2,-8.981227875E-4,-2.999973297E-2
6.268985282E1,-1.817295551E-1,-3.582262993E-2,-7.281780243E-2
6.318985282E1,-1.917161942E-1,-9.912467003E-2,-1.109313965E-2
6.368985282E1,-7.439851761E-4,-7.553577423E-3,-3.075599670E-3
6.418985282E1,-4.945278168E-2,-1.392014027E-1,-5.952739716E-2
6.468985282E1,2.599382401E-2,-6.984305382E-2,-8.017635345E-2
6.518985282E1,2.073490620E-2,-2.046091557E-1,6.074714661E-2
6.568985282E1,-6.589996815E-2,-1.372342110E-1,-1.124486923E-1
6.618985282E1,-3.142940998E-2,-1.835513115E-2,-1.572895050E-2
6.668985282E1,-8.920431137E-3,5.467748642E-2,-7.232093811E-2
6.718985282E1,-1.288282871E-2,-5.378603935E-2,3.108787537E-2
6.768985282E1,5.224943161E-3,1.948473454E-1,4.536914825E-2
6.818985282E1,4.713523388E-2,5.604743958E-2,-2.187824249E-2
6.868985282E1,-3.360593319E-2,2.064483166E-1,1.484432220E-1
6.918985282E1,-1.894748211E-2,-3.025269508E-2,8.730888367E-2
6.968985282E1,-2.678227425E-2,-9.990930557E-2,3.560924530E-2
7.018985282E1,-3.782057762E-2,-6.569647789E-2,2.536296844E-2
7.068985282E1,-9.690618515E-2,4.238390923E-2,-3.063201904E-3
7.118985282E1,-5.797123909E-2,1.461338997E-2,1.006708145E-1
7.168985282E1,9.166955948E-3,-2.793574333E-2,3.204250336E-2
7.218985282E1,-1.881074905E-2,-4.880404472E-2,3.429508209E-2
7.268985282E1,2.988553047E-2,5.154967308E-2,5.077457428E-2
7.318985282E1,-2.515459061E-2,-1.052529812E-1,1.630020142E-2
7.368985282E1,5.082166195E-2,-5.343699455E-2,-3.409099579E-2
7.418985282E1,1.353383064E-2,2.257084846E-2,-9.639739990E-3
7.468985282E1,-1.156020164E-2,-5.096673965E-3,3.615093231E-2
7.518985282E1,-3.168463707E-2,-9.239935875E-2,9.731292725E-3
7.568985282E1,1.526260376E-2,-2.037882805E-2,1.398687363E-1
7.618985282E1,-5.253791809E-2,1.160898209E-1,1.018304825E-1
7.668985282E1,-5.275654793E-2,1.577427387E-1,1.085538864E-1
7.718985282E1,-5.784726143E-2,-1.987147331E-2,2.034282684E-2
7.768985282E1,8.882284164E-3,1.983292103E-1,-4.648303986E-2
7.818985282E1,-5.729222298E-2,2.547764778E-2,2.291393280E-2
7.868985282E1,-4.767489433E-2,1.100819111E-1,-2.124309540E-2
7.918985282E1,-1.554560661E-2,-2.504038811E-2,-6.910896301E-2
7.968985282E1,1.160836220E-2,-8.035373688E-2,-8.186912537E-2
8.018985282E1,-2.814626694E-2,2.929928303E-1,-1.481075287E-1
8.068985282E1,-9.987807274E-2,-1.354439259E-1,-6.312561035E-2
8.118985282E1,4.117226601E-2,1.538383961E-1,-9.489059448E-4
8.168985282E1,-4.707860947E-2,-1.149551868E-1,-2.765102386E-1
8.218985282E1,7.004165649E-2,4.792451859E-3,1.202478409E-1
8.268985282E1,-1.294970512E-2,2.448534966E-2,-3.531455994E-3
8.318985282E1,-3.719949722E-2,-1.094613075E-1,3.983211517E-2
8.368985282E1,9.536027908E-3,1.626901627E-1,-1.910114288E-2
8.418985282E1,-5.028319359E-2,-6.930136681E-2,9.877204895E-3
8.468985282E1,3.230738640E-2,-2.844500542E-2,-1.127624512E-2
8.518985282E1,-2.451682091E-2,-2.010917664E-2,-3.726959229E-3
8.568985282E1,-1.210045815E-2,-2.140903473E-2,2.555847168E-3
8.618985282E1,-5.630970001E-3,1.537966728E-2,2.554416656E-2
8.668985282E1,-2.807450294E-2,-1.544237137E-3,-2.729129791E-2
8.718985282E1,6.449699402E-3,1.852512360E-4,1.853179932E-2
8.768985282E1,-2.174592018E-2,2.914261818E-2,-5.694675446E-2
8.818985282E1,-3.004860878E-2,-3.968834877E-2,2.065849304E-2
8.868985282E1,8.253574371E-3,-2.287578583E-2,7.829666138E-4
8.918985282E1,1.598143578E-2,-4.998683929E-3,-1.321792603E-2
8.968985282E1,1.392126083E-3,-1.570296288E-2,1.181888580E-2
9.018985282E1,5.838871002E-4,-1.421117783E-2,8.427619934E-3
9.068985282E1,-4.152536392E-3,3.113746643E-3,1.063156128E-2
9.118985282E1,-1.691317558E-2,-2.532339096E-2,2.011966705E-2
9.168985282E1,-1.586985588E-2,-2.556228638E-2,1.758861542E-2
9.218985282E1,-2.525568008E-3,-1.254081726E-2,5.045890808E-3
9.268985282E1,-1.064133644E-2,5.081415176E-3,3.931045532E-3
9.318985282E1,-4.261732101E-3,-1.117944717E-3,7.575035095E-3
9.368985282E1,-1.349186897E-2,-2.802872658E-2,-1.090621948E-2
9.418985282E1,1.200914383E-3,1.892495155E-2,2.106666565E-3
9.468985282E1,-2.888512611E-2,-6.844806671E-2,-3.140449524E-3
9.518985282E1,2.564597130E-2,9.130883217E-2,-7.576942444E-3
9.568985282E1,-1.439499855E-2,-2.124285698E-2,-3.543186188E-2
9.618985282E1,1.031875610E-3,3.075599670E-5,1.633930206E-2
9.668985282E1,1.494836807E-2,1.400613785E-2,-1.334762573E-2
9.718985282E1,5.471229553E-3,1.540732384E-2,-1.798152924E-2
9.768985282E1,2.993106842E-3,1.352953911E-2,1.525878906E-4
9.818985282E1,-3.195285797E-3,-6.114244461E-3,1.315593719E-2
9.868985282E1,-2.933263779E-3,-6.876707077E-3,-4.630088806E-3
9.918985282E1,2.209377289E-2,1.289820671E-2,4.399299622E-3
9.968985282E1,-2.328157425E-3,-8.400917053E-3,-1.784324646E-3
1.001898528E2,-1.194572449E-2,4.956722260E-4,-1.535415649E-4
1.006898528E2,-1.672339439E-2,5.919694901E-3,1.173114777E-2
1.011898528E2,-9.070396423E-3,1.008749008E-3,3.437995911E-3
1.016898528E2,-1.216173172E-3,1.443147659E-3,1.734638214E-2
1.021898528E2,4.524946213E-3,-3.138232231E-2,1.704502106E-2
1.026898528E2,-2.657175064E-3,-2.360773087E-2,4.333591461E-2
1.031898528E2,-1.721930504E-2,1.600217819E-2,-3.678321838E-3
1.036898528E2,-2.201318741E-3,-1.112508774E-2,1.505851746E-3
1.041898528E2,-1.940703392E-2,2.560734749E-2,-3.701686859E-2
1.046898528E2,1.514363289E-2,3.993272781E-3,-8.896827698E-3
1.051898528E2,-1.399254799E-2,2.136898041E-2,-3.488826752E-2
1.056898528E2,9.612560272E-3,-2.927112579E-2,8.621215820E-3
1.061898528E2,-8.526325226E-3,1.479196548E-2,-1.517963409E-2
1.066898528E2,-2.637386322E-3,3.068447113E-3,-7.388114929E-3
1.071898528E2,-5.395174026E-3,-3.389358521E-3,1.148700714E-2
1.076898528E2,-6.505489349E-3,1.404356956E-2,4.396438599E-4
1.081898528E2,-1.109838486E-3,7.841587067E-3,-8.797645569E-3
1.086898528E2,-2.932167053E-2,1.583743095E-2,-1.838970184E-2
1.091898528E2,-6.835222244E-3,8.679151535E-3,-7.801055908E-4
1.096898528E2,4.949092865E-2,-1.328015327E-2,2.101421356E-2
1.101898528E2,3.217042685E-1,-3.240108490E-4,8.071422577E-2
1.106898528E2,1.299113035E-1,3.172755241E-2,-1.897239685E-2
1.111898528E2,2.617383003E-2,7.755517960E-3,2.200508118E-2
1.116898528E2,-8.251905441E-3,5.569219589E-3,-2.341270447E-3
1.121898528E2,3.795385361E-3,-2.730226517E-2,2.549457550E-2
1.126898528E2,2.139484882E-2,5.367755890E-3,-9.080886841E-3
1.131898528E2,-1.076245308E-2,-1.971721649E-3,1.425743103E-3
1.136898528E2,1.324093342E-2,1.414585114E-2,-2.208805084E-2
1.141898528E2,7.373094559E-4,2.916884422E-2,-1.654338837E-2
1.146898528E2,6.720423698E-3,-1.250743866E-2,1.094722748E-2
1.151898528E2,-3.785014153E-3,4.415273666E-3,9.488105774E-3
1.156898528E2,-9.197354317E-3,-1.912260056E-2,-1.608371735E-2
1.161898528E2,5.342841148E-3,1.297307014E-2,7.599830627E-3
1.166898528E2,-6.337046623E-3,-6.878376007E-3,2.005577087E-3
1.171898528E2,-7.508635521E-3,3.053188324E-3,1.800632477E-2
1.176898528E2,4.796147346E-3,3.197908401E-3,1.154804230E-2
1.181898528E2,-9.540796280E-3,-6.093740463E-3,-2.231121063E-2
1.186898528E2,-9.055137634E-4,1.755952835E-2,-8.528709412E-3
1.191898528E2,-2.639651299E-3,-3.835272789E-2,1.448345184E-2
1.196898528E2,9.782314301E-4,-2.808332443E-3,-8.935928345E-4
1.201898528E2,-1.375913620E-3,1.534771919E-2,-1.284980774E-2
1.206898528E2,-2.201914787E-2,-6.871938705E-3,-5.321502686E-4
1.211898528E2,4.520511627E-2,2.395462990E-2,-5.488395691E-3
1.216898528E2,-4.464495182E-2,-4.292583466E-2,1.022052765E-2
1.221898528E2,8.324384689E-3,5.185365677E-2,-3.673839569E-2
1.226898528E2,-3.354203701E-1,-2.118685246E-1,1.151561737E-2
1.231898528E2,-4.471790791E-2,-5.114908218E-1,2.579641342E-1
1.236898528E2,1.039337039E0,1.335749388E0,-1.180597305E0
1.241898528E2,6.664295197E-1,5.891342163E-1,-4.085254669E-2
1.246898528E2,3.124298155E-1,3.664362431E-1,-7.504940033E-2
1.251898528E2,1.595939696E-1,1.840548515E-1,-6.491565704E-2
1.256898528E2,1.202464402E-1,-2.199912071E-2,3.176879883E-2
1.261898528E2,-1.899048090E-1,6.536769867E-2,-7.666110992E-2
1.266898528E2,4.403632879E-2,1.684436798E-1,-1.408052444E-1
1.271898528E2,1.911789179E-3,-1.419496536E-2,2.943134308E-2
1.276898528E2,4.379150271E-2,2.106428146E-2,-8.226394653E-3
1.281898528E2,9.135901928E-3,1.181507111E-2,9.799003601E-3
1.286898528E2,2.334535122E-3,-1.514911652E-3,-6.892204285E-3
1.291898528E2,4.500108957E-2,1.071977615E-2,-3.717613220E-2
1.296898528E2,-4.365104437E-2,-1.966714859E-2,4.821777344E-3
1.301898528E2,-2.610701323E-2,1.783800125E-2,-1.182174683E-2
1.306898528E2,-6.198167801E-3,-1.923465729E-2,-3.620815277E-2
1.311898528E2,4.498845339E-1,2.667665482E-2,-2.585315704E-2
1.316898528E2,4.317887425E-1,-4.040098190E-2,7.880592346E-2
1.321898528E2,7.777750492E-3,-5.308151245E-3,1.425647736E-2
1.326898528E2,-7.930371165E-2,2.537250519E-3,2.549648285E-2
1.331898528E2,2.051049471E-2,6.396436691E-2,-7.430553436E-2
1.336898528E2,3.021392226E-2,6.613254547E-3,2.418327332E-2
1.341898528E2,-5.566146970E-2,-4.914760590E-3,7.578849792E-3
1.346898528E2,-2.605232596E-2,-4.060745239E-3,3.929519653E-2
1.351898528E2,-7.004737854E-4,4.962444305E-3,-5.349159241E-3
1.356898528E2,6.825357676E-3,-2.936887741E-2,5.401611328E-2
1.361898528E2,-7.916542888E-2,1.085281372E-2,-4.484653473E-2
1.366898528E2,1.268596053E-1,1.148223877E-3,1.210689545E-2
1.371898528E2,1.429527998E-2,-6.055974960E-2,2.525043488E-2
1.376898528E2,3.544393182E-2,5.378341675E-2,-5.812644958E-2
1.381898528E2,-3.096482158E-2,-1.218175888E-2,2.281665802E-2
1.386898528E2,-9.414300323E-2,-4.361391068E-2,5.587863922E-2
1.391898528E2,-8.177956194E-2,5.988216400E-2,-6.293773651E-2
1.396898528E2,-8.413076401E-3,-8.303785324E-2,4.164981842E-2
1.401898528E2,-4.070882499E-2,4.123020172E-2,-1.343631744E-2
1.406898528E2,-7.536144555E-2,-1.166563034E-1,6.303215027E-2
1.411898528E2,4.121395573E-2,2.705383301E-2,3.116607666E-2
1.416898528E2,-8.538071066E-2,2.771615982E-2,-2.014350891E-2
1.421898528E2,4.539151490E-2,2.746105194E-3,-4.501819611E-2
1.426898528E2,4.201462120E-2,-3.136157990E-3,-2.537727356E-3
1.431898528E2,1.720004156E-2,-3.000164032E-2,-2.186298370E-2
1.436898528E2,-7.229204476E-2,7.180738449E-2,-3.616142273E-2
1.441898528E2,1.289477013E-2,-1.636123657E-2,-7.571220398E-2
1.446898528E2,-5.870971829E-3,-2.942562103E-3,1.053085327E-1
1.451898528E2,-1.734448038E-2,-9.356546402E-2,2.818393707E-2
1.456898528E2,-6.954357028E-3,-2.593994141E-2,7.228088379E-2
1.461898528E2,1.438782364E-2,-1.147747040E-2,5.764961243E-3
1.466898528E2,-1.549182832E-2,-4.152917862E-2,-1.204490662E-3
1.471898528E2,-2.969588339E-2,1.406621933E-2,-1.234245300E-2
1.476898528E2,-2.653247118E-2,-6.417036057E-2,-4.102802277E-2
1.481898528E2,7.376352698E-2,9.622526169E-2,-5.723762512E-2
1.486898528E2,-1.415613592E-1,6.613874435E-2,1.076602936E-2
1.491898528E2,-2.928322554E-2,-1.454687119E-2,5.186271667E-2
1.496898528E2,5.129511654E-2,3.682775497E-1,-1.985616684E-1
1.501898528E2,-3.799960017E-3,-6.187295914E-2,1.387653351E-1
1.506898528E2,-1.164728552E-1,-3.803310394E-1,1.873617172E-1
1.511898528E2,5.696814507E-2,4.853291512E-1,-3.546257019E-1
1.516898528E2,6.751611829E-3,4.291772842E-2,-3.832817078E-3
1.521898528E2,8.973134309E-2,9.073925018E-2,-1.136093140E-1
1.526898528E2,1.134420931E-2,-4.428625107E-2,-1.217241287E-1
1.531898528E2,6.524874270E-2,6.232309341E-2,-1.168899536E-1
1.536898528E2,-9.668239951E-2,-8.150386810E-2,1.380405426E-1
1.541898528E2,5.451709032E-3,-3.534364700E-2,-1.130466461E-1
1.546898528E2,-5.803532004E-1,-5.179548264E-2,-1.648674011E-1
1.551898528E2,2.731146812E-1,1.030650139E-1,-1.303005219E-1
1.556898528E2,-2.829925418E-1,4.677200317E-2,1.041707993E-1
1.561898528E2,-2.639491558E-1,1.434035301E-1,-2.429485321E-1
1.566898528E2,-2.411049604E-2,-6.424188614E-2,5.437755585E-2
1.571898528E2,-4.116261005E-2,-4.094457626E-2,-1.677789688E-1
1.576898528E2,-1.505064964E-1,-1.866102219E-2,2.191448212E-2
1.581898528E2,8.527332544E-2,1.559667587E-1,-1.773958206E-1
1.586898528E2,-7.637679577E-2,7.541656494E-3,1.124916077E-1
1.591898528E2,-2.111744881E-2,-2.051796913E-1,2.759885788E-1
1.596898528E2,-4.078936577E-2,-4.989480972E-2,9.887409210E-2
1.601898528E2,-1.086639166E-1,-9.712839127E-2,4.959011078E-2
1.606898528E2,-3.163981438E-2,-9.434270859E-2,1.349534988E-1
1.611898528E2,-2.451193333E-2,7.382154465E-2,-1.864719391E-2
1.616898528E2,-3.678941727E-2,-1.570038795E-1,1.031675339E-1
1.621898528E2,5.556666851E-2,-1.571702957E-2,9.314250946E-2
1.626898528E2,-1.663267612E-2,8.079719543E-2,-1.722707748E-1
1.631898528E2,7.684350014E-3,-1.554489136E-3,-7.783794403E-2
1.636898528E2,-2.377784252E-2,-7.414722443E-2,1.438999176E-2
1.641898528E2,-1.892745495E-2,-6.692218781E-2,1.124572754E-2
1.646898528E2,2.807629108E-2,-4.806661606E-2,1.135396957E-1
1.651898528E2,-3.047084808E-2,-4.454851151E-2,4.599094391E-2
1.656898528E2,-6.786429882E-2,1.215839386E-2,1.682004929E-1
1.661898528E2,5.992770195E-3,-2.159166336E-2,2.563390732E-1
1.666898528E2,2.631378174E-2,1.038413048E-1,-3.156089783E-2
1.671898528E2,2.633255124E-1,-1.605987549E-2,1.268444061E-1
1.676898528E2,-1.925230026E-5,-4.807233810E-2,-1.541719437E-1
1.681898528E2,-4.199022055E-2,7.231855392E-2,-4.518032074E-2
1.686898528E2,-4.975503683E-2,-9.823560715E-2,3.171157837E-2
1.691898528E2,-2.624654770E-2,9.526300430E-2,2.062034607E-2
1.696898528E2,2.724200487E-2,2.203173637E-1,-5.442523956E-2
1.701898528E2,-3.668905497E-1,-3.007411957E-2,-1.616191864E-2
1.706898528E2,-1.236548424E-1,-4.853343964E-2,8.603382111E-2
1.711898528E2,4.452168941E-2,6.616663933E-2,6.238746643E-2
1.716898528E2,-7.398128510E-4,-6.508374214E-2,3.396701813E-2
1.721898528E2,5.246305466E-2,-8.032393456E-2,-1.477594376E-1
1.726898528E2,1.052057743E-2,-2.299165726E-2,-8.406066895E-2
1.731898528E2,-1.003658772E-2,3.070616722E-2,-5.332946777E-2
1.736898528E2,-1.185405254E-2,1.786258221E-1,1.151752472E-1
1.741898528E2,1.686795950E-1,-1.546597481E-2,6.313991547E-2
1.746898528E2,9.063756466E-2,-6.828427315E-2,-4.973316193E-2
1.751898528E2,-1.399862766E-2,-1.482427120E-1,-5.866622925E-2
1.756898528E2,-8.061945438E-2,-1.622760296E-1,-2.322492599E-1
1.761898528E2,1.453733444E-2,1.896071434E-2,-2.952861786E-2
1.766898528E2,7.112443447E-2,1.416521072E-1,-5.070781708E-2
1.771898528E2,1.394379139E-2,-9.527754784E-2,-8.784961700E-2
1.776898528E2,-1.936101913E-2,3.405261040E-2,-5.062675476E-2
1.781898528E2,-4.626750946E-3,1.033947468E-1,-1.465539932E-1
1.786898528E2,6.583333015E-3,-2.583861351E-2,-1.210737228E-1
1.791898528E2,-3.685021400E-2,-5.630850792E-2,6.571578979E-2
1.796898528E2,-3.807890415E-2,-2.969145775E-2,-1.737308502E-2
1.801898528E2,-2.419769764E-2,3.193163872E-2,1.808176041E-1
1.806898528E2,-5.266857147E-2,1.904582977E-2,1.412763596E-1
1.811898528E2,4.072797298E-2,1.253247261E-2,5.398178101E-2
1.816898528E2,3.232491016E-2,6.929349899E-2,-2.130584717E-1
1.821898528E2,2.566111088E-2,5.857515335E-2,-1.079320908E-1
1.826898528E2,2.857971191E-2,-1.236677170E-3,1.403808594E-3
1.831898528E2,2.555286884E-2,3.250265121E-2,-1.096153259E-2
1.836898528E2,9.375882149E-2,-4.293918610E-3,-1.440429688E-1
1.841898528E2,1.922893524E-2,-1.610381603E-1,-1.865453720E-1
1.846898528E2,-3.060281277E-2,1.854038239E-2,-1.118936539E-1
1.851898528E2,-5.410313606E-3,4.769039154E-2,1.764898300E-1
1.856898528E2,-5.115270615E-4,1.998233795E-2,6.584644318E-2
1.861898528E2,-1.291966438E-2,-1.021146774E-2,4.784202576E-2
1.866898528E2,-8.870899677E-2,-3.689026833E-2,5.823802948E-2
1.871898528E2,-1.318705082E-2,6.676149368E-2,-9.756755829E-2
1.876898528E2,-4.738616943E-2,9.804534912E-2,-1.631660461E-1
1.881898528E2,-2.748036385E-2,-9.241104126E-3,-6.688594818E-2
1.886898528E2,-3.510003090E-1,1.334586143E-1,1.527242661E-1
1.891898528E2,-7.735860348E-2,-5.179452896E-2,2.811584473E-1
1.896898528E2,-9.100937843E-2,-6.574487686E-2,-1.390104294E-1
1.901898528E2,2.766008377E-1,3.681731224E-2,-5.255794525E-2
1.906898528E2,1.755762100E-2,-1.376252174E-1,-3.339862823E-2
1.911898528E2,-9.802699089E-3,-7.935714722E-2,-4.471111298E-2
1.916898528E2,2.694952488E-2,3.769636154E-3,-1.077947617E-1
1.921898528E2,4.029977322E-2,3.066420555E-2,-1.341819763E-1
1.926898528E2,6.206989288E-3,-6.459116936E-2,-6.369876862E-2
1.931898528E2,7.042253017E-2,1.002693176E-1,-6.042766571E-2
1.936898528E2,2.518570423E-2,1.590752602E-2,3.118515015E-2
1.941898528E2,-2.175676823E-2,7.231950760E-3,5.822753906E-2
1.946898528E2,7.008802891E-2,6.139922142E-2,3.441143036E-2
1.951898528E2,5.193519592E-2,8.702325821E-2,-1.514978409E-1
1.956898528E2,2.147197723E-2,-7.187843323E-3,1.330566406E-2
1.961898528E2,4.295790195E-2,1.824855804E-3,-1.211614609E-1
1.966898528E2,2.824485302E-2,9.457921982E-2,-1.595087051E-1
1.971898528E2,2.813899517E-2,-1.435947418E-2,2.880096436E-2
1.976898528E2,-2.519229650E-1,-8.242368698E-3,1.479434967E-2
1.981898528E2,-2.078101635E-1,-6.143856049E-2,-6.647396088E-2
1.986898528E2,-3.709006310E-2,6.948804855E-2,8.611679077E-3
1.991898528E2,1.977289915E-1,-8.597898483E-2,1.748781204E-1
1.996898528E2,-1.457452774E-1,1.222515106E-2,-5.153179169E-2
2.001898528E2,5.638241768E-2,6.196498871E-3,-2.493667603E-2
2.006898528E2,7.618427277E-3,3.154039383E-2,-1.102781296E-1
2.011898528E2,-3.089427948E-2,-2.231884003E-2,-3.368186951E-2
2.016898528E2,1.096649170E-1,-6.886029243E-2,4.562568665E-2
2.021898528E2,-1.531207561E-2,3.463006020E-2,-4.246616364E-2
2.026898528E2,1.083970070E-2,-7.731842995E-2,-1.790657043E-1
2.031898528E2,-2.444183826E-2,-1.475334167E-2,3.180503845E-3
2.036898528E2,-8.444499969E-2,5.418062210E-2,-3.572082520E-2
2.041898528E2,-2.652525902E-2,-2.962851524E-2,-1.263618469E-3
2.046898528E2,-2.899408340E-2,7.493972778E-3,8.891010284E-2
2.051898528E2,1.107764244E-2,-1.811504364E-3,-8.223533630E-3
2.056898528E2,-2.938389778E-2,1.411628723E-2,6.151008606E-2
2.061898528E2,-9.265923500E-2,-5.175828934E-3,6.987285614E-2
2.066898528E2,-6.990504265E-2,-4.996466637E-2,8.222007751E-2
2.071898528E2,-8.000850677E-3,-7.202100754E-2,-1.793956757E-2
2.076898528E2,8.641481400E-3,7.050752640E-3,1.803016663E-2
2.081898528E2,-6.745886803E-2,-7.689261436E-2,4.038810730E-3
2.086898528E2,6.544828415E-3,9.512901306E-3,-5.941390991E-4
2.091898528E2,-3.483986855E-2,-7.919788361E-2,6.658077240E-2
2.096898528E2,3.369426727E-2,2.436304092E-2,-9.435081482E-2
2.101898528E2,-1.145219803E-2,-7.955312729E-3,-3.781414032E-2
2.106898528E2,7.919669151E-3,3.445792198E-2,-1.080160141E-1
2.111898528E2,7.559776306E-3,-5.142688751E-4,-9.841346741E-2
2.116898528E2,4.179954529E-3,-8.201003075E-2,-3.220176697E-2
2.121898528E2,3.593182564E-2,5.306100845E-2,-2.086067200E-2
2.126898528E2,-4.661488533E-2,-1.178526878E-2,1.126680374E-1
2.131898528E2,-3.921294212E-2,-3.296661377E-2,9.807109833E-2
2.136898528E2,-5.938529968E-3,-4.334163666E-2,4.267406464E-2
2.141898528E2,5.261588097E-2,-2.793931961E-2,1.881980896E-2
2.146898528E2,2.088761330E-2,1.863026619E-2,7.935523987E-3
2.151898528E2,-1.129744053E-1,-7.765483856E-2,-4.907321930E-2
2.156898528E2,-3.976511955E-2,-2.069544792E-2,-5.880641937E-2
2.161898528E2,-8.056163788E-4,-1.239559650E-1,-5.476474762E-2
2.166898528E2,1.752853394E-3,8.416295052E-2,3.153324127E-2
2.171898528E2,6.578540802E-2,4.168725014E-2,1.659393311E-4
2.176898528E2,-3.404474258E-2,-1.359415054E-2,-3.430366516E-3
2.181898528E2,-2.198100090E-2,-1.108646393E-3,3.433227539E-3
2.186898528E2,1.419901848E-2,-1.630735397E-2,8.101463318E-3
2.191898528E2,5.439352989E-2,-8.759975433E-3,5.833911896E-2
2.196898528E2,4.733347893E-2,2.036547661E-2,-2.038192749E-2
2.201898528E2,-3.743839264E-2,-3.507900238E-2,1.459312439E-2
2.206898528E2,-2.253293991E-3,2.672481537E-2,-7.016181946E-3
2.211898528E2,-3.423976898E-2,-1.749491692E-2,2.724647522E-3
2.216898528E2,-7.455348969E-4,-4.063129425E-3,2.164649963E-2
2.221898528E2,4.749464989E-2,1.114702225E-2,4.192352295E-3
2.226898528E2,2.009177208E-2,1.020550728E-2,-1.097011566E-2
2.231898528E2,-7.285594940E-3,2.118515968E-2,1.153659821E-2
2.236898528E2,-4.503726959E-4,-2.176666260E-2,7.574081421E-3
2.241898528E2,7.454872131E-3,1.387333870E-2,2.030372620E-3
2.246898528E2,-6.468057632E-3,7.293224335E-4,1.974105835E-4
2.251898528E2,5.009174347E-4,6.550312042E-3,-8.440971375E-3
2.256898528E2,1.771688461E-2,1.711845398E-3,-4.057884216E-3
2.261898528E2,6.476879120E-3,1.211023331E-2,-6.965637207E-3
2.266898528E2,3.733873367E-3,-2.179789543E-2,1.002311707E-2
2.271898528E2,-1.738071442E-4,9.880304337E-3,7.906913757E-3
2.276898528E2,1.566410065E-4,1.234531403E-3,-2.961158752E-3
2.281898528E2,-5.493402481E-3,1.611018181E-2,-5.364418030E-3
2.286898528E2,-1.350641251E-3,-2.029871941E-2,1.426029205E-2
2.291898528E2,7.686614990E-3,-2.241373062E-3,2.596855164E-3
2.296898528E2,-6.980895996E-3,-5.851984024E-3,9.013175964E-3
2.301898528E2,1.785993576E-3,-4.237174988E-3,-1.757621765E-3
2.306898528E2,-9.485483170E-3,-5.789518356E-3,-2.831459045E-3
2.311898528E2,2.682209015E-4,3.534793854E-3,4.240989685E-3
2.316898528E2,-1.022696495E-2,5.353450775E-3,6.757736206E-3
2.321898528E2,-2.584815025E-2,-1.740860939E-2,4.075050354E-3
2.326898528E2,-2.111196518E-3,-9.941339493E-3,1.227188110E-2
2.331898528E2,1.193027496E-1,1.084351540E-2,-2.717971802E-4
2.336898528E2,4.346203804E-2,1.790761948E-3,8.539199829E-3
2.341898528E2,-2.692961693E-2,-1.234912872E-2,-1.570701599E-3
2.346898528E2,2.257180214E-2,6.114959717E-3,6.632804871E-3
2.351898528E2,-1.724320650E-1,4.680061340E-2,-6.500434875E-2
2.356898528E2,-6.589341164E-2,-1.101851463E-2,-2.541542053E-2
2.361898528E2,2.524995804E-2,5.873680115E-3,2.753353119E-2
2.366898528E2,-7.886409760E-3,5.700826645E-3,1.569461823E-2
2.371898528E2,6.269097328E-3,-2.647876740E-3,-1.311302185E-3
2.376898528E2,-4.839897156E-4,2.841949463E-3,5.440711975E-3
2.381898528E2,-7.075810432E-2,-4.366874695E-2,2.273464203E-2
2.386898528E2,-1.181690693E-1,-6.724953651E-2,6.013488770E-2
2.391898528E2,5.391168594E-2,7.642745972E-3,5.819416046E-2
2.396898528E2,5.901730061E-2,3.057909012E-2,1.416301727E-2
2.401898528E2,-2.797007561E-3,3.575205803E-2,1.252174377E-3
2.406898528E2,1.745688915E-2,-1.632761955E-2,1.925468445E-3
2.411898528E2,-1.776099205E-3,3.147530556E-2,2.323246002E-2
2.416898528E2,6.338357925E-4,-1.856184006E-2,-2.620792389E-2
2.421898528E2,-2.527213097E-2,2.116227150E-2,1.433753967E-2
2.426898528E2,3.012061119E-3,-5.419969559E-2,6.112098694E-3
2.431898528E2,-1.481020451E-2,1.285839081E-2,-2.052211761E-2
2.436898528E2,-9.197115898E-3,4.068136215E-3,1.141548157E-3
2.441898528E2,-1.448750496E-3,2.007794380E-2,1.305961609E-2
2.446898528E2,4.027724266E-3,4.861354828E-4,-2.630329132E-2
2.451898528E2,3.061294556E-4,9.956121445E-3,3.081607819E-2
2.456898528E2,-2.886950970E-2,-5.863904953E-3,-1.614570618E-3
2.461898528E2,2.432745695E-2,-6.427049637E-3,8.533477783E-3
2.466898528E2,2.872741222E-2,-1.429104805E-2,1.320552826E-2
2.471898528E2,6.167173386E-3,2.924633026E-2,1.680660248E-2
2.476898528E2,-2.605575323E-2,8.801221848E-3,-1.253986359E-2
2.481898528E2,2.363979816E-3,-9.339809418E-3,-1.451492310E-3
2.486898528E2,-5.032420158E-3,5.118846893E-3,7.073402405E-3
2.491898528E2,-3.342652321E-2,-1.592731476E-2,4.041385651E-2
2.496898528E2,-1.429563761E-2,-2.063250542E-2,1.368141174E-2
2.501898528E2,2.308756113E-2,7.782697678E-3,8.049964905E-3
2.506898528E2,7.527470589E-3,8.356571198E-4,1.009941101E-3
2.511898528E2,2.321457863E-2,1.221418381E-2,-3.319263458E-2
2.516898528E2,2.464056015E-4,2.427840233E-2,-2.478504181E-2
2.521898528E2,-2.779579163E-2,-5.254983902E-3,5.194664001E-3
2.526898528E2,-9.527206421E-3,6.703376770E-3,3.090476990E-2
2.531898528E2,-7.111638784E-2,-5.062866211E-2,1.301288605E-2
2.536898528E2,1.160004139E-1,-1.032185555E-2,-2.346611023E-2
2.541898528E2,5.376547575E-2,1.458454132E-2,-2.163600922E-2
2.546898528E2,-5.679047108E-2,-3.788781166E-2,3.167247772E-2
2.551898528E2,-1.759980917E-1,-1.118321419E-1,6.862831116E-2
2.556898528E2,-1.542639732E-2,3.281831741E-2,-1.367378235E-2
2.561898528E2,4.007086158E-2,7.626628876E-2,-7.038307190E-2
2.566898528E2,5.089223385E-3,1.288557053E-2,5.624389648E-2
2.571898528E2,4.409849644E-3,4.440116882E-2,5.524635315E-3
2.576898528E2,3.250718117E-2,2.396440506E-2,5.184173584E-3
2.581898528E2,-2.378988266E-2,-3.093862534E-2,9.282112122E-3
2.586898528E2,4.032844305E-2,2.206087112E-2,-5.428981781E-2
2.591898528E2,3.243070841E-2,2.252769470E-2,-2.175807953E-2
2.596898528E2,-1.336568594E-2,-1.316976547E-2,-1.057720184E-2
2.601898528E2,3.573077917E-2,-1.013278961E-3,1.416301727E-2
2.606898528E2,1.004934311E-4,-4.010200500E-4,4.549026489E-4
2.611898528E2,3.540569544E-2,-1.457738876E-2,8.311271667E-3
2.616898528E2,9.499371052E-3,1.441144943E-2,1.532745361E-2
2.621898528E2,-2.784579992E-2,-2.105236053E-2,2.078533173E-2
2.626898528E2,8.164286613E-3,1.014900208E-2,-4.121780396E-3
2.631898528E2,1.794880629E-2,2.302360535E-2,-3.852081299E-2
2.636898528E2,-1.023650169E-3,-1.296997070E-2,1.084041595E-2
2.641898528E2,7.230043411E-5,1.544475555E-3,-5.676269531E-3
2.646898528E2,-8.369624615E-3,-1.136541367E-2,-1.137447357E-2
2.651898528E2,1.952608824E-1,-4.345941544E-2,-1.577281952E-2
2.656898528E2,-1.039430499E-1,-7.661199570E-2,-7.737255096E-2
2.661898528E2,1.175314188E-2,1.324381828E-1,-9.855842590E-2
2.666898528E2,-2.840620279E-2,-1.764345169E-2,8.869171143E-3
2.671898528E2,-2.113711834E-2,5.545616150E-4,-6.631851196E-3
2.676898528E2,-5.720257759E-3,-1.219797134E-2,-5.893707275E-3
2.681898528E2,-1.387310028E-2,-2.610826492E-2,2.021503448E-2
2.686898528E2,-1.254820824E-2,-8.040904999E-3,6.644248962E-3
2.691898528E2,2.976787090E-2,1.089906693E-2,1.457881927E-2
2.696898528E2,5.446222425E-2,1.487302780E-2,-9.527206421E-4
2.701898528E2,3.679078519E-1,-9.184551239E-2,1.074552536E-1
2.706898528E2,4.879476428E-1,-1.902580261E-4,1.975250244E-2
2.711898528E2,8.500176668E-2,1.681661606E-2,1.653957367E-2
2.716898528E2,8.556371927E-2,3.993558884E-2,-4.047298431E-2
2.721898528E2,3.321123123E-2,2.901315689E-2,3.067970276E-3
2.726898528E2,1.837712526E-2,6.912231445E-3,-2.869415283E-2
2.731898528E2,-6.320092082E-2,-8.759069443E-2,1.268968582E-1
2.736898528E2,8.642554283E-3,4.434156418E-2,-3.222084045E-2
2.741898528E2,-1.309520006E-2,-8.291864395E-2,6.764125824E-2
2.746898528E2,1.988655329E-2,-4.343938828E-2,4.282093048E-2
2.751898528E2,4.456192255E-2,8.009147644E-2,-1.066808701E-1
2.756898528E2,3.214335442E-2,1.090536118E-1,-1.530914307E-1
2.761898528E2,-6.682676077E-2,-9.776329994E-2,5.988311768E-2
2.766898528E2,-7.057690620E-2,-9.170293808E-2,5.081462860E-2
2.771898528E2,-3.905713558E-2,1.269769669E-2,9.632110596E-5
2.776898528E2,-1.608890295E-2,4.882335663E-3,2.968692780E-2
2.781898528E2,-1.122141182E-1,-1.121194363E-1,1.100769043E-1
2.786898528E2,3.979492188E-2,1.413369179E-1,-6.239318848E-2
2.791898528E2,-5.773279071E-2,-4.560208321E-2,-5.989456177E-2
2.796898528E2,-7.164290547E-2,7.229948044E-2,-5.077934265E-2
2.801898528E2,9.653165936E-2,-9.804487228E-3,-1.321258545E-1
2.806898528E2,-1.780606806E-1,5.388879776E-2,1.322174072E-1
2.811898528E2,3.331446648E-2,-5.378055573E-2,-6.124782562E-2
2.816898528E2,-3.894874454E-2,1.442131996E-1,4.760646820E-2
2.821898528E2,6.317946315E-2,4.201173782E-2,-1.184167862E-1
2.826898528E2,-2.531495690E-2,-9.834766388E-2,-1.778221130E-2
2.831898528E2,-5.207566917E-2,-1.971023083E-1,9.786415100E-2
2.836898528E2,5.180511624E-2,1.242263317E-1,-9.249114990E-2
2.841898528E2,4.411281645E-2,1.228623390E-1,-1.375970840E-1
2.846898528E2,3.247544169E-3,5.020618439E-3,9.618759155E-2
2.851898528E2,3.047206998E-2,1.121630669E-1,7.695198059E-3
2.856898528E2,-3.095617332E-2,-1.164982319E-1,-6.093692780E-2
2.861898528E2,3.694059700E-2,-3.535604477E-2,-3.726482391E-2
2.866898528E2,-1.521991938E-2,-1.226813793E-1,7.284259796E-2
2.871898528E2,-1.379729509E-1,-1.313972473E-1,1.185998917E-1
2.876898528E2,9.710185230E-3,-1.075267792E-1,7.937049866E-2
2.881898528E2,1.514642686E-1,2.203869820E-2,-4.788017273E-2
2.886898528E2,5.938631296E-2,-4.406785965E-2,-1.246423721E-1
2.891898528E2,-5.778637528E-2,-2.436938286E-1,1.659107208E-2
2.896898528E2,-2.792404890E-1,1.047515869E-2,2.452821732E-1
2.901898528E2,-1.944100261E-1,-1.577095985E-1,9.806346893E-2
2.906898528E2,-2.338876724E-1,8.924722672E-2,-5.393981934E-2
2.911898528E2,-4.391622543E-2,-5.782485008E-2,-3.882408142E-3
2.916898528E2,5.413520336E-2,1.030659676E-2,1.563072205E-3
2.921898528E2,3.179228306E-2,7.258892059E-3,4.436492920E-2
2.926898528E2,-1.184940338E-4,-6.774306297E-2,7.106971741E-2
2.931898528E2,3.704667091E-3,9.570288658E-2,1.578702927E-1
2.936898528E2,-2.609157562E-2,1.775579453E-1,-1.223955154E-1
2.941898528E2,-5.358791351E-2,8.384084702E-2,-9.325790405E-2
2.946898528E2,-5.153775215E-2,1.486275196E-1,-3.703880310E-2
2.951898528E2,3.591728210E-2,-2.093911171E-2,-7.655143738E-2
2.956898528E2,-1.659977436E-2,-7.859182358E-2,-1.808166504E-3
2.961898528E2,7.726109028E-2,2.695200443E-1,-1.116628647E-1
2.966898528E2,4.572963715E-2,7.402539253E-2,-1.899623871E-2
2.971898528E2,1.022577286E-3,2.173848152E-1,1.292896271E-2
2.976898528E2,-1.167869568E-2,9.557771683E-2,-3.287315369E-3
2.981898528E2,5.182504654E-3,2.197413445E-1,-8.533477783E-3
2.986898528E2,7.701158524E-3,1.126732826E-1,-2.603816986E-2
2.991898528E2,5.907595158E-3,1.411385536E-1,-2.262592316E-2
2.996898528E2,1.178973913E-2,1.086583138E-1,-2.261924744E-2
3.001898528E2,-7.903522253E-2,-8.495616913E-2,4.883766174E-2
3.006898528E2,7.022619247E-4,3.024435043E-2,1.434135437E-2
3.011898528E2,-7.353496552E-2,-1.730222702E-1,1.031446457E-1
3.016898528E2,-4.969298840E-2,-2.481365204E-2,6.058406830E-2
3.021898528E2,-4.995375872E-2,-9.269571304E-2,1.221561432E-2
3.026898528E2,-7.710218430E-3,-7.641744614E-2,-5.387306213E-3
3.031898528E2,-1.284694672E-2,-1.733610630E-1,-7.459831238E-2
3.036898528E2,-3.615641594E-2,-2.135083675E-1,6.037998199E-2
3.041898528E2,1.162400842E-1,-5.343937874E-2,-1.024599075E-1
3.046898528E2,6.011861563E-2,-4.887580872E-3,-6.600856781E-2
3.051898528E2,-7.628953457E-2,-4.113411903E-2,5.690574646E-3
3.056898528E2,-6.083977222E-2,-5.459642410E-2,-5.629539490E-3
3.061898528E2,1.776105165E-2,2.332115173E-2,3.593730927E-2
3.066898528E2,-6.474852562E-2,-3.680634499E-2,-4.171657562E-2
3.071898528E2,1.107329726E-1,1.015090942E-1,-4.705142975E-2
3.076898528E2,-3.107643127E-2,-4.702448845E-2,2.946567535E-2
3.081898528E2,-3.483653069E-2,5.422782898E-2,-3.814601898E-2
3.086898528E2,3.526145220E-2,1.451230049E-2,-5.098247528E-2
3.091898528E2,1.568603516E-2,2.657914162E-2,-2.765750885E-2
3.096898528E2,-4.871803522E-2,-8.250236511E-2,8.058166504E-2
3.101898528E2,5.920761824E-2,5.838775635E-2,1.773929596E-2
3.106898528E2,-2.631878853E-2,3.882169724E-3,1.145839691E-2
3.111898528E2,1.631766558E-2,2.547168732E-2,-2.255535126E-2
3.116898528E2,1.594781280E-1,1.142654419E-1,9.225845337E-3
3.121898528E2,4.037857056E-3,2.565360069E-2,7.171630859E-3
3.126898528E2,-1.348563433E-1,-6.901288033E-2,-4.322147369E-2
3.131898528E2,-1.094889641E-2,-1.400091648E-1,5.951213837E-2
3.136898528E2,2.460068464E-2,1.013996601E-1,-3.384304047E-2
3.141898528E2,-1.286942959E-1,4.136967659E-2,-2.915477753E-2
3.146898528E2,-9.009075165E-2,-1.398658752E-1,3.280735016E-2
3.151898528E2,1.494097710E-2,-3.719615936E-2,3.495025635E-2
3.156898528E2,6.296843290E-2,2.363705635E-2,8.345603943E-3
3.161898528E2,-2.847123146E-2,2.448945045E-1,-2.270002365E-1
3.166898528E2,-5.670785904E-2,1.882069111E-1,-2.259359360E-1
3.171898528E2,3.540515900E-3,1.081545353E-1,1.252965927E-1
3.176898528E2,4.750537872E-2,1.906726360E-1,4.384422302E-2
3.181898528E2,-8.093953133E-3,9.885954857E-2,-4.241085052E-2
3.186898528E2,-9.844112396E-2,4.462814331E-2,6.667041779E-2
3.191898528E2,1.157022715E-1,2.879676819E-1,-2.156448364E-1
3.196898528E2,2.666234970E-3,4.436707497E-2,2.899551392E-2
3.201898528E2,-2.615010738E-2,8.958888054E-2,-1.076450348E-1
3.206898528E2,2.109563351E-2,-9.496212006E-3,2.456665039E-2
3.211898528E2,-1.488133669E-1,-2.772092819E-3,-4.079532623E-2
3.216898528E2,-2.332855463E-1,-4.038739204E-2,-7.727909088E-2
3.221898528E2,3.644204140E-2,4.979872704E-2,-4.581928253E-2
3.226898528E2,2.837264538E-2,1.335558891E-1,-5.972957611E-2
3.231898528E2,-4.615175724E-2,-6.593704224E-3,9.265899658E-3
3.236898528E2,7.116186619E-2,1.312584877E-1,-8.552551270E-2
3.241898528E2,-1.028814316E-1,-1.409223080E-1,3.411388397E-2
3.246898528E2,1.312601566E-2,-1.666569710E-2,-3.697586060E-2
3.251898528E2,-1.938664913E-2,-7.655596733E-2,4.424667358E-2
3.256898528E2,-1.558665037E-1,-2.278449535E-1,1.124382019E-3
3.261898528E2,-3.636801243E-2,-8.112168312E-2,8.627891541E-3
3.266898528E2,-9.777629375E-2,-1.824333668E-1,3.413677216E-2
3.271898528E2,-1.326084137E-1,-2.066667080E-1,6.862735748E-2
3.276898528E2,1.069438457E-2,-1.343550682E-1,5.911731720E-2
3.281898528E2,-1.817297935E-2,-2.189683914E-2,-5.073833466E-2
3.286898528E2,-5.770242214E-2,-1.378424168E-1,1.040878296E-1
3.291898528E2,-8.468508720E-3,-6.824970245E-2,-2.017593384E-2
3.296898528E2,1.059557199E-1,-4.846167564E-2,-1.858234406E-2
3.301898528E2,9.690296650E-2,-3.849792480E-2,4.086208344E-2
3.306898528E2,-7.116329670E-2,5.894041061E-2,3.097629547E-2
3.311898528E2,1.122905016E-1,4.033327103E-2,-1.502513885E-2
3.316898528E2,-1.530199051E-1,-1.535160542E-1,-5.385398865E-3
3.321898528E2,-1.221278906E-1,-3.696990013E-2,-1.218318939E-2
3.326898528E2,1.208591461E-1,8.773064613E-2,3.148365021E-2
3.331898528E2,1.024880409E-1,7.157063484E-2,-2.930641174E-3
3.336898528E2,-6.965470314E-2,3.286743164E-2,-2.855396271E-2
3.341898528E2,-1.290762424E-2,-1.196041107E-1,8.120536804E-3
3.346898528E2,4.196298122E-2,1.367261410E-1,-6.003952026E-2
3.351898528E2,-6.111872196E-2,-7.215261459E-2,5.452156067E-3
3.356898528E2,-4.102587700E-3,9.186100960E-2,-2.147388458E-2
3.361898528E2,1.380431652E-2,-4.578948021E-2,2.306556702E-2
3.366898528E2,-8.676970005E-2,-5.753040314E-3,1.915454865E-2
3.371898528E2,-5.506801605E-2,9.432673454E-2,-1.393127441E-2
3.376898528E2,-2.464532852E-2,-7.805037498E-2,2.888584137E-2
3.381898528E2,-1.686096191E-2,9.216785431E-3,-3.180503845E-3
3.386898528E2,-2.042745352E-1,-1.367311478E-1,2.480030060E-2
3.391898528E2,9.003698826E-2,7.064437866E-2,-2.052783966E-2
3.396898528E2,8.198845387E-2,8.908486366E-2,-5.049133301E-2
3.401898528E2,-4.824399948E-4,2.258157730E-2,-2.135658264E-2
3.406898528E2,-3.556740284E-2,2.293276787E-2,-4.017829895E-3
3.411898528E2,3.843903542E-3,3.531265259E-2,-2.058696747E-2
3.416898528E2,-6.009459496E-3,2.599000931E-3,-6.070137024E-3
3.421898528E2,-1.628255844E-2,-1.142098904E-1,7.874488831E-2
3.426898528E2,-5.892252922E-2,-1.277041435E-2,6.256103516E-3
3.431898528E2,2.886056900E-4,-1.059055328E-3,-1.405715942E-3
3.436898528E2,-7.197034359E-2,-3.904771805E-2,5.012035370E-2
3.441898528E2,1.481605768E-1,7.570266724E-2,9.869575500E-3
3.446898528E2,-8.188128471E-3,6.736278534E-3,-3.861331940E-2
3.451898528E2,8.611559868E-2,4.104995728E-2,-8.311557770E-2
3.456898528E2,-2.297472954E-2,-1.678528786E-1,1.145486832E-1
3.461898528E2,7.087171078E-2,1.752600670E-1,-1.499652863E-1
3.466898528E2,-4.257833958E-2,-1.676745415E-1,1.381101608E-1
3.471898528E2,-4.071378708E-2,2.415022850E-1,-2.805318832E-1
3.476898528E2,-4.287838936E-3,-1.826224327E-1,1.592454910E-1
3.481898528E2,-6.502592564E-2,-4.863786697E-2,-1.883506775E-3
3.486898528E2,-1.317867041E-1,3.915596008E-2,-9.467029572E-2
3.491898528E2,1.266767979E-1,1.576352119E-1,-2.356967926E-1
3.496898528E2,-5.957090855E-2,9.489250183E-2,-1.426744461E-1
3.501898528E2,4.335749149E-2,-1.493210793E-1,1.217117310E-1
3.506898528E2,1.499683857E-1,-3.094625473E-2,9.264278412E-2
3.511898528E2,4.467356205E-2,5.546808243E-2,-5.815887451E-2
3.516898528E2,-5.290496349E-2,3.113603592E-2,-8.544921875E-2
3.521898528E2,2.961707115E-2,-1.375055313E-1,7.316398621E-2
3.526898528E2,-1.021436453E-1,-2.360773087E-2,-9.344005585E-2
3.531898528E2,-2.382946014E-2,-8.690977097E-2,7.833957672E-2
3.536898528E2,-1.571172476E-2,4.343032837E-3,-2.868366241E-2
3.541898528E2,-5.347311497E-3,2.657604218E-2,8.572578430E-3
3.546898528E2,3.232222795E-2,-8.021020889E-2,5.175876617E-2
3.551898528E2,2.828306556E-1,-1.559305191E-2,6.260395050E-2
3.556898528E2,1.915177703E-1,-2.391242981E-2,4.388332367E-2
3.561898528E2,3.350141644E-2,-1.013326645E-2,-7.297515869E-3
3.566898528E2,-3.014951944E-2,-5.940151215E-2,3.612422943E-2
3.571898528E2,1.303939223E-1,3.525257111E-2,-2.627944946E-2
3.576898528E2,-4.457488656E-2,-8.263111115E-3,2.830410004E-2
3.581898528E2,-2.102649212E-2,-1.030921936E-2,-3.806114197E-3
3.586898528E2,1.524513960E-2,-6.096839905E-3,4.587173462E-4
3.591898528E2,-1.654696465E-2,-3.379440308E-2,1.484107971E-2
3.596898528E2,-9.141206741E-3,1.227235794E-2,-2.268600464E-2
3.601898528E2,-2.583336830E-2,-3.838467598E-2,3.876304626E-2
3.606898528E2,-3.275036812E-2,-1.860427856E-2,2.032279968E-3
3.611898528E2,2.999004722E-2,-9.634494781E-3,-1.627731323E-2
3.616898528E2,-1.008635759E-2,2.528381348E-2,5.703544617E-2
3.621898528E2,-2.548342943E-2,-3.036618233E-2,5.225181580E-3
3.626898528E2,-5.398309231E-2,-3.211116791E-2,2.257442474E-2
3.631898528E2,3.457146883E-2,-2.605915070E-3,-5.057334900E-3
3.636898528E2,6.681871414E-2,7.136440277E-2,-3.813934326E-2
3.641898528E2,-1.787282228E-1,-6.379246712E-2,6.962490082E-2
3.646898528E2,-6.319552660E-2,-5.417680740E-2,8.887290955E-3
3.651898528E2,2.548635006E-2,1.292705536E-2,-8.008956909E-3
3.656898528E2,-2.779000998E-2,-2.709531784E-2,-4.660606384E-3
3.661898528E2,-1.803550124E-2,-1.964330673E-2,-2.839088440E-3
3.666898528E2,-4.298508167E-2,-1.200294495E-2,2.769374847E-2
3.671898528E2,-4.190459847E-2,-3.963661194E-2,4.043579102E-3
3.676898528E2,-1.816153526E-3,-7.968902588E-3,6.318092346E-3
3.681898528E2,-2.938210964E-3,-1.418161392E-2,-2.201652527E-2
3.686898528E2,2.517580986E-2,1.801919937E-2,-2.743816376E-2
3.691898528E2,2.997696400E-3,9.204387665E-3,-1.720333099E-2
3.696898528E2,-2.350193262E-2,3.753662109E-3,1.495456696E-2
3.701898528E2,-6.991857290E-2,-4.324579239E-2,4.318523407E-2
3.706898528E2,5.829632282E-3,2.738475800E-3,1.797199249E-2
3.711898528E2,2.048015594E-3,5.967617035E-3,-6.300926208E-3
3.716898528E2,1.441937685E-2,2.210092545E-2,-1.029872894E-2
3.721898528E2,-3.570613265E-2,-5.080652237E-2,3.559017181E-2
3.726898528E2,-5.090385675E-3,1.219749451E-2,-5.862236023E-3
3.731898528E2,1.672688127E-2,7.714271545E-3,-3.557205200E-4
3.736898528E2,9.022146463E-3,-1.105403900E-2,1.026058197E-2
3.741898528E2,-1.901715994E-2,3.288745880E-3,-5.064010620E-4
3.746898528E2,-1.449137926E-2,5.576610565E-3,7.990837097E-3
3.751898528E2,1.180869341E-2,2.786397934E-2,-2.033615112E-2
3.756898528E2,-3.376823664E-2,-6.880998611E-3,-1.184177399E-2
3.761898528E2,1.184344292E-4,-2.396869659E-2,1.891708374E-2
3.766898528E2,-1.766562462E-2,-1.554489136E-4,-1.086616516E-2
3.771898528E2,-1.391530037E-3,-6.598472595E-3,1.021385193E-2
3.776898528E2,4.147404432E-2,7.464885712E-3,1.439094543E-2
3.781898528E2,5.897744894E-1,1.318144798E-2,2.854633331E-2
3.786898528E2,2.197752148E-1,-1.898884773E-2,-1.517295837E-3
3.791898528E2,3.527646065E-1,-1.891946793E-2,-2.315521240E-2
3.796898528E2,8.041068912E-2,-3.344130516E-2,2.184581757E-2
3.801898528E2,7.198083401E-2,4.891514778E-2,-2.440261841E-2
3.806898528E2,-1.909764111E-2,-2.479124069E-2,6.412506104E-3
3.811898528E2,-3.338514268E-2,-1.161336899E-2,-7.114410400E-3
3.816898528E2,-1.156286895E-2,8.723020554E-3,-2.013206482E-2
3.821898528E2,1.210568100E-2,1.550507545E-2,-1.963996887E-2
3.826898528E2,-1.173127815E-2,-3.073692322E-2,2.658271790E-2
3.831898528E2,-1.679375209E-2,-6.065607071E-3,1.525592804E-2
3.836898528E2,-6.005886942E-3,-1.659536362E-2,-1.582145691E-3
3.841898528E2,3.939024359E-2,5.056643486E-2,-3.455448151E-2
3.846898528E2,-3.042707443E-1,6.604743004E-2,-8.544158936E-2
3.851898528E2,-4.750998020E-1,-3.395986557E-2,-3.155136108E-2
3.856898528E2,-4.679542780E-2,6.380391121E-2,-7.218360901E-2
3.861898528E2,-2.030352354E-1,8.559226990E-5,-5.630779266E-2
3.866898528E2,-1.033266783E-1,-1.659679413E-2,-1.785945892E-2
3.871898528E2,-1.244831085E-2,7.117104530E-2,-1.764297485E-4
3.876898528E2,-5.127429962E-2,8.918523788E-3,-2.010059357E-2
3.881898528E2,1.474328041E-1,-8.110642433E-2,2.854633331E-2
3.886898528E2,5.872428417E-2,4.831790924E-2,-7.041931152E-3
3.891898528E2,-2.215099335E-2,-4.132175446E-2,-1.198101044E-2
3.896898528E2,9.510624409E-2,1.415657997E-1,-1.086807251E-2
3.901898528E2,-1.210093498E-1,-1.168882847E-1,2.897453308E-2
3.906898528E2,-3.750085831E-2,-2.979922295E-2,-8.298873901E-3
3.911898528E2,3.636133671E-2,8.539891243E-2,-3.706073761E-2
3.916898528E2,-3.398716450E-2,-6.709313393E-2,-7.159233093E-3
3.921898528E2,4.069662094E-2,6.149601936E-2,-7.619857788E-4
3.926898528E2,-3.667950630E-2,9.401321411E-3,-8.433341980E-3
3.931898528E2,7.628202438E-3,-3.737139702E-2,-1.121807098E-2
3.936898528E2,9.983658791E-3,4.918718338E-2,1.670360565E-2
3.941898528E2,-2.574920654E-3,-4.197955132E-2,3.336906433E-3
3.946898528E2,1.301562786E-2,7.713580132E-2,-2.155017853E-2
3.951898528E2,-1.449406147E-2,-3.565025330E-2,2.841758728E-2
3.956898528E2,4.270613194E-2,4.748654366E-2,-2.606582642E-2
3.961898528E2,1.560866833E-2,4.345941544E-2,3.289222717E-3
3.966898528E2,6.541013718E-4,1.838755608E-2,-1.971054077E-2
3.971898528E2,3.511786461E-3,-2.331256866E-3,1.184749603E-2
3.976898528E2,-3.833305836E-2,-5.050849915E-2,3.403663635E-3
3.981898528E2,2.165865898E-2,5.071139336E-2,-2.312088013E-2
3.986898528E2,1.003396511E-2,-1.445412636E-2,-2.578449249E-2
3.991898528E2,1.310932636E-2,-1.952171326E-2,3.345870972E-2
3.996898528E2,1.204158068E-1,3.211307526E-2,2.344036102E-2
4.001898528E2,-3.845024109E-2,-9.012842178E-2,6.007194519E-3
4.006898528E2,-3.557384014E-2,-7.008552551E-3,3.044414520E-2
4.011898528E2,-4.604816437E-3,-7.603931427E-2,2.936649323E-2
4.016898528E2,-6.996512413E-3,3.214097023E-2,1.603603363E-2
4.021898528E2,3.127932549E-3,-6.864285469E-2,1.705074310E-2
4.026898528E2,-2.943921089E-2,-4.514217377E-2,-1.125335693E-3
4.031898528E2,-8.989214897E-3,-6.927633286E-2,7.128715515E-3
4.036898528E2,-6.177306175E-3,-1.270244122E-1,2.569198608E-3
4.041898528E2,1.288270950E-2,1.920270920E-2,-4.857063293E-3
4.046898528E2,-1.096749306E-2,-8.556675911E-2,4.087734222E-2
4.051898528E2,3.439962864E-2,1.183218956E-1,6.777763367E-3
4.056898528E2,-3.671920300E-2,-7.959961891E-2,1.988315582E-2
4.061898528E2,-1.093983650E-3,-3.349518776E-2,-2.193450928E-5
4.066898528E2,-3.273284435E-2,-1.194572449E-1,6.275653839E-2
4.071898528E2,-6.061673164E-3,-7.468318939E-2,-1.202106476E-2
4.076898528E2,-1.013016701E-2,-2.681517601E-2,3.796863556E-2
4.081898528E2,-8.528590202E-3,-1.022152901E-1,3.949832916E-2
4.086898528E2,-7.781863213E-3,7.760763168E-3,-8.974075317E-4
4.091898528E2,-1.950287819E-2,3.831672668E-2,-1.610183716E-2
4.096898528E2,4.814267159E-3,-1.253628731E-2,5.565834045E-2
4.101898528E2,-1.079070568E-2,-3.410887718E-2,8.132457733E-2
4.106898528E2,-2.255928516E-2,-3.746128082E-2,5.383491516E-3
4.111898528E2,-4.158294201E-2,-4.383707047E-2,3.253269196E-2
4.116898528E2,-5.108034611E-2,2.324366570E-2,-1.655578613E-2
4.121898528E2,-2.232885361E-2,-3.980398178E-2,6.841659546E-3
4.126898528E2,-1.651275158E-2,7.299661636E-3,-2.840995789E-3
4.131898528E2,-2.866733074E-2,-6.449103355E-2,1.751041412E-2
4.136898528E2,-3.388512135E-2,-5.298614502E-3,4.175281525E-2
4.141898528E2,-3.134143353E-2,-3.156399727E-2,-3.555011749E-2
4.146898528E2,-3.322744370E-2,2.625703812E-3,-3.699207306E-2
4.151898528E2,-1.689648628E-2,7.524991035E-2,-3.148746490E-2
4.156898528E2,-1.649260521E-2,8.332991600E-2,-6.654071808E-2
4.161898528E2,6.868839264E-4,1.295144558E-1,-2.121543884E-2
4.166898528E2,-7.123351097E-3,-2.881073952E-2,-5.253887177E-2
4.171898528E2,3.293442726E-2,2.240259647E-1,-9.784984589E-2
4.176898528E2,-3.539562225E-2,1.459717751E-2,-3.734970093E-2
4.181898528E2,-1.118099689E-2,9.559631348E-2,-4.334354401E-2
4.186898528E2,-1.673281193E-2,-4.821300507E-2,-4.589080811E-2
4.191898528E2,-2.547585964E-2,4.295277596E-2,-8.532524109E-3
4.196898528E2,-1.877570152E-2,2.750372887E-2,3.850936890E-3
4.201898528E2,-7.129263878E-2,-1.654794216E-1,1.389026642E-2
4.206898528E2,-1.544952393E-2,2.796888351E-3,-1.005048752E-1
4.211898528E2,-3.095000982E-2,7.395315170E-2,-4.767990112E-2
4.216898528E2,1.205005050E-1,-8.825445175E-2,1.668977737E-1
4.221898528E2,4.089352489E-2,1.253380775E-1,-1.617326736E-1
4.226898528E2,1.003924608E-1,1.464285851E-1,-9.768772125E-2
4.231898528E2,-4.781454802E-2,-7.211017609E-2,1.387500763E-2
4.236898528E2,-1.358934045E-1,-1.684265137E-1,1.027669907E-1
4.241898528E2,1.810253859E-1,2.805552483E-1,-1.937150955E-1
4.246898528E2,-1.076086760E-1,-3.086361885E-1,3.199682236E-1
4.251898528E2,2.953336835E-1,2.786731720E-1,-1.321277618E-1
4.256898528E2,-1.602545381E-2,-3.339219093E-1,2.032556534E-1
4.261898528E2,4.030486941E-2,1.211585999E-1,-1.898794174E-1
4.266898528E2,2.506160736E-1,-2.113451958E-1,4.726028442E-2
4.271898528E2,2.276020795E-1,2.506828308E-2,4.221725464E-2
4.276898528E2,1.621879935E-1,-1.502037048E-2,1.207952499E-1
4.281898528E2,-1.498192549E-2,6.589460373E-2,1.296901703E-2
4.286898528E2,1.509845257E-2,-2.002477646E-2,-1.366710663E-2
4.291898528E2,-1.284950972E-2,9.802579880E-2,-2.970066071E-1
4.296898528E2,6.543564796E-2,5.762577057E-2,-1.271533966E-2
4.301898528E2,-4.066583514E-2,-3.053236008E-2,4.608058929E-2
4.306898528E2,3.340867162E-2,-2.414321899E-2,-4.179286957E-2
4.311898528E2,6.529122591E-3,-1.547861099E-2,-4.876613617E-2
4.316898528E2,-2.950831652E-1,2.309370041E-2,-3.593730927E-2
4.321898528E2,-7.323627174E-2,1.521635056E-2,2.826023102E-2
4.326898528E2,-8.563211560E-2,-2.809286118E-2,9.155273438E-4
4.331898528E2,2.458650172E-1,-6.899356842E-3,5.457878113E-3
4.336898528E2,1.201455146E-1,-5.664205551E-2,3.560066223E-3
4.341898528E2,-1.297542900E-1,-4.634857178E-4,-5.680847168E-2
4.346898528E2,-8.160036802E-2,-3.390836716E-2,1.420974731E-4
4.351898528E2,-8.061969280E-2,-8.134889603E-2,2.457618713E-3
4.356898528E2,-3.457269073E-2,2.581548691E-2,-1.410007477E-2
4.361898528E2,6.419420242E-3,7.053804398E-2,4.823684692E-3
4.366898528E2,-1.107752323E-2,-3.184938431E-2,7.955741882E-2
4.371898528E2,2.427014709E-2,-6.045818329E-3,1.811790466E-2
4.376898528E2,1.560834050E-2,-4.022073746E-2,7.480907440E-2
4.381898528E2,-4.056066275E-3,1.824522018E-2,-7.443618774E-2
4.386898528E2,-1.121119261E-1,-5.771493912E-2,-1.004409790E-2
4.391898528E2,1.833682507E-2,3.793382645E-2,1.192855835E-2
4.396898528E2,1.021063775E-1,1.197261810E-1,-1.255702972E-2
4.401898528E2,-3.133884072E-2,4.050874710E-2,2.198505402E-2
4.406898528E2,-4.075816274E-2,6.016588211E-2,3.197956085E-2
4.411898528E2,3.902950883E-2,-1.593112946E-3,-3.436183929E-2
4.416898528E2,-3.190830350E-2,2.026987076E-2,-3.430461884E-2
4.421898528E2,4.130658507E-2,-1.053557396E-1,2.128887177E-2
4.426898528E2,6.524897367E-2,-5.509042740E-2,1.341629028E-2
4.431898528E2,3.325545415E-2,8.241605759E-2,-3.168201447E-2
4.436898528E2,9.365386516E-2,4.101991653E-2,-6.375122070E-2
4.441898528E2,2.088667825E-2,-1.655836105E-1,7.737159729E-3
4.446898528E2,-2.454778552E-1,-1.001462936E-1,-4.522228241E-2
4.451898528E2,-5.757905543E-2,-1.019616127E-1,8.338928223E-3
4.456898528E2,1.295685768E-3,1.181936264E-2,-6.117630005E-2
4.461898528E2,-2.889880538E-2,-3.167200089E-2,-1.060962677E-2
4.466898528E2,6.440788507E-3,-4.702496529E-2,-1.824283600E-2
4.471898528E2,2.718290687E-2,6.504058838E-4,-2.462482452E-2
4.476898528E2,-1.772215962E-2,3.957271576E-2,-5.309200287E-2
4.481898528E2,3.074318171E-3,-2.197265625E-3,-7.555961609E-3
4.486898528E2,-1.486802101E-2,3.259325027E-2,-4.207515717E-2
4.491898528E2,-2.640169859E-2,3.641080856E-2,3.030300140E-2
4.496898528E2,1.302307844E-2,9.097337723E-2,8.203125000E-2
4.501898528E2,2.679002285E-2,3.761053085E-2,7.264900208E-2
4.506898528E2,-6.266713142E-2,-1.579198837E-1,-4.896354675E-2
4.511898528E2,5.089145899E-2,1.972627640E-2,6.928062439E-2
4.516898528E2,6.085819006E-2,4.447126389E-2,-2.181386948E-1
4.521898528E2,-3.603196144E-2,-1.385607719E-1,2.959728241E-2
4.526898528E2,1.940095425E-2,-8.590698242E-3,3.374385834E-2
4.531898528E2,-3.265511990E-2,-8.042931557E-2,-1.288318634E-2
4.536898528E2,6.604957581E-2,1.304500103E-1,7.039642334E-2
4.541898528E2,-4.785382748E-2,1.464748383E-2,-4.709720612E-2
4.546898528E2,1.342916489E-2,1.392626762E-1,-4.055213928E-2
4.551898528E2,-2.614259720E-3,-7.247924805E-3,-1.095933914E-1
4.556898528E2,8.043730259E-2,-6.030750275E-2,7.111072540E-2
4.561898528E2,-1.548172235E-1,-2.395341396E-1,-2.775192261E-4
4.566898528E2,-6.118547916E-2,1.809823513E-1,-1.086816788E-1
4.571898528E2,5.509400368E-2,-6.133627892E-2,3.165245056E-2
4.576898528E2,-8.531093597E-3,5.396437645E-2,-3.367805481E-2
4.581898528E2,-4.257321358E-2,7.270336151E-2,-1.428318024E-2
4.586898528E2,-1.098591089E-1,-4.355669022E-2,4.213237762E-2
4.591898528E2,-2.937424183E-2,-1.854324341E-2,2.450656891E-2
4.596898528E2,-6.719708443E-2,-3.306508064E-2,1.213073730E-3
4.601898528E2,-1.227343082E-2,1.999926567E-2,-1.021385193E-3
4.606898528E2,-9.183549881E-2,-1.170048714E-1,7.022094727E-2
4.611898528E2,1.144645214E-1,-1.168861389E-1,-1.157932281E-1
4.616898528E2,9.780180454E-2,1.517882347E-1,-8.616924286E-2
4.621898528E2,3.285562992E-2,-3.504843712E-1,2.467985153E-1
4.626898528E2,2.095568180E-2,1.774482727E-1,-2.783775330E-3
4.631898528E2,1.306569576E-2,-8.136463165E-2,9.175395966E-2
4.636898528E2,-7.363450527E-2,-2.555704117E-2,1.486873627E-2
4.641898528E2,-1.148319244E-2,-1.011371613E-3,4.145622253E-3
4.646898528E2,1.584992409E-1,6.865882874E-2,-1.140089035E-1
4.651898528E2,2.497082949E-1,6.894683838E-2,5.919742584E-2
4.656898528E2,-1.347374916E-2,-2.936363220E-3,-1.404571533E-2
4.661898528E2,8.493304253E-3,-2.793741226E-2,-3.378868103E-3
4.666898528E2,5.056416988E-2,-1.235961914E-3,8.681297302E-3
4.671898528E2,1.108062267E-2,-9.443521500E-3,1.088809967E-2
4.676898528E2,-8.409631252E-2,-5.259752274E-3,-1.140785217E-2
4.681898528E2,-3.152620792E-2,-1.679158211E-2,-9.226799011E-3
4.686898528E2,-2.140903473E-2,-2.102851868E-4,-6.884574890E-3
4.691898528E2,3.982424736E-3,1.220703125E-4,-4.415512085E-4
4.696898528E2,-6.715774536E-3,1.150608063E-2,-7.001876831E-3
4.701898528E2,8.021402359E-2,-3.851485252E-2,3.584098816E-2
4.706898528E2,2.679967880E-2,-1.616585255E-1,9.417629242E-2
4.711898528E2,8.012223244E-2,7.883167267E-2,-4.621791840E-2
4.716898528E2,-6.683933735E-2,-4.692840576E-2,1.245975494E-2
4.721898528E2,4.370331764E-3,8.389711380E-3,-2.401924133E-2
4.726898528E2,6.156301498E-2,1.279258728E-2,-8.194923401E-3
4.731898528E2,-2.052879333E-2,-1.960134506E-2,-5.916595459E-3
4.736898528E2,1.810045242E-1,3.001260757E-2,6.871223450E-3
4.741898528E2,-1.260993481E-1,-3.250122070E-2,-4.876136780E-3
4.746898528E2,2.119827271E-2,2.159404755E-2,-2.498149872E-2
4.751898528E2,-9.298920631E-4,5.231761932E-2,1.469612122E-2
4.756898528E2,-1.601168513E-1,-1.427094936E-1,4.089069366E-2
4.761898528E2,6.084179878E-2,-4.422903061E-3,1.173591614E-2
4.766898528E2,-3.704345226E-2,-2.490305901E-2,7.228851318E-3
4.771898528E2,-1.435452700E-2,5.352258682E-3,8.607673645E-2
4.776898528E2,-1.762378216E-2,-9.259462357E-3,-1.236057281E-2
4.781898528E2,2.124601603E-2,-7.904767990E-3,-1.320743561E-2
4.786898528E2,-3.221631050E-3,-3.143477440E-2,-9.859085083E-3
4.791898528E2,2.019149065E-2,-1.286745071E-3,2.937030792E-2
4.796898528E2,-8.498370647E-3,-3.198456764E-2,2.850627899E-2
4.801898528E2,2.014458179E-3,-4.496574402E-4,2.519607544E-3
4.806898528E2,-7.577180862E-3,1.642465591E-3,-1.957893372E-3
4.811898528E2,-9.289383888E-4,3.582596779E-2,2.064704895E-3
4.816898528E2,-8.358001709E-3,3.824234009E-4,1.690006256E-2
4.821898528E2,8.929371834E-4,-5.272197723E-2,2.204990387E-2
4.826898528E2,-4.575073719E-3,5.880355835E-3,-1.955127716E-2
4.831898528E2,-7.344657183E-2,1.723575592E-2,-2.505111694E-2
4.836898528E2,1.803458333E-1,-3.173017502E-2,7.986545563E-2
4.841898528E2,-2.722569704E-1,1.108264923E-2,-5.800247192E-2
4.846898528E2,-1.243886948E-1,-3.871436119E-1,1.135883331E-1
4.851898528E2,-8.834838867E-2,-2.145586014E-1,8.057594299E-2
4.856898528E2,-1.889884472E-3,6.412744522E-3,-9.581565857E-3
4.861898528E2,1.366609335E-1,7.977819443E-2,-3.089141846E-2
4.866898528E2,1.488480568E-1,1.891407967E-1,-1.267175674E-1
4.871898528E2,6.492835283E-2,7.506728172E-2,-3.306865692E-2
4.876898528E2,-6.668627262E-3,-4.844903946E-3,2.358436584E-3
4.881898528E2,-2.571225166E-3,-6.353378296E-3,-1.209735870E-2
4.886898528E2,-3.782451153E-3,-5.405545235E-2,3.994083405E-2
4.891898528E2,1.057541370E-2,-2.090883255E-2,5.879497528E-2
4.896898528E2,2.408456802E-2,-4.391908646E-3,5.087852478E-3
4.901898528E2,1.932859421E-3,9.328126907E-3,6.722450256E-3
4.906898528E2,4.485905170E-3,1.611876488E-2,-3.394126892E-3
4.911898528E2,8.557438850E-4,-5.906581879E-3,1.492118835E-2
4.916898528E2,4.239082336E-3,4.060864449E-2,-1.866340637E-2
4.921898528E2,-5.082726479E-3,-2.900600433E-2,5.657291412E-2
4.926898528E2,6.763815880E-3,9.813308716E-4,-9.785652161E-3
4.931898528E2,-3.569245338E-3,-1.063179970E-2,1.150035858E-2
4.936898528E2,1.444721222E-2,1.235413551E-2,7.371902466E-4
4.941898528E2,8.141517639E-3,-1.689171791E-2,4.678726196E-3
4.946898528E2,1.804745197E-2,1.017403603E-2,-1.623439789E-2
4.951898528E2,-8.306741714E-3,-1.133441925E-3,-7.527351379E-3
4.956898528E2,-1.314389706E-2,-1.192021370E-2,1.260757446E-2
4.961898528E2,-1.444733143E-2,-1.663446426E-3,-4.537582397E-3
4.966898528E2,7.661700249E-3,-1.121759415E-3,-1.206111908E-2
4.971898528E2,-7.276177406E-3,-1.061749458E-2,-9.461402893E-3
4.976898528E2,-2.169370651E-3,-1.716613770E-5,-1.261806488E-2
4.981898528E2,3.073132038E-2,1.777338982E-2,-7.454872131E-3
4.986898528E2,-2.688527107E-3,-9.220838547E-3,-1.144409180E-5
4.991898528E2,-2.205502987E-2,-1.891064644E-2,1.059913635E-2
4.996898528E2,1.376783848E-2,-3.344535828E-3,6.632804871E-3
5.001898528E2,3.857035041E-1,4.468441010E-2,5.607891083E-2
5.006898528E2,2.145152390E-1,-6.319046021E-3,6.907749176E-2
5.011898528E2,7.259424031E-2,-3.183531761E-2,3.707408905E-2
5.016898528E2,6.054843962E-2,1.224279404E-2,1.471996307E-2
5.021898528E2,1.616947353E-2,5.256175995E-3,-9.145736694E-4
5.026898528E2,6.854608655E-3,5.903482437E-3,-1.257991791E-2
5.031898528E2,4.764109850E-3,2.948546410E-2,-1.113891602E-2
5.036898528E2,5.316883326E-3,2.442622185E-2,-6.957054138E-3
5.041898528E2,-7.679909468E-3,-2.978086472E-3,-2.104759216E-3
5.046898528E2,-6.915330887E-4,-1.767134666E-2,-4.891395569E-3
5.051898528E2,-9.978502989E-3,1.606774330E-2,7.138252258E-3
5.056898528E2,1.379808784E-2,7.184743881E-3,2.431869507E-3
5.061898528E2,3.141433001E-3,-5.911064148E-2,1.775646210E-2
5.066898528E2,1.620253921E-2,1.737999916E-2,-3.318595886E-2
5.071898528E2,-1.489680409E-1,6.586790085E-3,-9.426116943E-3
5.076898528E2,-1.370393634E-1,-2.049183846E-2,-1.856422424E-2
5.081898528E2,-7.005196810E-2,2.220773697E-2,-3.018283844E-2
5.086898528E2,-6.699293852E-2,1.824069023E-2,9.580612183E-3
5.091898528E2,-3.761577606E-2,3.584313393E-2,-2.423477173E-2
5.096898528E2,-4.644501209E-2,8.679151535E-3,-3.780937195E-2
5.101898528E2,-5.857348442E-2,-7.146286964E-2,-6.727218628E-3
5.106898528E2,-1.174056530E-2,-2.140998840E-2,-3.770828247E-2
5.111898528E2,-1.214349270E-2,2.022981644E-3,-1.063346863E-2
5.116898528E2,-2.377021313E-2,4.145789146E-2,9.062767029E-3
5.121898528E2,-6.160855293E-3,-3.547739983E-2,-2.155017853E-2
5.126898528E2,-1.714539528E-2,-3.452336788E-2,2.727222443E-2
5.131898528E2,-1.388967037E-2,2.885246277E-2,3.408432007E-2
5.136898528E2,-2.360212803E-2,-1.367890835E-2,-1.380920410E-3
5.141898528E2,2.265810966E-3,2.094972134E-2,1.133632660E-2
5.146898528E2,1.159489155E-2,-2.326786518E-2,5.109786987E-3
5.151898528E2,-1.355409622E-2,6.627154350E-2,1.077842712E-2
5.156898528E2,-1.776874065E-2,5.258488655E-2,1.771450043E-2
5.161898528E2,9.969592094E-3,4.527783394E-2,-1.328659058E-2
5.166898528E2,-2.166163921E-2,3.214550018E-2,-1.961803436E-2
5.171898528E2,-3.718614578E-2,2.968955040E-2,1.446723938E-2
5.176898528E2,-2.873839140E-1,1.061382294E-1,-4.842853546E-2
5.181898528E2,-3.373818398E-1,-4.877567291E-2,1.913166046E-2
5.186898528E2,1.080552340E-1,-4.565906525E-2,6.723785400E-2
5.191898528E2,-9.881734848E-3,5.271744728E-2,2.879714966E-2
5.196898528E2,-4.174876213E-2,4.147076607E-2,-4.102325439E-2
5.201898528E2,2.506182194E-1,-5.667757988E-2,5.582332611E-2
5.206898528E2,3.949880600E-3,-8.684992790E-2,3.497600555E-2
5.211898528E2,-2.081892490E-1,-1.154528856E-1,-4.022789001E-2
5.216898528E2,-7.971620560E-2,-1.765823364E-2,1.832675934E-2
5.221898528E2,-6.376051903E-2,-2.494299412E-2,4.252147675E-2
5.226898528E2,-1.177644730E-2,-3.627479076E-2,6.920814514E-3
5.231898528E2,-1.810073853E-3,2.969384193E-2,-5.327224731E-3
5.236898528E2,-4.202103615E-2,-1.010692120E-2,-6.810855865E-2
5.241898528E2,7.852578163E-2,-2.982139587E-2,2.069473267E-3
5.246898528E2,6.583881378E-2,-2.814412117E-3,1.528739929E-3
5.251898528E2,8.050608635E-2,7.402777672E-3,2.423095703E-2
5.256898528E2,7.946014404E-2,-7.621765137E-3,1.982784271E-2
5.261898528E2,1.004767418E-1,3.931200504E-2,1.953220367E-2
5.266898528E2,-2.276639938E-1,6.747806072E-2,-2.697086334E-2
5.271898528E2,-1.017123461E-1,4.684782028E-2,-5.108833313E-3
5.276898528E2,5.026078224E-2,-1.129118204E-1,4.807949066E-2
5.281898528E2,-2.898931503E-3,-4.551744461E-2,1.255607605E-2
5.286898528E2,4.240727425E-2,6.410968304E-2,-1.170635223E-2
5.291898528E2,-3.541731834E-2,-2.872622013E-2,5.332756042E-2
5.296898528E2,5.971193314E-3,3.755271435E-2,-5.000114441E-3
5.301898528E2,1.230604649E-1,5.363237858E-2,-3.567790985E-2
5.306898528E2,3.995633125E-2,2.618545294E-2,-1.148681641E-1
5.311898528E2,2.872490883E-2,-9.735780954E-2,1.846599579E-2
5.316898528E2,-1.107835770E-2,1.664751172E-1,3.915405273E-2
5.321898528E2,-2.470223904E-1,7.897466421E-2,1.606750488E-2
5.326898528E2,-4.149580002E-2,9.249752760E-2,2.898502350E-2
5.331898528E2,-2.707314491E-2,8.502089977E-2,-2.288818359E-5
5.336898528E2,-3.536128998E-2,8.433318138E-2,1.811027527E-2
5.341898528E2,-2.862691879E-2,5.536401272E-2,-2.424144745E-2
5.346898528E2,-4.719424248E-2,2.253186703E-2,5.762004852E-2
5.351898528E2,-3.952550888E-2,-3.705394268E-2,-1.976490021E-2
5.356898528E2,-5.904030800E-2,-7.143640518E-2,4.812526703E-2
5.361898528E2,-3.562426567E-2,1.814961433E-3,-6.600093842E-2
5.366898528E2,-7.857418060E-2,-4.112863541E-2,-8.826732635E-2
5.371898528E2,-6.714582443E-3,5.132138729E-2,1.558971405E-2
5.376898528E2,-1.498270035E-2,1.807141304E-2,1.128292084E-2
5.381898528E2,-2.414987087E-1,-3.798830509E-2,-6.396198273E-2
5.386898528E2,-1.088421345E-1,-8.007884026E-3,-4.736804962E-2
5.391898528E2,3.794813156E-2,-4.090309143E-3,7.846832275E-2
5.396898528E2,5.597329140E-2,3.955805302E-2,5.963611603E-2
5.401898528E2,-2.531528473E-2,-1.342912912E-1,-3.312969208E-2
5.406898528E2,3.977584839E-2,-3.456056118E-2,-1.391220093E-2
5.411898528E2,-7.873654366E-2,-5.279630423E-2,-3.729915619E-2
5.416898528E2,-8.370566368E-2,-2.439516783E-2,-4.692268372E-2
5.421898528E2,-4.521369934E-3,-4.539561272E-2,-4.641628265E-2
5.426898528E2,1.141750813E-1,-4.130005836E-4,4.066944122E-2
5.431898528E2,-2.745437622E-2,-1.137066483E-1,2.469348907E-2
5.436898528E2,4.585623741E-2,5.533981323E-2,-1.894950867E-2
5.441898528E2,2.024765015E-1,-9.461051226E-2,1.216096878E-1
5.446898528E2,-2.108025551E-2,4.245305061E-2,1.333522797E-2
5.451898528E2,-5.283832550E-3,-6.323534250E-2,-1.658725739E-2
5.456898528E2,3.319573402E-2,-7.884556055E-2,-7.678985596E-3
5.461898528E2,-3.429124355E-1,-5.075752735E-3,-1.201820374E-2
5.466898528E2,3.060073853E-1,1.060919762E-1,7.536888123E-3
5.471898528E2,1.972341537E-2,2.800226212E-2,2.625370026E-2
5.476898528E2,3.457295895E-1,-1.034018397E-1,1.129407883E-1
5.481898528E2,-1.703326702E-1,1.606475115E-1,3.128719330E-2
5.486898528E2,1.057386398E-2,-2.160322666E-2,8.630847931E-2
5.491898528E2,-6.255817413E-2,4.853039980E-2,-3.306865692E-2
5.496898528E2,-1.718432903E-1,-1.649358869E-1,-2.515983582E-2
5.501898528E2,1.708841324E-1,9.953916073E-3,1.088409424E-1
5.506898528E2,-4.983377457E-2,-3.384888172E-2,5.870819092E-3
5.511898528E2,3.423666954E-2,2.763211727E-3,1.147556305E-2
5.516898528E2,1.290130615E-2,4.547894001E-3,3.452301025E-4
5.521898528E2,-4.751300812E-2,1.759260893E-2,-2.550601959E-2
5.526898528E2,-1.139178276E-1,-1.820009947E-2,-4.390239716E-2
5.531898528E2,1.385662556E-1,2.122062445E-2,2.911090851E-2
5.536898528E2,-3.975129128E-2,-5.632114410E-2,-1.931190491E-2
5.541898528E2,-1.942229271E-2,-9.680449963E-3,-1.747131348E-3
5.546898528E2,3.074955940E-2,3.604167700E-2,-9.452819824E-3
5.551898528E2,-3.514885902E-2,-2.564191818E-2,5.479812622E-3
5.556898528E2,5.818200111E-2,4.310870171E-2,1.051902771E-2
5.561898528E2,-6.801104546E-2,3.555303812E-2,-2.690029144E-2
5.566898528E2,-2.586221695E-2,-2.648198605E-2,-9.180068970E-3
5.571898528E2,1.063883305E-1,3.327065706E-2,1.579761505E-2
5.576898528E2,-1.424248219E-1,-7.444453239E-2,-1.139545441E-2
5.581898528E2,5.304217339E-2,7.198196650E-2,-6.323814392E-3
5.586898528E2,1.291987896E-1,9.124892950E-2,-7.326126099E-3
5.591898528E2,-1.533670425E-1,-1.257646680E-1,2.761840820E-3
5.596898528E2,6.055116653E-2,9.606671333E-2,2.453136444E-2
5.601898528E2,1.884460449E-3,-2.919435501E-4,2.447128296E-3
5.606898528E2,6.676101685E-2,-2.830713987E-2,1.641178131E-2
5.611898528E2,-3.834986687E-2,1.340746880E-2,-6.482124329E-3
5.616898528E2,-3.034090996E-2,8.592069149E-3,-8.181571960E-3
5.621898528E2,2.832818031E-2,-4.855394363E-3,7.016181946E-3
5.626898528E2,1.837968826E-3,5.315721035E-2,1.008605957E-2
5.631898528E2,-2.083945274E-2,-3.855586052E-3,-6.298065186E-3
5.636898528E2,-2.050328255E-2,-1.618919969E-1,6.618690491E-2
5.641898528E2,2.013900280E-1,6.227195263E-2,1.784610748E-2
5.646898528E2,-1.228971481E-1,-9.075611830E-2,1.178073883E-2
5.651898528E2,1.074573994E-1,-4.758071899E-2,4.070281982E-2
5.656898528E2,4.537200928E-2,6.036341190E-3,3.158283234E-2
5.661898528E2,2.235698700E-2,8.045077324E-3,7.469177246E-3
5.666898528E2,2.654051781E-2,1.214194298E-2,7.958412170E-3
5.671898528E2,-3.534722328E-2,-4.203581810E-2,2.337455750E-3
5.676898528E2,1.468014717E-2,-8.308470249E-3,7.173538208E-3
5.681898528E2,5.036830902E-3,8.376777172E-3,-1.311302185E-3
5.686898528E2,-2.437067032E-2,-6.967961788E-3,1.633644104E-3
5.691898528E2,4.947423935E-3,8.903861046E-3,4.189491272E-3
5.696898528E2,-3.622055054E-3,3.275543451E-2,3.476142883E-3
5.701898528E2,-3.539943695E-2,-1.300191879E-2,-2.171421051E-2
5.706898528E2,6.724357605E-3,-8.475720882E-3,-1.626014709E-3
5.711898528E2,5.285739899E-4,1.347386837E-2,1.788043976E-2
5.716898528E2,6.308794022E-3,5.975663662E-3,-7.986068726E-3
5.721898528E2,2.048730850E-3,-3.668069839E-4,4.866600037E-3
5.726898528E2,-6.555318832E-3,-5.070924759E-3,9.528160095E-3
5.731898528E2,8.349180222E-3,6.198287010E-4,-8.392333984E-4
5.736898528E2,3.466606140E-4,2.587950230E-2,4.671096802E-3
5.741898528E2,-1.135134697E-2,-1.191961765E-2,1.258850098E-4
5.746898528E2,1.330351830E-2,-5.255639553E-3,7.318496704E-3
5.751898528E2,9.402990341E-3,-4.925072193E-3,-6.792068481E-3
5.756898528E2,-1.256442070E-2,1.039272547E-2,-5.273818970E-3
5.761898528E2,1.072907448E-2,7.262945175E-3,6.126403809E-3
5.766898528E2,1.487588882E-2,-2.892315388E-3,8.325576782E-4
5.771898528E2,9.599447250E-3,6.765127182E-3,-1.172447205E-2
5.776898528E2,1.096725464E-5,-7.887899876E-3,-4.115104675E-3
5.781898528E2,-2.087306976E-2,-8.620679379E-3,1.481056213E-3
5.786898528E2,2.584004402E-2,4.682004452E-3,3.036499023E-3
5.791898528E2,-4.499697685E-2,-8.170545101E-3,1.599311829E-3
5.796898528E2,2.335619926E-2,6.107264757E-2,-3.429698944E-2
5.801898528E2,-3.959822655E-2,-1.883381605E-2,-1.585578918E-2
5.806898528E2,1.539373398E-2,3.462600708E-2,-7.687568665E-3
5.811898528E2,-8.744835854E-2,8.962333202E-3,-2.053165436E-2
5.816898528E2,4.003977776E-2,-5.179041624E-2,1.859188080E-2
5.821898528E2,-1.041438580E-1,-1.081228256E-3,-4.184436798E-2
5.826898528E2,2.444958687E-2,3.235501051E-2,-7.228851318E-3
5.831898528E2,2.134013176E-2,4.240506887E-2,-2.558708191E-3
5.836898528E2,7.744693756E-2,3.981989622E-2,-3.181457520E-3
5.841898528E2,2.857828140E-2,-4.079204798E-2,5.669593811E-3
5.846898528E2,-1.036276817E-1,4.595690966E-2,-7.209110260E-2
5.851898528E2,1.970314980E-2,5.359154940E-2,-1.148605347E-2
5.856898528E2,6.763291359E-2,2.481299639E-2,1.864433289E-2
5.861898528E2,-7.340955734E-2,-4.104936123E-2,-1.081562042E-2
5.866898528E2,8.093905449E-2,6.417912245E-2,-6.361961365E-3
5.871898528E2,-4.952168465E-2,-3.203111887E-2,6.867408752E-3
5.876898528E2,5.016636848E-2,2.425938845E-2,1.786804199E-2
5.881898528E2,-3.119683266E-2,-1.592618227E-2,-6.407737732E-3
5.886898528E2,1.329517365E-2,-1.759099960E-2,6.550788879E-3
5.891898528E2,4.311503172E-1,-1.810646057E-1,1.297311783E-1
5.896898528E2,2.180466652E-1,-1.907619238E-1,1.182270050E-1
5.901898528E2,2.612301111E-1,-4.259017110E-2,3.627872467E-2
5.906898528E2,7.325708866E-2,-4.900833964E-2,4.868602753E-2
5.911898528E2,6.102454662E-2,3.174340725E-2,-5.131721497E-3
5.916898528E2,4.790270329E-2,1.709640026E-2,-7.709503174E-3
5.921898528E2,-7.321536541E-2,-1.902401447E-2,5.997657776E-3
5.926898528E2,-1.322031021E-4,1.870989799E-2,-9.750366211E-3
5.931898528E2,7.881712914E-2,2.629613876E-2,3.318786621E-3
5.936898528E2,-5.693078041E-3,-1.519334316E-2,5.110740662E-3
5.941898528E2,-1.359987259E-2,-2.534478903E-3,1.630783081E-2
5.946898528E2,-2.048122883E-2,-9.810268879E-3,7.644653320E-3
5.951898528E2,1.049852371E-2,2.032420039E-2,-1.894950867E-3
5.956898528E2,1.490104198E-2,1.090198755E-2,-2.711296082E-3
5.961898528E2,6.467103958E-3,-4.170110822E-2,-5.858421326E-3
5.966898528E2,-3.639268875E-2,-4.912018776E-3,-2.084636688E-2
5.971898528E2,-6.496751308E-2,4.426956177E-2,-1.321029663E-2
5.976898528E2,-4.619407654E-2,2.826350927E-2,-1.973342896E-2
5.981898528E2,-5.910861492E-2,-2.263033390E-2,-3.252506256E-2
5.986898528E2,-5.145967007E-2,2.103269100E-3,1.035404205E-2
5.991898528E2,-4.957103729E-2,-1.302903891E-2,-9.406089783E-3
5.996898528E2,-3.507447243E-2,3.094685078E-2,2.175140381E-2
6.001898528E2,-6.455922127E-2,-7.616168261E-2,5.309295654E-2
6.006898528E2,-4.688262939E-2,2.273595333E-2,-4.541683197E-2
6.011898528E2,-4.895532131E-2,-8.821743727E-2,3.957748413E-3
6.016898528E2,-2.068650723E-2,4.258900881E-2,1.960277557E-2
6.021898528E2,3.772842884E-2,-5.185782909E-3,2.334690094E-2
6.026898528E2,-9.591603279E-2,-9.128671885E-2,-1.402187347E-2
6.031898528E2,5.187630653E-2,-8.725941181E-3,-3.376960754E-3
6.036898528E2,-1.254234314E-1,-8.293372393E-2,-1.511573792E-2
6.041898528E2,5.108356476E-2,-2.036580443E-2,7.534027100E-5
6.046898528E2,-1.098668575E-1,-5.120998621E-2,-7.197380066E-3
6.051898528E2,-1.049635410E-1,-3.391575813E-2,-3.197956085E-2
6.056898528E2,-1.118659973E-2,8.309140801E-2,4.592990875E-2
6.061898528E2,1.055129766E-1,3.801193833E-2,6.771945953E-2
6.066898528E2,1.375877857E-2,9.304881096E-3,6.193637848E-2
6.071898528E2,-9.280252457E-2,1.159651279E-1,-4.468059540E-2
6.076898528E2,-5.173840523E-1,3.339731395E-1,-1.662607193E-1
6.081898528E2,-3.864121437E-2,1.789521575E-1,1.468372345E-2
6.086898528E2,8.295416832E-2,1.112293005E-1,9.264564514E-2
6.091898528E2,1.245086193E-1,1.292914152E-2,3.497123718E-3
6.096898528E2,4.405570030E-2,5.439668894E-2,6.010913849E-2
6.101898528E2,2.394628525E-2,6.442034245E-2,-3.819942474E-2
6.106898528E2,2.012491226E-2,4.887247086E-2,-2.288818359E-3
6.111898528E2,3.555631638E-2,1.182198524E-2,-4.184722900E-2
6.116898528E2,-6.610226631E-2,-2.735257149E-3,-4.985904694E-2
6.121898528E2,1.063134670E-1,-5.825674534E-2,5.354881287E-3
6.126898528E2,4.385828972E-2,-5.357456207E-2,4.159450531E-2
6.131898528E2,-1.314613819E-1,-2.028727531E-2,-5.167961121E-2
6.136898528E2,-3.140060902E-1,-1.620411873E-3,-6.665134430E-2
6.141898528E2,2.121274471E-1,-3.779697418E-2,1.026868820E-1
6.146898528E2,1.331188679E-1,-4.060041904E-2,5.966281891E-2
6.151898528E2,8.356809616E-3,-9.489238262E-3,1.179409027E-2
6.156898528E2,-2.549433708E-2,-5.012539029E-2,5.188083649E-2
6.161898528E2,4.932975769E-2,7.210785151E-2,7.822990417E-3
6.166898528E2,-6.790876389E-3,9.615308046E-2,-1.605319977E-2
6.171898528E2,3.508996964E-2,2.815783024E-3,-1.174354553E-2
6.176898528E2,1.750755310E-2,7.029896975E-2,-1.721382141E-3
6.181898528E2,1.437640190E-2,7.974761724E-2,-1.648712158E-2
6.186898528E2,-3.824949265E-3,8.735406399E-2,1.527214050E-2
6.191898528E2,1.028969288E-1,5.352586508E-2,2.745914459E-2
6.196898528E2,1.502176523E-1,-6.115913391E-3,1.075839996E-2
6.201898528E2,5.980670452E-2,-2.244877815E-2,-8.614540100E-3
6.206898528E2,-3.002126217E-1,-2.047721744E-1,2.470016479E-3
6.211898528E2,-6.640708447E-2,4.810738564E-2,-2.836608887E-2
6.216898528E2,-1.672953367E-1,2.030831575E-1,-4.183101654E-2
6.221898528E2,-6.858766079E-2,7.151997089E-2,-1.239776611E-5
6.226898528E2,2.927005291E-2,-4.365956783E-2,4.549217224E-2
6.231898528E2,4.431009293E-4,-2.797329426E-2,7.253646851E-2
6.236898528E2,2.179729939E-2,4.521405697E-2,9.183883667E-3
6.241898528E2,-2.581596375E-2,-3.586745262E-2,-7.750511169E-3
6.246898528E2,-1.570951939E-2,5.211472511E-3,1.456642151E-2
6.251898528E2,-1.094448566E-2,-2.928936481E-2,3.814697266E-4
6.256898528E2,3.849387169E-3,2.597510815E-2,-3.166198730E-4
6.261898528E2,1.178494692E-1,-5.814588070E-2,-1.201057434E-2
6.266898528E2,4.668593407E-3,6.529092789E-4,-1.292705536E-2
6.271898528E2,4.591774940E-2,-2.240180969E-2,7.245063782E-3
6.276898528E2,-8.983659744E-2,1.081573963E-2,7.400512695E-4
6.281898528E2,-3.827142715E-2,-1.142382622E-3,-3.380775452E-2
6.286898528E2,-1.284003258E-2,2.745723724E-2,-5.120944977E-2
6.291898528E2,-2.189600468E-2,2.680766582E-2,-8.944511414E-3
6.296898528E2,-8.312821388E-3,1.249766350E-2,-5.493164062E-3
6.301898528E2,4.585385323E-3,6.018805504E-2,-2.169609070E-2
6.306898528E2,-1.429188251E-2,-8.315461874E-2,-1.670360565E-2
6.311898528E2,8.341026306E-2,1.949870586E-2,8.154582977E-2
6.316898528E2,2.588307858E-2,1.710748672E-2,1.835536957E-2
6.321898528E2,1.268577576E-2,-1.900589466E-2,-6.055068970E-2
6.326898528E2,1.311182976E-3,-3.607952595E-2,-7.504463196E-3
6.331898528E2,2.067166567E-2,1.313686371E-3,-3.250980377E-2
6.336898528E2,4.008585215E-2,2.668040991E-2,-8.321762085E-3
6.341898528E2,9.436547756E-2,-3.937679529E-2,-4.561424255E-3
6.346898528E2,1.874202490E-2,-5.021095276E-2,5.059051514E-2
6.351898528E2,-1.375937462E-2,7.028102875E-3,-9.800910950E-3
6.356898528E2,4.541832209E-2,4.200714827E-2,-2.815532684E-2
6.361898528E2,-4.784685373E-2,-2.590060234E-2,2.979946136E-2
6.366898528E2,-3.448301554E-2,-4.381477833E-3,1.554965973E-2
6.371898528E2,-3.019798994E-1,1.538332701E-1,-1.204061508E-1
6.376898528E2,-1.088123322E-1,3.928267956E-2,-9.436321259E-2
6.381898528E2,2.081960440E-1,-1.152659059E-1,6.910800934E-2
6.386898528E2,8.390879631E-2,-5.794626474E-2,-2.830505371E-3
6.391898528E2,-8.462786674E-3,1.823627949E-2,4.492759705E-3
6.396898528E2,-1.768469810E-3,-3.799468279E-2,2.465152740E-2
6.401898528E2,-2.654993534E-2,-4.273176193E-3,3.941440582E-2
6.406898528E2,2.395457029E-1,-5.606049299E-2,6.105709076E-2
6.411898528E2,-2.440822124E-2,7.403135300E-3,9.974479675E-3
6.416898528E2,1.170089841E-1,-4.977262020E-2,3.899478912E-2
6.421898528E2,5.375164747E-2,3.273713589E-2,-2.194118500E-2
6.426898528E2,2.031886578E-2,-7.501900196E-3,-2.911567688E-2
6.431898528E2,-2.680718899E-2,-5.629163980E-2,1.077175140E-2
6.436898528E2,6.520628929E-3,2.339440584E-2,2.064323425E-2
6.441898528E2,-3.510856628E-2,-4.734992981E-4,9.282112122E-3
6.446898528E2,-1.138794422E-2,-5.031484365E-2,-1.827526093E-2
6.451898528E2,-1.028859615E-2,-2.849757671E-3,3.696537018E-2
6.456898528E2,-2.607772350E-1,1.462079883E-1,-6.305217743E-2
6.461898528E2,-9.546875954E-3,1.081715822E-1,-2.748203278E-2
6.466898528E2,2.169276476E-1,-1.175172329E-1,-1.880168915E-2
6.471898528E2,1.041480303E-1,-6.107479334E-2,-2.916526794E-2
6.476898528E2,-1.307690144E-2,2.654516697E-2,-5.171775818E-3
6.481898528E2,6.558573246E-2,7.508295774E-2,-3.695487976E-3
6.486898528E2,9.133219719E-3,9.537035227E-2,2.835273743E-3
6.491898528E2,4.029428959E-2,2.066373825E-2,4.969692230E-2
6.496898528E2,3.206491470E-3,1.043124199E-1,3.286457062E-2
6.501898528E2,2.175229788E-2,1.004621983E-1,-3.478145599E-2
6.506898528E2,1.377607584E-1,1.049326658E-1,-1.434421539E-2
6.511898528E2,6.078022718E-2,-8.319258690E-3,-1.102447510E-2
6.516898528E2,1.376479864E-2,2.626180649E-4,-7.309150696E-2
6.521898528E2,-1.985609531E-3,-2.115488052E-2,-2.046680450E-2
6.526898528E2,-4.511791468E-2,-3.540456295E-2,8.839607239E-3
6.531898528E2,-4.400718212E-2,-8.995091915E-2,-5.004215240E-2
6.536898528E2,-2.772898674E-1,-4.080772400E-2,-7.931041718E-2
6.541898528E2,-1.296337843E-1,-9.779465199E-2,-3.608226776E-2
6.546898528E2,-9.787964821E-2,-1.268062592E-1,6.464672089E-2
6.551898528E2,-4.176902771E-2,-5.200469494E-2,-5.160808563E-2
6.556898528E2,2.824416161E-1,-1.880696416E-1,5.363559723E-2
6.561898528E2,-1.977157593E-2,-7.779580355E-2,-5.010414124E-2
6.566898528E2,-6.810593605E-2,-1.329690218E-2,3.455257416E-2
6.571898528E2,-1.208751202E-1,-2.171128988E-2,4.218769073E-2
6.576898528E2,8.121132851E-3,-8.313894272E-3,-4.574966431E-2
6.581898528E2,4.693663120E-2,2.202898264E-2,-9.860992432E-4
6.586898528E2,8.013331890E-2,2.586883307E-2,-4.497432709E-2
6.591898528E2,-1.455320120E-1,1.209479570E-2,-3.614044189E-2
6.596898528E2,-1.813483238E-2,-8.528411388E-3,-7.027530670E-2
6.601898528E2,-5.227780342E-2,2.222907543E-2,-5.192852020E-2
6.606898528E2,2.102589607E-2,2.181696892E-2,-1.672010422E-1
6.611898528E2,-3.969669342E-4,2.097939253E-1,2.075376511E-1
6.616898528E2,-5.516648293E-2,2.396976948E-2,1.764154434E-1
6.621898528E2,2.723956108E-2,-6.505590677E-2,1.100273132E-1
6.626898528E2,-8.996248245E-3,-8.421403170E-2,1.335287094E-1
6.631898528E2,-6.354403496E-2,-5.282890797E-2,-6.039619446E-2
6.636898528E2,4.057860374E-2,-2.976715565E-2,-3.952980042E-2
6.641898528E2,8.065533638E-2,2.002453804E-2,-3.409576416E-2
6.646898528E2,5.646467209E-3,-5.368471146E-3,4.446125031E-2
6.651898528E2,-2.520084381E-2,-5.800843239E-3,7.626056671E-2
6.656898528E2,-4.329276085E-2,-2.112019062E-2,1.627635956E-2
6.661898528E2,-1.771380901E-1,7.333719730E-2,-6.641864777E-2
6.666898528E2,-8.038520813E-3,3.704953194E-2,4.257202148E-3
6.671898528E2,1.006484032E-2,1.098561287E-2,-5.517005920E-3
6.676898528E2,-1.382327080E-2,2.753674984E-2,-2.633094788E-3
6.681898528E2,-6.564378738E-3,9.549975395E-3,2.072429657E-2
6.686898528E2,-8.594417572E-2,-4.560196400E-2,2.389335632E-2
6.691898528E2,3.788709641E-3,6.040453911E-3,4.529762268E-2
6.696898528E2,-3.909850121E-2,-7.271397114E-2,-2.861976624E-2
6.701898528E2,-7.782626152E-2,-1.791346073E-2,-1.955890656E-2
6.706898528E2,-4.275798798E-3,3.502130508E-3,9.717941284E-4
6.711898528E2,-1.853489876E-2,-3.379380703E-2,3.859519958E-2
6.716898528E2,4.449820518E-2,7.995486259E-3,-3.608894348E-2
6.721898528E2,-3.635883331E-2,-1.980340481E-2,-9.822845459E-5
6.726898528E2,4.318976402E-2,-2.322196960E-4,-3.060245514E-2
6.731898528E2,3.183293343E-2,4.239082336E-4,-1.392555237E-2
6.736898528E2,-5.576109886E-2,2.118480206E-2,-1.775360107E-2
6.741898528E2,-2.957105637E-2,-4.416060448E-2,5.390167236E-3
6.746898528E2,9.943485260E-3,1.053833961E-2,3.347396851E-4
6.751898528E2,-2.564167976E-2,-2.154541016E-2,1.421451569E-2
6.756898528E2,-3.646707535E-2,2.408754826E-2,-1.559734344E-2
6.761898528E2,2.181529999E-2,3.811419010E-2,-2.429008484E-3
6.766898528E2,-1.723504066E-2,-1.211631298E-2,-1.328277588E-2
6.771898528E2,2.914547920E-2,2.444422245E-2,1.805782318E-2
6.776898528E2,5.276942253E-2,-7.483279705E-2,1.397705078E-2
6.781898528E2,2.942323685E-3,-1.569461823E-2,4.384994507E-3
6.786898528E2,6.440830231E-2,-1.880514622E-2,1.147747040E-2
6.791898528E2,2.438497543E-2,1.541233063E-2,4.816055298E-4
6.796898528E2,3.149509430E-4,-3.930211067E-3,-4.401206970E-3
6.801898528E2,1.032662392E-2,1.147890091E-2,-2.877235413E-3
6.806898528E2,-9.076166153E-2,4.604780674E-2,-1.920795441E-2
6.811898528E2,-5.694222450E-2,2.223789692E-2,-1.831531525E-2
6.816898528E2,-1.579666138E-2,-1.249098778E-2,-1.227951050E-2
6.821898528E2,1.272201538E-2,-1.981139183E-3,5.235671997E-4
6.826898528E2,4.025220871E-3,5.601525307E-3,-4.011154175E-3
6.831898528E2,-1.245331764E-2,-3.611207008E-3,-1.794242859E-2
6.836898528E2,3.520274162E-2,-2.806437016E-2,1.660060883E-2
6.841898528E2,1.382431984E-1,-4.139792919E-2,4.341793060E-2
6.846898528E2,2.958083153E-2,-7.108569145E-3,1.133632660E-2
6.851898528E2,8.164572716E-2,-3.793776035E-2,2.686023712E-2
6.856898528E2,2.192590237E-1,-1.509035826E-1,8.272743225E-2
6.861898528E2,-2.496249676E-1,3.441751003E-2,-3.797435760E-2
6.866898528E2,1.209275723E-1,-1.360005140E-2,3.478717804E-2
6.871898528E2,1.230883598E-2,-2.002388239E-2,1.519489288E-2
6.876898528E2,6.332397461E-3,2.926969528E-2,-1.767158508E-3
6.881898528E2,-2.017712593E-2,-1.602393389E-2,-6.681442261E-3
6.886898528E2,-8.792161942E-3,-1.897007227E-2,2.401542664E-2
6.891898528E2,3.469586372E-2,7.221400738E-3,2.046775818E-2
6.896898528E2,1.237273216E-2,3.055757284E-2,-1.059818268E-2
6.901898528E2,1.249790192E-3,-2.005952597E-2,-2.053546906E-2
6.906898528E2,8.576869965E-3,2.853733301E-2,2.342796326E-2
6.911898528E2,-5.988121033E-3,-2.754080296E-2,3.336429596E-2
6.916898528E2,8.224248886E-3,1.576989889E-2,7.794380188E-3
6.921898528E2,1.321816444E-2,-1.277899742E-2,-2.238559723E-2
6.926898528E2,1.221013069E-2,-3.137683868E-2,-4.749298096E-3
6.931898528E2,-8.356571198E-4,7.281959057E-3,-2.828598022E-3
6.936898528E2,8.611679077E-4,3.813683987E-3,-1.006126404E-2
6.941898528E2,2.332687378E-3,-1.369446516E-2,6.208419800E-3
6.946898528E2,8.027553558E-4,1.711159945E-2,7.649421692E-3
6.951898528E2,-8.306503296E-4,4.248917103E-3,-8.292198181E-3
6.956898528E2,-1.358413696E-2,-2.125549316E-2,5.454063416E-3
6.961898528E2,-5.988359451E-3,6.500959396E-3,1.163482666E-3
6.966898528E2,2.094674110E-2,-2.982735634E-3,1.266479492E-2
6.971898528E2,-3.425669670E-2,9.292840958E-3,-2.349948883E-2
6.976898528E2,-1.484903097E-1,-3.593510389E-2,-2.592754364E-2
6.981898528E2,-1.466392279E-1,-2.505308390E-2,-2.755260468E-2
6.986898528E2,1.355153322E-1,-8.726119995E-4,2.490901947E-2
6.991898528E2,1.708519459E-2,6.866574287E-3,9.280204773E-3
6.996898528E2,1.056730747E-2,1.634514332E-2,-5.435943604E-5
7.001898528E2,3.265976906E-3,3.093242645E-3,1.699447632E-3
7.006898528E2,-4.204750061E-3,1.510262489E-3,2.813339233E-3
7.011898528E2,1.044261456E-2,1.348185539E-2,-5.352973938E-3
7.016898528E2,1.023173332E-2,1.183760166E-2,2.587318420E-3
7.021898528E2,-6.300806999E-3,-4.268527031E-3,3.875732422E-3
7.026898528E2,1.632332802E-3,-1.636958122E-2,3.457069397E-3
7.031898528E2,-3.081321716E-3,2.283453941E-3,-3.862380981E-4
7.036898528E2,-5.137801170E-3,1.178026199E-3,-1.423835754E-3
7.041898528E2,-4.180192947E-3,-6.341099739E-3,4.647254944E-3
7.046898528E2,-1.007878780E-2,-4.929304123E-4,-1.510620117E-3
7.051898528E2,-5.147695541E-3,-1.742124557E-3,1.840591431E-3
7.056898528E2,1.590586305E-1,-1.088757515E-1,4.536151886E-2
7.061898528E2,3.532213569E-1,-8.702462912E-2,5.753421783E-2
7.066898528E2,1.349381208E-1,-2.432107925E-3,1.086711884E-2
7.071898528E2,5.111351609E-2,-2.500808239E-2,1.556301117E-2
7.076898528E2,2.712105215E-2,-2.051919699E-2,2.303123474E-3
7.081898528E2,1.576605886E-1,-5.819165707E-2,1.325607300E-2
7.086898528E2,-4.149014130E-3,3.677666187E-3,9.676933289E-3
7.091898528E2,7.632859051E-4,-7.292807102E-3,5.988121033E-3
7.096898528E2,-3.255679831E-2,2.318400145E-2,-1.119327545E-2
7.101898528E2,-4.721045494E-3,5.493223667E-3,-5.934715271E-3
7.106898528E2,1.116003096E-2,7.046878338E-3,-6.125450134E-3
7.111898528E2,2.905163914E-3,-3.616988659E-3,1.940727234E-3
7.116898528E2,1.008012146E-2,1.659572124E-2,-5.497932434E-3
7.121898528E2,1.142376289E-2,4.806756973E-3,-3.331184387E-3
7.126898528E2,-6.334897131E-3,-2.053171396E-2,9.814262390E-3
7.131898528E2,-9.828582406E-3,-8.520245552E-3,-1.152610779E-2
7.136898528E2,1.375671476E-2,4.593610764E-3,-1.982688904E-3
7.141898528E2,-9.490679204E-2,4.436254501E-3,2.411079407E-2
7.146898528E2,-5.357124284E-2,5.029380322E-3,-1.303672791E-3
7.151898528E2,-6.291729957E-2,-3.442162275E-2,1.685142517E-3
7.156898528E2,-3.105245531E-2,-3.469944000E-3,2.661705017E-3
7.161898528E2,-6.695933640E-2,-5.419409275E-2,-4.024505615E-4
7.166898528E2,-1.413660794E-1,-1.241692305E-1,-1.807403564E-2
7.171898528E2,-2.486160100E-1,3.294169903E-2,-4.267692566E-3
7.176898528E2,-2.880041003E-1,-1.133072376E-2,2.947807312E-3
7.181898528E2,-5.325821042E-2,-7.087671757E-2,1.402950287E-2
7.186898528E2,-1.171212494E-1,-5.187320709E-2,2.753257751E-3
7.191898528E2,6.308400631E-2,-7.735133171E-3,2.071857452E-2
7.196898528E2,-1.258374155E-1,-8.282816410E-2,-1.353645325E-2
7.201898528E2,-1.018308401E-1,3.943204880E-3,2.438831329E-2
7.206898528E2,1.622553766E-1,-1.510590911E-1,4.228687286E-2
7.211898528E2,5.015836656E-2,9.607672691E-3,3.954029083E-2
7.216898528E2,5.983139575E-2,-8.255320787E-2,1.405239105E-2
7.221898528E2,-7.150322199E-3,-1.065900326E-1,-1.301765442E-2
7.226898528E2,-5.988955498E-2,1.444715261E-2,1.014518738E-2
7.231898528E2,-6.955313683E-2,-5.240947008E-2,2.965927124E-4
7.236898528E2,-5.704176426E-2,1.317536831E-2,-3.712272644E-2
7.241898528E2,-1.356083155E-2,5.589526892E-2,1.930809021E-2
7.246898528E2,-6.740051508E-2,-8.205842972E-2,-9.692192078E-3
7.251898528E2,-5.021637678E-2,2.998709679E-4,5.516052246E-3
7.256898528E2,-4.522004724E-1,9.856402874E-2,-1.546602249E-1
7.261898528E2,-1.173089743E-1,-8.987188339E-4,1.875591278E-2
7.266898528E2,-1.148500443E-1,1.387953758E-2,1.806831360E-2
7.271898528E2,-1.229672432E-1,9.826838970E-2,3.441438675E-1
7.276898528E2,2.470523119E-1,-1.533836126E-2,5.290317535E-2
7.281898528E2,7.128190994E-2,4.965150356E-2,2.527236938E-3
7.286898528E2,-5.051493645E-2,-3.568422794E-2,-3.577327728E-2
7.291898528E2,-4.619421959E-1,2.825939655E-2,-1.699447632E-3
7.296898528E2,-1.795997620E-1,8.066856861E-2,1.805934906E-1
7.301898528E2,1.117907166E-1,5.265498161E-2,-1.335563660E-1
7.306898528E2,5.096852779E-2,9.555757046E-2,-2.924900055E-1
7.311898528E2,3.518849611E-2,2.617490292E-2,-5.584907532E-2
7.316898528E2,-2.597486973E-2,1.051762104E-1,-7.268428802E-2
7.321898528E2,-6.297588348E-2,-7.069659233E-2,9.088039398E-2
7.326898528E2,-1.387187243E-1,-3.786516190E-2,-1.738929749E-2
7.331898528E2,-4.865431786E-2,8.808100224E-2,1.560688019E-2
7.336898528E2,-1.296633482E-2,8.316779137E-2,-8.844089508E-2
7.341898528E2,-3.834599257E-2,-3.429353237E-2,-5.307102203E-2
7.346898528E2,-7.724398375E-2,5.878865719E-2,3.552722931E-2
7.351898528E2,3.096520901E-3,3.646981716E-2,-2.669248581E-1
7.356898528E2,2.127862573E-1,-2.292752266E-3,5.598926544E-2
7.361898528E2,-1.771842837E-1,-3.346002102E-2,-1.303672791E-3
7.366898528E2,-1.237064004E-1,4.226684570E-3,8.373546600E-2
7.371898528E2,1.822388172E-2,3.997802734E-3,-1.255159378E-1
7.376898528E2,-2.021777630E-2,1.256465912E-2,6.854438782E-2
7.381898528E2,-1.027842164E-1,5.326974392E-2,-1.590394974E-1
7.386898528E2,2.338376343E-1,-1.873695850E-2,-4.736900330E-3
7.391898528E2,7.019573450E-2,-1.789003611E-2,1.125326157E-1
7.396898528E2,-3.583965898E-1,3.819346428E-3,7.954216003E-2
7.401898528E2,3.028899431E-2,4.969608784E-2,5.702972412E-3
7.406898528E2,-2.448999882E-1,8.536922932E-2,-2.902202606E-1
7.411898528E2,1.433140039E-2,1.584614515E-1,1.411342621E-2
7.416898528E2,3.546444774E-1,-8.344769478E-2,7.281112671E-2
7.421898528E2,1.802569926E-1,-3.113973141E-2,-5.882263184E-2
7.426898528E2,-6.787562370E-2,1.940464973E-2,6.680297852E-2
7.431898528E2,-1.257624626E-1,2.114772797E-4,2.366075516E-1
7.436898528E2,-7.422769070E-2,1.443068981E-1,6.168174744E-2
7.441898528E2,-9.238421917E-3,6.202232838E-2,-9.890556335E-3
7.446898528E2,9.603148699E-2,1.449308395E-1,-3.352069855E-2
7.451898528E2,-7.042515278E-2,1.761913300E-4,-9.606075287E-2
7.456898528E2,2.672696114E-2,1.807273626E-1,9.283065796E-2
7.461898528E2,5.542451143E-2,1.624077559E-1,2.491092682E-2
7.466898528E2,-3.137272596E-2,-5.673742294E-2,-2.398586273E-2
7.471898528E2,9.413295984E-2,8.516561985E-2,5.351161957E-2
7.476898528E2,2.906048298E-2,2.750635147E-2,-7.893562317E-2
7.481898528E2,2.768003941E-2,5.321836472E-2,-2.077579498E-2
7.486898528E2,6.620794535E-3,7.289624214E-2,-2.160549164E-2
7.491898528E2,-5.043655634E-3,-2.544701099E-2,1.165008545E-2
7.496898528E2,-1.868963242E-3,-5.498588085E-2,-1.423549652E-2
7.501898528E2,7.737946510E-2,1.009842157E-1,-1.088809967E-2
7.506898528E2,-1.585791707E-1,-1.138591766E-2,5.364418030E-3
7.511898528E2,-6.445693970E-2,5.462145805E-2,-2.793312073E-2
7.516898528E2,-9.086352587E-2,5.053400993E-3,1.047592163E-1
7.521898528E2,-2.474218607E-2,6.107318401E-2,3.188419342E-2
7.526898528E2,1.584148407E-2,1.666569710E-2,-1.092767715E-1
7.531898528E2,8.161246777E-3,3.504943848E-2,-7.116317749E-3
7.536898528E2,-1.854001880E-1,4.793703556E-2,-3.032016754E-2
7.541898528E2,-2.906338573E-1,1.961869001E-1,-9.589862823E-2
7.546898528E2,-1.664278507E-1,-5.375325680E-2,-6.833553314E-2
7.551898528E2,-3.475880623E-2,-1.021369696E-1,7.744312286E-2
7.556898528E2,2.384189069E-1,-1.307425499E-1,5.898952484E-2
7.561898528E2,3.476494551E-1,-6.307220459E-2,1.126289368E-3
7.566898528E2,4.864278436E-2,-3.729701042E-3,1.534185410E-1
7.571898528E2,-2.983775735E-2,-6.577610970E-3,-6.974601746E-2
7.576898528E2,-5.342131853E-2,-1.739192009E-2,-3.398132324E-2
7.581898528E2,1.945257187E-2,-9.723901749E-4,-1.043577194E-1
7.586898528E2,1.761402190E-2,-9.954273701E-2,-1.434621811E-1
7.591898528E2,1.060709730E-1,1.078388691E-1,-2.337989807E-1
7.596898528E2,-2.215127647E-2,8.763432503E-3,-5.305767059E-2
7.601898528E2,-4.646331072E-2,-1.746475697E-2,9.943866730E-2
7.606898528E2,-5.475819111E-3,-8.515465260E-2,1.183605194E-2
7.611898528E2,1.371700764E-1,5.353415012E-2,-1.957435608E-1
7.616898528E2,1.047238857E-1,1.467114687E-1,-4.829120636E-2
7.621898528E2,1.650783420E-2,-9.982037544E-2,9.226322174E-2
7.626898528E2,8.934721351E-2,6.155097485E-2,-8.009624481E-2
7.631898528E2,-6.093934178E-2,1.114380360E-2,8.302116394E-2
7.636898528E2,2.803230286E-2,-7.221877575E-2,1.640424728E-1
7.641898528E2,9.317085147E-2,9.562170506E-2,-3.354721069E-1
7.646898528E2,-2.468881011E-2,9.124517441E-3,-2.414884567E-1
7.651898528E2,4.913045466E-2,7.501995564E-2,1.654558182E-1
7.656898528E2,-4.862184823E-2,2.933919430E-1,-3.768062592E-2
7.661898528E2,-5.385094881E-2,8.724761009E-2,-2.685451508E-2
7.666898528E2,-1.023662090E-1,1.477026939E-2,-4.307174683E-2
7.671898528E2,-6.862682104E-2,4.408407211E-2,-1.031103134E-1
7.676898528E2,6.278336048E-3,-2.088427544E-2,-2.820301056E-2
7.681898528E2,2.109688520E-2,-7.597661018E-2,-1.217689514E-1
7.686898528E2,-2.279704809E-2,-7.540225983E-3,-4.034042358E-4
7.691898528E2,-2.049297094E-2,-4.831576347E-2,3.440189362E-2
7.696898528E2,-8.141803741E-2,-1.336600780E-1,2.322511673E-1
7.701898528E2,-3.612047434E-2,-1.270798445E-1,2.344055176E-1
7.706898528E2,-2.368092537E-2,-9.212219715E-2,-1.995439529E-1
7.711898528E2,9.039342403E-3,-1.434099674E-2,-1.439514160E-1
7.716898528E2,-6.081968546E-2,-5.557298660E-3,1.279211044E-1
7.721898528E2,-3.824715614E-1,3.235030174E-2,-1.941394806E-2
7.726898528E2,-6.183981895E-3,2.941950560E-1,7.046680450E-1
7.731898528E2,5.338442326E-2,1.169294119E-1,3.538789749E-1
7.736898528E2,-1.967447996E-1,-2.138768435E-1,-6.532344818E-1
7.741898528E2,-1.294840574E-1,2.487778664E-3,2.142763138E-1
7.746898528E2,-1.928980350E-1,-9.298479557E-2,2.887239456E-1
7.751898528E2,2.846443653E-2,2.548122406E-2,4.592914581E-1
7.756898528E2,2.237493992E-1,1.438498497E-3,-6.877117157E-1
7.761898528E2,1.338101625E-1,1.595782042E-1,-5.262136459E-1
7.766898528E2,-7.558119297E-2,4.879295826E-2,2.272701263E-2
7.771898528E2,9.806835651E-2,-6.986093521E-2,-3.780889511E-1
7.776898528E2,9.943568707E-2,6.102287769E-2,-1.967153549E-1
7.781898528E2,-8.506119251E-2,-1.080161333E-1,8.615493774E-3
7.786898528E2,-3.803539276E-2,-2.303016186E-2,-1.786422729E-2
7.791898528E2,-1.743543148E-2,3.379309177E-2,1.470565796E-1
7.796898528E2,-1.881587505E-2,-1.857006550E-2,-5.300331116E-2
7.801898528E2,6.163108349E-2,-3.968369961E-2,-1.427421570E-1
7.806898528E2,1.289045811E-2,4.013776779E-4,7.717514038E-2
7.811898528E2,-4.971086979E-2,-3.274226189E-2,-5.274772644E-3
7.816898528E2,4.328489304E-4,9.535014629E-2,-1.181125641E-1
7.821898528E2,-4.850327969E-2,-5.901777744E-2,-6.512641907E-3
7.826898528E2,-1.475703716E-2,-9.659171104E-3,-4.115104675E-2
7.831898528E2,1.941478252E-2,-5.110931396E-2,1.997852325E-2
7.836898528E2,-1.987922192E-2,-1.241383553E-1,-1.136770248E-1
7.841898528E2,5.613219738E-2,1.136063337E-1,1.367387772E-1
7.846898528E2,-1.408898830E-2,-1.282466650E-1,-9.358787537E-2
7.851898528E2,5.120301247E-2,4.759395123E-2,5.793094635E-2
7.856898528E2,8.574366570E-3,-3.493821621E-2,-1.162729263E-1
7.861898528E2,9.029626846E-3,5.354011059E-2,-2.767848969E-2
7.866898528E2,-2.427986860E-1,-1.256084442E-2,-1.231737137E-1
7.871898528E2,-6.128501892E-2,-5.834817886E-3,4.877185822E-2
7.876898528E2,1.476167440E-1,-1.624703407E-2,3.045558929E-2
7.881898528E2,-2.377271652E-2,-4.296016693E-2,5.113983154E-2
7.886898528E2,1.516420841E-1,-1.482594013E-2,2.924442291E-2
7.891898528E2,-1.069550514E-1,7.909250259E-2,6.779670715E-2
7.896898528E2,-1.040589809E-1,-1.376626492E-1,1.069450378E-1
7.901898528E2,-7.072329521E-3,1.650980711E-1,2.764959335E-1
7.906898528E2,-1.014410257E-1,-3.040381670E-1,-1.954774857E-1
7.911898528E2,1.247426271E-1,2.323478460E-1,-4.659938812E-2
7.916898528E2,9.732663631E-2,-9.145212173E-2,-6.464576721E-2
7.921898528E2,-3.828811646E-2,8.139491081E-3,1.272096634E-1
7.926898528E2,2.264983654E-1,2.687585354E-1,-8.939266205E-2
7.931898528E2,-4.457247257E-2,-2.476371527E-1,-8.673954010E-2
7.936898528E2,5.634784698E-3,2.094660997E-1,9.425449371E-2
7.941898528E2,-9.688746929E-2,-7.248175144E-2,1.297903061E-1
7.946898528E2,1.316249371E-2,-3.397405148E-2,-5.287075043E-2
7.951898528E2,-1.099693775E-2,-4.322206974E-2,-5.685234070E-2
7.956898528E2,-1.484763622E-2,-6.977093220E-2,1.024436951E-2
7.961898528E2,6.246304512E-2,-2.066802979E-2,1.334667206E-2
7.966898528E2,-2.033174038E-2,-6.892240047E-2,-3.167915344E-2
7.971898528E2,-7.403886318E-2,8.909606934E-2,-6.157875061E-3
7.976898528E2,-5.227518082E-2,-4.843008518E-2,-1.196765900E-2
7.981898528E2,-2.109551430E-2,7.219588757E-2,3.649234772E-2
7.986898528E2,2.358603477E-2,1.599657536E-2,-7.300376892E-3
7.991898528E2,-2.979993820E-2,-6.258165836E-2,-1.627731323E-2
7.996898528E2,8.137583733E-3,1.796734333E-2,-4.561424255E-3
8.001898528E2,6.352460384E-2,1.488327980E-3,4.355525970E-2
8.006898528E2,2.637124062E-2,9.714365005E-4,3.786087036E-4
8.011898528E2,-3.991484642E-3,-1.341044903E-2,-4.036903381E-3
8.016898528E2,6.022334099E-3,1.315474510E-2,-1.180076599E-2
8.021898528E2,1.182297468E-1,-3.614771366E-2,2.742099762E-2
8.026898528E2,6.148803234E-2,-1.867496967E-2,6.730079651E-3
8.031898528E2,-2.085423470E-2,-2.709925175E-2,1.500606537E-2
8.036898528E2,-3.020846844E-2,-5.576252937E-3,-4.068946838E-2
8.041898528E2,1.361966133E-3,4.892587662E-3,-3.014850616E-2
8.046898528E2,-1.499259472E-2,1.436984539E-2,-1.989364624E-2
8.051898528E2,1.564979553E-3,-6.700038910E-3,-1.357173920E-2
8.056898528E2,2.245771885E-2,1.237773895E-2,8.671760559E-3
8.061898528E2,-2.012372017E-3,9.979963303E-3,4.015922546E-3
8.066898528E2,-7.787108421E-3,-2.446663380E-2,-3.703117371E-3
8.071898528E2,2.592921257E-2,2.417206764E-3,1.004219055E-2
8.076898528E2,-1.304781437E-2,2.101421356E-3,-1.477718353E-2
8.081898528E2,-2.108681202E-2,-4.620194435E-3,-8.772850037E-3
8.086898528E2,-1.095163822E-2,1.021134853E-2,-8.300781250E-3
8.091898528E2,-2.304637432E-2,2.446460724E-2,-1.266574860E-2
8.096898528E2,-1.119887829E-2,-1.244533062E-2,-9.445190430E-3
8.101898528E2,7.234334946E-3,-1.541650295E-2,-9.698867798E-4
8.106898528E2,1.369965076E-2,2.631664276E-3,-9.632110596E-4
8.111898528E2,1.404905319E-2,-5.234479904E-4,-1.461887360E-2
8.116898528E2,6.374239922E-3,-1.877403259E-2,-3.556251526E-3
8.121898528E2,4.291594028E-2,7.936477661E-3,7.442474365E-3
8.126898528E2,1.295316219E-2,9.030342102E-3,-6.518363953E-3
8.131898528E2,1.047265530E-2,-8.729696274E-4,-1.769065857E-3
8.136898528E2,2.857685089E-3,-2.234899998E-2,1.206111908E-2
8.141898528E2,6.504893303E-2,-1.265048981E-3,5.206108093E-3
8.146898528E2,1.137220860E-2,-1.520586014E-2,9.174346924E-4
8.151898528E2,2.360010147E-2,-8.680939674E-3,2.144813538E-3
8.156898528E2,1.620697975E-2,-8.264660835E-3,7.094383240E-3
8.161898528E2,2.491343021E-2,4.630088806E-3,3.283500671E-3
8.166898528E2,1.405119896E-3,7.045149803E-3,3.072738647E-3
8.171898528E2,-1.027119160E-2,3.778815269E-3,4.072189331E-4
8.176898528E2,7.748246193E-3,-1.504802704E-2,-1.258182526E-2
8.181898528E2,-2.819859982E-2,1.666212082E-2,-1.118469238E-2
8.186898528E2,-4.435431957E-2,7.689476013E-3,-1.415157318E-2
8.191898528E2,-7.157719135E-2,2.737116814E-2,-2.977657318E-2
8.196898528E2,-2.218735218E-2,2.906680107E-3,-1.186275482E-2
8.201898528E2,-4.251360893E-3,1.219308376E-2,-1.338958740E-3
8.206898528E2,-4.770028591E-2,1.165091991E-2,-4.552841187E-3
8.211898528E2,-6.875610352E-2,-1.321136951E-2,-1.469898224E-2
8.216898528E2,5.573284626E-2,-2.877461910E-2,-4.655838013E-3
8.221898528E2,7.829725742E-2,-2.072703838E-2,2.061939240E-2
8.226898528E2,5.291235447E-2,-2.726489305E-1,7.213306427E-2
8.231898528E2,-3.762540519E-1,-6.072688103E-2,-1.302251816E-1
8.236898528E2,2.121845931E-1,2.202351093E-1,-9.896183014E-2
