"Time (s)","Acceleration x (m/s^2)","Acceleration y (m/s^2)","Acceleration z (m/s^2)"
1.013689000E-2,1.499103427E0,6.713063717E0,8.347361565E0
3.114053600E-2,1.162911773E0,6.634698868E0,7.660023689E0
5.311405360E-1,4.642075896E-1,6.827919483E0,7.536194801E0
1.031140536E0,-4.773681164E-1,5.954539299E0,7.757531166E0
1.531140536E0,-6.640082598E-1,6.650850773E0,7.473981380E0
2.031140536E0,-3.720839322E-1,6.448058605E0,7.283751965E0
2.531140536E0,-2.679961324E-1,6.692126751E0,7.315456867E0
3.031140536E0,-2.309073806E-1,6.480959892E0,7.235895634E0
3.531140536E0,-2.667997181E-1,6.502495766E0,7.046264648E0
4.031140536E0,-3.792623878E-1,6.276971817E0,7.499105930E0
4.531140536E0,-3.942175210E-1,6.395416737E0,7.386045456E0
5.031140536E0,-1.704886109E-1,6.336194515E0,7.649255753E0
5.531140536E0,-2.249253243E-1,6.250052929E0,7.285546780E0
6.031140536E0,-2.171486616E-1,6.286543369E0,7.473981380E0
6.531140536E0,-2.488535494E-1,6.241677761E0,7.562515736E0
7.031140536E0,-5.144568533E-2,6.311069489E0,7.361518860E0
7.531140536E0,-2.213360928E-2,6.306283951E0,7.593024254E0
8.031140536E0,-1.579262912E-1,6.224329948E0,7.382455826E0
8.531140536E0,-4.965107143E-2,6.241677761E0,7.721040249E0
9.031140536E0,-6.999006122E-2,6.304489613E0,7.641479015E0
9.531140536E0,-3.026920557E-1,6.206982136E0,7.798807144E0
1.003114054E1,-2.697907388E-1,6.155536175E0,8.004590034E0
1.053114054E1,-3.385843933E-1,6.197410583E0,7.479963779E0
1.103114054E1,-3.798605800E-1,6.234499454E0,8.030312538E0
1.153114054E1,-2.662015259E-1,6.200999737E0,7.619943619E0
1.203114054E1,-4.582255483E-1,6.172286034E0,7.759325504E0
1.253114054E1,-4.749752879E-1,6.093322754E0,8.026723862E0
1.303114054E1,-2.937189937E-1,6.288337708E0,7.304090977E0
1.353114054E1,-4.085744619E-1,6.141777515E0,7.530810833E0
1.403114054E1,-2.667997181E-1,6.340980053E0,7.529016495E0
1.453114054E1,-3.014956415E-1,6.205187321E0,7.576872826E0
1.503114054E1,-3.337987661E-1,6.112465382E0,7.713263988E0
1.553114054E1,-3.912265003E-1,6.171687603E0,7.838887215E0
1.603114054E1,-2.997010350E-1,6.315855503E0,7.320840836E0
1.653114054E1,-3.768695593E-1,6.098108292E0,7.754539967E0
1.703114054E1,-2.566302419E-1,6.218348026E0,7.558328629E0
1.753114054E1,-3.924229145E-1,6.074778557E0,7.837690353E0
1.803114054E1,-4.612165689E-1,6.143572330E0,8.255238533E0
1.853114054E1,2.871387303E-1,5.895915031E0,7.246663570E0
1.903114054E1,-4.929214716E-1,5.332405090E0,8.759525299E0
1.953114054E1,1.800599098E-1,5.208576679E0,8.263014793E0
2.003114054E1,2.027917206E-1,5.150550842E0,8.507082939E0
2.053114054E1,-8.793623447E-1,5.728417397E0,7.872386456E0
2.103114054E1,-1.313061476E0,5.834897995E0,6.039484501E0
2.153114054E1,4.097708762E-1,4.351946354E0,9.491728783E0
2.203114054E1,3.320041299E-1,3.927818298E0,9.196215630E0
2.253114054E1,7.740781307E-1,3.562314749E0,8.907880783E0
2.303114054E1,3.290131092E-1,3.291327477E0,9.324232101E0
2.353114054E1,2.931207716E-1,3.244667530E0,9.277571678E0
2.403114054E1,6.364908218E-1,3.241078377E0,9.394221306E0
2.453114054E1,-3.649054468E-2,2.901895761E0,8.822935104E0
2.503114054E1,-3.529413417E-2,2.788236618E0,9.663414001E0
2.553114054E1,6.879365444E-2,2.826521635E0,9.521639824E0
2.603114054E1,-8.015955985E-2,2.608176708E0,9.306285858E0
2.653114054E1,-8.135596663E-2,2.638685226E0,9.766305923E0
2.703114054E1,-4.007977992E-2,2.663809776E0,9.402596474E0
2.753114054E1,-2.297109663E-1,2.619542599E0,9.306285858E0
2.803114054E1,-6.999006122E-2,2.548954248E0,9.427721024E0
2.853114054E1,-3.170489892E-2,2.657229662E0,9.402596474E0
2.903114054E1,-1.417747438E-1,2.553740025E0,9.828518867E0
2.953114054E1,2.572284266E-2,2.670390129E0,9.268598557E0
3.003114054E1,-5.922235921E-2,2.590230465E0,9.475577354E0
3.053114054E1,-1.399801224E-1,2.549552441E0,9.400801659E0
3.103114054E1,-1.100698411E-1,2.358126640E0,9.610772133E0
3.153114054E1,-5.144568533E-2,2.437089920E0,9.659226418E0
3.203114054E1,-1.818545163E-1,2.415554523E0,9.239286423E0
3.253114054E1,-1.519442350E-1,2.381456852E0,9.625128746E0
3.303114054E1,-1.758724600E-1,2.343769789E0,9.391230583E0
3.353114054E1,-5.383851007E-2,2.329412937E0,9.507282257E0
3.403114054E1,-1.848455518E-1,2.277967215E0,9.969695091E0
3.453114054E1,-5.623133108E-2,2.362314224E0,9.355937004E0
3.503114054E1,2.273181453E-2,2.271985054E0,9.593423843E0
3.553114054E1,-4.247260094E-1,2.317448616E0,9.641879082E0
3.603114054E1,-1.932204217E-1,2.283949137E0,9.359525681E0
3.653114054E1,7.357929647E-2,2.307877541E0,9.296713829E0
3.703114054E1,-2.165504545E-1,2.269592285E0,9.764511108E0
3.753114054E1,1.417747438E-1,2.321038008E0,9.297312737E0
3.803114054E1,-2.745763958E-1,2.288734913E0,9.404989243E0
3.853114054E1,-1.196411327E-1,2.271985054E0,9.742377281E0
3.903114054E1,-2.249253243E-1,2.246262312E0,9.719645500E0
3.953114054E1,-2.141576260E-1,2.233700037E0,9.550353050E0
4.003114054E1,-2.596212626E-1,2.330609322E0,9.269794464E0
4.053114054E1,-2.087737769E-1,2.244467735E0,9.744770050E0
4.103114054E1,-5.862415582E-2,2.386242390E0,9.469595909E0
4.153114054E1,-3.948157281E-2,2.389233351E0,9.520442963E0
4.203114054E1,-1.555334684E-2,2.413759947E0,9.695717812E0
4.253114054E1,1.794617064E-2,2.440679073E0,9.600004196E0
4.303114054E1,-3.649054468E-2,2.408375978E0,9.669994354E0
4.353114054E1,2.488535494E-1,2.481955290E0,1.029751205E1
4.403114054E1,-1.519442350E-1,2.517249346E0,9.075378418E0
4.453114054E1,2.709871531E-1,3.410370588E0,9.488738060E0
4.503114054E1,8.554341197E-1,3.867997885E0,8.832506180E0
4.553114054E1,2.452643216E-1,3.482155085E0,9.492925644E0
4.603114054E1,8.566305041E-1,3.815355778E0,9.051449776E0
4.653114054E1,5.742774606E-1,3.718446493E0,8.968298912E0
4.703114054E1,6.191428304E-1,3.726222992E0,9.060422897E0
4.753114054E1,7.884350419E-1,3.702893019E0,9.000602722E0
4.803114054E1,7.734799385E-1,3.775874138E0,8.857032776E0
4.853114054E1,6.873382926E-1,3.600001574E0,9.382855415E0
4.903114054E1,6.634100676E-1,3.769293785E0,8.907880783E0
4.953114054E1,7.734799385E-1,3.714857101E0,9.011369705E0
5.003114054E1,7.764709592E-1,3.793820381E0,8.914461136E0
5.053114054E1,8.835497499E-1,3.747160196E0,9.003593445E0
5.103114054E1,8.057830334E-1,3.662214994E0,9.052646637E0
5.153114054E1,7.238288522E-1,3.539582968E0,9.105288506E0
5.203114054E1,8.243274093E-1,3.514458179E0,9.373284340E0
5.253114054E1,7.112665176E-1,3.576671600E0,8.853444099E0
5.303114054E1,8.452646136E-1,3.635894060E0,9.024530411E0
5.353114054E1,7.674978375E-1,3.522234917E0,8.956933022E0
5.403114054E1,8.261220455E-1,3.533002615E0,8.984451294E0
5.453114054E1,7.752745152E-1,3.552145243E0,9.026923180E0
5.503114054E1,1.228714466E0,3.611367464E0,9.096315384E0
5.553114054E1,9.918249846E-1,3.547957659E0,9.131011009E0
5.603114054E1,1.225125194E0,3.550948858E0,9.591629982E0
5.653114054E1,7.322037220E-1,3.425325632E0,8.976674080E0
5.703114054E1,9.780662656E-1,3.290729284E0,9.086145401E0
5.753114054E1,1.006780148E0,3.909872293E0,9.115457535E0
5.803114054E1,9.559326172E-1,4.905286312E0,8.423932076E0
5.853114054E1,9.553344250E-1,5.067998409E0,8.215158463E0
5.903114054E1,9.637092948E-1,5.044070244E0,7.923233986E0
5.953114054E1,9.559326172E-1,4.829912663E0,8.277371407E0
6.003114054E1,1.148554921E0,4.549354076E0,8.749954224E0
6.053114054E1,1.121037364E0,4.558925152E0,8.472386360E0
6.103114054E1,1.178465128E0,4.509274483E0,8.677571297E0
6.153114054E1,1.051047325E0,4.468596458E0,8.609375954E0
6.203114054E1,9.966106415E-1,4.469792843E0,8.585447311E0
6.253114054E1,1.054636598E0,4.431507587E0,8.608179092E0
6.303114054E1,1.143769264E0,4.467998028E0,8.644071579E0
6.353114054E1,1.173679471E0,4.482953072E0,8.676374435E0
6.403114054E1,1.102493048E0,4.391427994E0,8.435895920E0
6.453114054E1,1.180858016E0,4.434498787E0,8.718249321E0
6.503114054E1,1.303490162E0,4.449453831E0,8.675178528E0
6.553114054E1,1.185643673E0,4.427918434E0,8.623732567E0
6.603114054E1,1.359123230E0,4.461417675E0,8.709874153E0
6.653114054E1,1.191625714E0,4.406383038E0,8.539385796E0
6.703114054E1,1.188036442E0,4.448855400E0,8.778668404E0
6.753114054E1,1.146760225E0,4.361517429E0,8.544171333E0
6.803114054E1,1.266401410E0,4.410570145E0,8.711668968E0
6.853114054E1,1.166501045E0,4.378865242E0,8.652446747E0
6.903114054E1,1.320838094E0,4.537988186E0,8.639286041E0
6.953114054E1,1.215553880E0,4.342374802E0,8.687741280E0
7.003114054E1,1.202393413E0,4.417150497E0,8.632107735E0
7.053114054E1,1.247258782E0,4.370490551E0,8.702097893E0
7.103114054E1,1.183848977E0,4.384847641E0,8.681160927E0
7.153114054E1,1.103689432E0,4.374079704E0,8.639286041E0
7.203114054E1,1.208973646E0,4.354937077E0,8.778668404E0
7.253114054E1,1.147358418E0,4.284946918E0,8.725427628E0
7.303114054E1,1.240678549E0,4.381856441E0,8.720642090E0
7.353114054E1,1.142572761E0,4.213162422E0,8.765507698E0
7.403114054E1,1.272981644E0,4.360919476E0,8.730812073E0
7.453114054E1,1.405185103E0,4.343571186E0,8.938388824E0
7.503114054E1,1.322034478E0,4.396213531E0,8.776873589E0
7.553114054E1,1.156929731E0,4.275375843E0,8.588438988E0
7.603114054E1,1.293320656E0,4.271786690E0,8.936594009E0
7.653114054E1,1.193420291E0,4.212564468E0,8.437092781E0
7.703114054E1,1.236491084E0,4.313661098E0,8.627322197E0
7.753114054E1,1.416550994E0,4.321437836E0,8.723034859E0
7.803114054E1,1.201196909E0,4.267001152E0,8.507082939E0
7.853114054E1,1.260419369E0,4.247858524E0,9.038289070E0
7.903114054E1,1.247856975E0,4.299304008E0,8.789435387E0
7.953114054E1,1.161715388E0,4.134797573E0,8.940781593E0
8.003114054E1,1.292124271E0,4.169493675E0,8.946166039E0
8.053114054E1,1.218544960E0,4.216153622E0,8.729017258E0
8.103114054E1,1.252642632E0,4.186243057E0,8.845666885E0
8.153114054E1,1.319641709E0,3.936791420E0,8.928219795E0
8.203114054E1,1.923829436E0,3.640679598E0,9.292527199E0
8.253114054E1,3.047259569E0,3.553939819E0,7.344769001E0
8.303114054E1,2.555534601E0,4.920839787E0,6.695117950E0
8.353114054E1,7.548757076E0,1.877767563E0,1.025324464E0
8.403114054E1,1.034297562E1,-1.939980984E0,-3.093321562E0
8.453114054E1,8.202595711E0,-1.920240164E0,-3.607180119E0
8.503114054E1,9.113663673E0,-2.483749866E0,-3.862015724E0
8.553114054E1,8.456234932E0,-2.678765059E0,-3.849453449E0
8.603114054E1,8.636295319E0,-2.501097918E0,-3.501895905E0
8.653114054E1,1.044826031E1,-1.397408366E0,-2.219342947E0
8.703114054E1,9.711270332E0,-9.924231768E-1,-7.549355626E-1
8.753114054E1,8.920442581E0,-2.794816732E0,-7.004988194E-1
8.803114054E1,8.210970879E0,-3.271586657E0,-2.317448616E0
8.853114054E1,8.990432739E0,-3.104687452E0,-2.428116798E0
8.903114054E1,9.334999084E0,-2.851048231E0,-2.367697954E0
8.953114054E1,8.608179092E0,-2.501696110E0,-1.944766641E0
9.003114054E1,8.846863747E0,-2.547159672E0,-3.030509949E0
9.053114054E1,8.575876236E0,-3.295515060E0,-3.339184046E0
9.103114054E1,8.882157326E0,-3.110669374E0,-2.587239504E0
9.153114054E1,8.882157326E0,-2.870190859E0,-2.657827854E0
9.203114054E1,8.955139160E0,-2.964108944E0,-2.831905603E0
9.253114054E1,9.009575844E0,-2.833101988E0,-2.711666346E0
9.303114054E1,8.890532494E0,-2.809173822E0,-3.000599623E0
9.353114054E1,8.853444099E0,-2.770888567E0,-3.038884640E0
9.403114054E1,8.837292671E0,-2.724826813E0,-3.066402197E0
9.453114054E1,8.947361946E0,-2.595614433E0,-3.064607620E0
9.503114054E1,8.928219795E0,-2.630310297E0,-3.090330362E0
9.553114054E1,8.919246674E0,-2.618944407E0,-3.065804005E0
9.603114054E1,8.933005333E0,-2.495115757E0,-3.147160053E0
9.653114054E1,8.870791435E0,-2.538186550E0,-3.104687452E0
9.703114054E1,8.955139160E0,-2.438884497E0,-3.139383316E0
9.753114054E1,9.027522087E0,-2.395813704E0,-3.075973511E0
9.803114054E1,8.931210518E0,-2.384447813E0,-3.126222849E0
9.853114054E1,8.949156761E0,-2.404188633E0,-3.129812002E0
9.903114054E1,8.819944382E0,-2.335394859E0,-3.116651535E0
9.953114054E1,9.009575844E0,-2.239681959E0,-3.298506021E0
1.000311405E2,9.012566566E0,-2.237887383E0,-3.199802160E0
1.005311405E2,8.894720078E0,-2.330609322E0,-3.230310678E0
1.010311405E2,9.014361382E0,-2.181057930E0,-3.233301640E0
1.015311405E2,8.928817749E0,-2.226521492E0,-3.201596737E0
1.020311405E2,9.017352104E0,-2.135594130E0,-3.279961586E0
1.025311405E2,9.022735596E0,-2.169093609E0,-3.332603693E0
1.030311405E2,9.022735596E0,-2.123630047E0,-3.248256683E0
1.035311405E2,8.968298912E0,-2.207977057E0,-3.294318676E0
1.040311405E2,9.029315948E0,-2.153540373E0,-3.293720484E0
1.045311405E2,8.848658562E0,-2.177468538E0,-3.278167009E0
1.050311405E2,8.907281876E0,-2.112264156E0,-3.281157970E0
1.055311405E2,9.028717995E0,-2.166102648E0,-3.309871912E0
1.060311405E2,8.985647202E0,-2.172683001E0,-3.357728481E0
1.065311405E2,8.901300430E0,-2.148754835E0,-3.355933666E0
1.070311405E2,8.995218277E0,-2.124826431E0,-3.329014540E0
1.075311405E2,8.901300430E0,-2.155334949E0,-3.306880951E0
1.080311405E2,8.920442581E0,-2.285743713E0,-3.254238844E0
1.085311405E2,9.060422897E0,-1.933400750E0,-3.117249727E0
1.090311405E2,8.754141808E0,-1.822134495E0,-3.589233875E0
1.095311405E2,9.140582085E0,-1.869392633E0,-3.140579700E0
1.100311405E2,9.128020287E0,-1.899901152E0,-3.272184849E0
1.105311405E2,8.985647202E0,-1.856830359E0,-3.073580742E0
1.110311405E2,9.044869423E0,-1.920838356E0,-2.950948477E0
1.115311405E2,9.048459053E0,-1.978266120E0,-2.987439156E0
1.120311405E2,9.041878700E0,-2.047059774E0,-3.029313564E0
1.125311405E2,9.151350021E0,-1.912463546E0,-3.061018467E0
1.130311405E2,9.060422897E0,-2.099701881E0,-2.988037348E0
1.135311405E2,9.199805260E0,-1.907677889E0,-3.084946632E0
1.140311405E2,9.030512810E0,-1.941775560E0,-3.043670416E0
1.145311405E2,9.153742790E0,-2.027917147E0,-3.072384357E0
1.150311405E2,9.055637360E0,-1.907677889E0,-3.047259569E0
1.155311405E2,9.084351540E0,-1.915454507E0,-2.985046148E0
1.160311405E2,9.198010445E0,-1.984846354E0,-2.903690338E0
1.165311405E2,9.033503532E0,-1.914258122E0,-2.987439156E0
1.170311405E2,9.165707588E0,-1.948953986E0,-3.054438114E0
1.175311405E2,9.007781029E0,-1.835893154E0,-2.821736097E0
1.180311405E2,9.167501450E0,-1.908276081E0,-2.946761131E0
1.185311405E2,9.080163956E0,-1.863410592E0,-2.927618504E0
1.190311405E2,9.192028046E0,-1.883749604E0,-2.973082066E0
1.195311405E2,9.306883812E0,-1.841277003E0,-2.887538671E0
1.200311405E2,9.186644554E0,-1.920838356E0,-2.822334290E0
1.205311405E2,9.038887978E0,-1.724028707E0,-2.519043922E0
1.210311405E2,9.089137077E0,-2.006381750E0,-2.944368362E0
1.215311405E2,9.084949493E0,-1.919043779E0,-2.817548752E0
1.220311405E2,9.302098274E0,-1.898704767E0,-2.963510752E0
1.225311405E2,9.166305542E0,-1.847259045E0,-2.876172781E0
1.230311405E2,9.166305542E0,-1.934597135E0,-2.791825771E0
1.235311405E2,9.150154114E0,-1.781456470E0,-2.844467878E0
1.240311405E2,9.158528328E0,-1.925624013E0,-2.912663460E0
1.245311405E2,9.205786705E0,-1.729412556E0,-2.883949518E0
1.250311405E2,9.244071960E0,-1.976471543E0,-3.051447153E0
1.255311405E2,8.919246674E0,-1.783849239E0,-2.937189817E0
1.260311405E2,9.117850304E0,-1.815554142E0,-2.973680258E0
1.265311405E2,9.164510727E0,-1.990828395E0,-3.078964472E0
1.270311405E2,8.939585686E0,-1.865205288E0,-3.067598581E0
1.275311405E2,9.031708717E0,-1.843669891E0,-2.898306370E0
1.280311405E2,9.234500885E0,-1.797608018E0,-3.048455954E0
1.285311405E2,9.054440498E0,-1.788634896E0,-2.907877684E0
1.290311405E2,9.170493126E0,-1.848455548E0,-3.123830080E0
1.295311405E2,9.218947411E0,-1.707278967E0,-3.365504980E0
1.300311405E2,8.708079338E0,-1.788036704E0,-3.274577856E0
1.305311405E2,8.900103569E0,-1.810170293E0,-2.456232548E0
1.310311405E2,8.998209953E0,-1.779063582E0,-2.839084148E0
1.315311405E2,9.033503532E0,-1.700100541E0,-3.145365477E0
1.320311405E2,9.192028046E0,-1.838884234E0,-2.952743053E0
1.325311405E2,9.439086914E0,-1.893320918E0,-2.895315409E0
1.330311405E2,9.051449776E0,-1.749751568E0,-3.231507063E0
1.335311405E2,9.229715347E0,-1.754537225E0,-3.032304525E0
1.340311405E2,9.335597992E0,-1.841277003E0,-2.833101988E0
1.345311405E2,8.775078773E0,-1.715055585E0,-2.885744095E0
1.350311405E2,9.108279228E0,-1.821536183E0,-3.000599623E0
1.355311405E2,9.094520569E0,-1.621137381E0,-2.933600664E0
1.360311405E2,9.215357780E0,-1.770688772E0,-3.035893679E0
1.365311405E2,9.215357780E0,-1.685743570E0,-3.198605776E0
1.370311405E2,9.083154678E0,-1.769492388E0,-3.022733212E0
1.375311405E2,9.043074608E0,-1.737189293E0,-3.119044304E0
1.380311405E2,9.175278664E0,-1.814955950E0,-3.201596737E0
1.385311405E2,9.231510162E0,-1.732403636E0,-3.050250769E0
1.390311405E2,9.072386742E0,-1.695314884E0,-3.095116138E0
1.395311405E2,9.171091080E0,-1.767099500E0,-3.051447153E0
1.400311405E2,9.373882294E0,-1.756331801E0,-2.842673302E0
1.405311405E2,9.154939651E0,-1.764706731E0,-3.306880951E0
1.410311405E2,9.079565048E0,-1.714457393E0,-3.186043262E0
1.415311405E2,9.093922615E0,-1.738983870E0,-3.150151014E0
1.420311405E2,9.115457535E0,-1.673181176E0,-3.067598581E0
1.425311405E2,9.078369141E0,-1.633699656E0,-3.101098061E0
1.430311405E2,9.170493126E0,-1.712064624E0,-3.131008387E0
1.435311405E2,8.952746391E0,-1.690529227E0,-2.994019270E0
1.440311405E2,9.372088432E0,-1.732403636E0,-3.046661377E0
1.445311405E2,9.150154114E0,-1.708475351E0,-3.078366280E0
1.450311405E2,9.125029564E0,-1.619342685E0,-3.081955671E0
1.455311405E2,9.105886459E0,-1.713261008E0,-3.184248686E0
1.460311405E2,9.273384094E0,-1.646261930E0,-2.986242771E0
1.465311405E2,9.027522087E0,-1.689332843E0,-3.202793121E0
1.470311405E2,9.145368576E0,-1.710269928E0,-3.300898790E0
1.475311405E2,9.032307625E0,-1.691127419E0,-3.201596737E0
1.480311405E2,9.054440498E0,-1.697707653E0,-3.211168051E0
1.485311405E2,9.072386742E0,-1.654038668E0,-3.238087177E0
1.490311405E2,9.136993408E0,-1.735394597E0,-3.300300598E0
1.495311405E2,9.048459053E0,-1.692921996E0,-3.195614576E0
1.500311405E2,9.146564484E0,-1.686341763E0,-3.297309637E0
1.505311405E2,8.974879265E0,-1.690529227E0,-3.324228764E0
1.510311405E2,9.006584167E0,-1.716252089E0,-3.453441381E0
1.515311405E2,9.041878700E0,-1.662413478E0,-3.391826153E0
1.520311405E2,9.148359299E0,-1.722832322E0,-3.314657450E0
1.525311405E2,8.980861664E0,-1.705484390E0,-3.498306751E0
1.530311405E2,8.966505051E0,-1.727617979E0,-3.557528973E0
1.535311405E2,8.895318031E0,-1.688136339E0,-3.335594654E0
1.540311405E2,8.979664803E0,-1.710269928E0,-3.257827997E0
1.545311405E2,8.943174362E0,-1.612762451E0,-3.653241873E0
1.550311405E2,8.998209953E0,-1.733600020E0,-3.499503136E0
1.555311405E2,9.048459053E0,-1.697707653E0,-3.600599766E0
1.560311405E2,8.922237396E0,-1.776670814E0,-3.485744476E0
1.565311405E2,8.936594009E0,-1.754537225E0,-3.506681681E0
1.570311405E2,8.985647202E0,-1.743769526E0,-3.558725595E0
1.575311405E2,8.991030693E0,-1.719841242E0,-3.509672642E0
1.580311405E2,9.005388260E0,-1.683350682E0,-3.437887907E0
1.585311405E2,9.037093163E0,-1.701895118E0,-3.547957659E0
1.590311405E2,8.955737114E0,-1.799402595E0,-3.523431301E0
1.595311405E2,8.834300995E0,-1.812563181E0,-3.536591768E0
1.600311405E2,8.961718559E0,-1.810768485E0,-3.555734396E0
1.605311405E2,8.977870941E0,-1.783849239E0,-3.476173162E0
1.610311405E2,8.928817749E0,-1.884347796E0,-3.444468260E0
1.615311405E2,8.963513374E0,-1.893320918E0,-3.500101328E0
1.620311405E2,8.952147484E0,-1.987837434E0,-3.525225878E0
1.625311405E2,8.919246674E0,-2.014756680E0,-3.476173162E0
1.630311405E2,9.019744873E0,-1.999203324E0,-3.378665686E0
1.635311405E2,9.035298347E0,-2.064407825E0,-3.308675528E0
1.640311405E2,8.909076691E0,-2.136192322E0,-3.480958700E0
1.645311405E2,8.894720078E0,-2.178664923E0,-3.491726398E0
1.650311405E2,8.976076126E0,-2.217548370E0,-3.385245800E0
1.655311405E2,8.924032211E0,-2.237887383E0,-3.343371391E0
1.660311405E2,8.891729355E0,-2.255833626E0,-3.500101328E0
1.665311405E2,8.926424980E0,-2.340180635E0,-3.394817114E0
1.670311405E2,8.942576408E0,-2.346760750E0,-3.265604734E0
1.675311405E2,8.919246674E0,-2.424527645E0,-3.236292601E0
1.680311405E2,8.912666321E0,-2.456830740E0,-3.323032379E0
1.685311405E2,8.863015175E0,-2.493321180E0,-3.290729284E0
1.690311405E2,9.004789352E0,-2.517249346E0,-3.223730326E0
1.695311405E2,8.880961418E0,-2.508874655E0,-3.245863914E0
1.700311405E2,8.877371788E0,-2.580659151E0,-3.247658491E0
1.705311405E2,8.821739197E0,-2.575873613E0,-3.223730326E0
1.710311405E2,8.935996056E0,-2.530410051E0,-3.141177893E0
1.715311405E2,8.836095810E0,-2.529811859E0,-3.184248686E0
1.720311405E2,8.931210518E0,-2.547159672E0,-3.189034462E0
1.725311405E2,8.818747520E0,-2.559123755E0,-3.284149170E0
1.730311405E2,8.946166039E0,-2.585444927E0,-3.198605776E0
1.735311405E2,8.869595528E0,-2.532802820E0,-3.135794163E0
1.740311405E2,8.893523216E0,-2.522035122E0,-3.359523058E0
1.745311405E2,8.799007416E0,-2.545963287E0,-3.265604734E0
1.750311405E2,8.880363464E0,-2.509472847E0,-3.160320520E0
1.755311405E2,8.880961418E0,-2.544168711E0,-3.198605776E0
1.760311405E2,8.895318031E0,-2.558525562E0,-3.361317635E0
1.765311405E2,8.809176445E0,-2.541177750E0,-3.389433384E0
1.770311405E2,8.797810555E0,-2.536391973E0,-3.496512175E0
1.775311405E2,8.808578491E0,-2.562114954E0,-3.458226919E0
1.780311405E2,8.720642090E0,-2.544766903E0,-3.544368505E0
1.785311405E2,8.769096375E0,-2.550748825E0,-3.556930780E0
1.790311405E2,8.742177963E0,-2.561516523E0,-3.586242914E0
1.795311405E2,8.717651367E0,-2.576471806E0,-3.635894060E0
1.800311405E2,8.687741280E0,-2.560320139E0,-3.670589924E0
1.805311405E2,8.709874153E0,-2.563909531E0,-3.699303865E0
1.810311405E2,8.687741280E0,-2.576471806E0,-3.694518089E0
1.815311405E2,8.636295319E0,-2.572882652E0,-3.760320902E0
1.820311405E2,8.620741844E0,-2.592623234E0,-3.784249067E0
1.825311405E2,8.641678810E0,-2.583052158E0,-3.769891977E0
1.830311405E2,8.601598740E0,-2.595614433E0,-3.895515203E0
1.835311405E2,8.596215248E0,-2.596810818E0,-3.777070522E0
1.840311405E2,8.642875671E0,-2.606980324E0,-3.791427374E0
1.845311405E2,8.601598740E0,-2.611167669E0,-3.915854216E0
1.850311405E2,8.571090698E0,-2.561516523E0,-3.853640795E0
1.855311405E2,8.577073097E0,-2.583052158E0,-3.818944931E0
1.860311405E2,8.598010063E0,-2.606980324E0,-3.863212109E0
1.865311405E2,8.574680328E0,-2.583052158E0,-3.905086517E0
1.870311405E2,8.558527946E0,-2.599801779E0,-3.925425529E0
1.875311405E2,8.682356834E0,-2.612962246E0,-3.811168194E0
1.880311405E2,8.670392990E0,-2.605185747E0,-3.884149313E0
1.885311405E2,8.609375954E0,-2.587239504E0,-3.847658873E0
1.890311405E2,8.682954788E0,-2.566900492E0,-3.798605919E0
1.895311405E2,8.601000786E0,-2.597409010E0,-3.817748547E0
1.900311405E2,8.672785759E0,-2.577668190E0,-3.873381615E0
1.905311405E2,8.688937187E0,-2.585444927E0,-3.812962770E0
1.910311405E2,8.730812073E0,-2.571686029E0,-3.735794306E0
1.915311405E2,8.918647766E0,-2.572882652E0,-3.315255880E0
1.920311405E2,8.851649284E0,-2.529811859E0,-3.078964472E0
1.925311405E2,8.859425545E0,-2.516052961E0,-3.227319479E0
1.930311405E2,8.868997574E0,-2.525026083E0,-3.236292601E0
1.935311405E2,8.858229637E0,-2.520240545E0,-3.223730326E0
1.940311405E2,8.882157326E0,-2.499303341E0,-3.249453068E0
1.945311405E2,8.861220360E0,-2.513660192E0,-3.260818958E0
1.950311405E2,8.896514893E0,-2.507678032E0,-3.278167009E0
1.955311405E2,8.856434822E0,-2.516052961E0,-3.281756163E0
1.960311405E2,8.890532494E0,-2.528017044E0,-3.303889751E0
1.965311405E2,8.871390343E0,-2.515454769E0,-3.266801119E0
1.970311405E2,8.876175880E0,-2.496312141E0,-3.285943747E0
1.975311405E2,8.847461700E0,-2.485544443E0,-3.289532900E0
1.980311405E2,8.882157326E0,-2.487339020E0,-3.296113253E0
1.985311405E2,8.834300995E0,-2.499901533E0,-3.275176048E0
1.990311405E2,8.837890625E0,-2.518445730E0,-3.291327477E0
1.995311405E2,8.866603851E0,-2.480758905E0,-3.308675528E0
2.000311405E2,8.866603851E0,-2.487339020E0,-3.305086374E0
2.005311405E2,8.849854469E0,-2.481955290E0,-3.303889751E0
2.010311405E2,8.861818314E0,-2.496312141E0,-3.319443226E0
2.015311405E2,8.875576973E0,-2.496312141E0,-3.309871912E0
2.020311405E2,8.864211082E0,-2.483749866E0,-3.287738323E0
2.025311405E2,8.872586250E0,-2.463410854E0,-3.310470104E0
2.030311405E2,8.877371788E0,-2.477169752E0,-3.312862873E0
2.035311405E2,8.861220360E0,-2.467598438E0,-3.324826956E0
2.040311405E2,8.846863747E0,-2.484946251E0,-3.312862873E0
2.045311405E2,8.848658562E0,-2.492124796E0,-3.308077335E0
2.050311405E2,8.847461700E0,-2.477767944E0,-3.296113253E0
2.055311405E2,8.867800713E0,-2.472982168E0,-3.323032379E0
2.060311405E2,8.864211082E0,-2.471187592E0,-3.310470104E0
2.065311405E2,8.832506180E0,-2.491526604E0,-3.324826956E0
2.070311405E2,8.856434822E0,-2.502892494E0,-3.321237803E0
2.075311405E2,8.849854469E0,-2.488535643E0,-3.314657450E0
2.080311405E2,8.864211082E0,-2.478964329E0,-3.308675528E0
2.085311405E2,8.864211082E0,-2.480160713E0,-3.339184046E0
2.090311405E2,8.842676163E0,-2.499303341E0,-3.314657450E0
2.095311405E2,8.855237961E0,-2.496312141E0,-3.305086374E0
2.100311405E2,8.853444099E0,-2.490330219E0,-3.337389469E0
2.105311405E2,8.843872070E0,-2.491526604E0,-3.313461065E0
2.110311405E2,8.842676163E0,-2.499901533E0,-3.329014540E0
2.115311405E2,8.834300995E0,-2.491526604E0,-3.324826956E0
2.120311405E2,8.843872070E0,-2.489732027E0,-3.335594654E0
2.125311405E2,8.863015175E0,-2.501097918E0,-3.333800077E0
2.130311405E2,8.827720642E0,-2.502892494E0,-3.360719442E0
2.135311405E2,8.860024452E0,-2.480160713E0,-3.340380430E0
2.140311405E2,8.851649284E0,-2.481955290E0,-3.349951744E0
2.145311405E2,8.843872070E0,-2.494517565E0,-3.321237803E0
2.150311405E2,8.843872070E0,-2.489732027E0,-3.345165968E0
2.155311405E2,8.846863747E0,-2.487339020E0,-3.336791277E0
2.160311405E2,8.832506180E0,-2.498106956E0,-3.337389469E0
2.165311405E2,8.852247238E0,-2.483749866E0,-3.358326674E0
2.170311405E2,8.858229637E0,-2.484946251E0,-3.343969584E0
2.175311405E2,8.732007980E0,-2.425125837E0,-3.086741209E0
2.180311405E2,9.138788223E0,-2.374876499E0,-2.587239504E0
2.185311405E2,9.213563919E0,-2.367697954E0,-2.603390932E0
2.190311405E2,9.132207870E0,-2.372483730E0,-2.609971285E0
2.195311405E2,9.148957253E0,-2.362912416E0,-2.635694027E0
2.200311405E2,9.138788223E0,-2.368894339E0,-2.587239504E0
2.205311405E2,9.161520004E0,-2.378465652E0,-2.625524759E0
2.210311405E2,9.190233231E0,-2.352742910E0,-2.625524759E0
2.215311405E2,9.129815102E0,-2.377269268E0,-2.664407969E0
2.220311405E2,9.164510727E0,-2.352742910E0,-2.705684185E0
2.225311405E2,9.099306107E0,-2.355733871E0,-2.652443886E0
2.230311405E2,9.132207870E0,-2.338984251E0,-2.748754978E0
2.235311405E2,9.132207870E0,-2.378465652E0,-2.673381090E0
2.240311405E2,9.123234749E0,-2.378465652E0,-2.753540754E0
2.245311405E2,9.117850304E0,-2.367099762E0,-2.764906645E0
2.250311405E2,9.113663673E0,-2.364108801E0,-2.750549555E0
2.255311405E2,9.078369141E0,-2.365305185E0,-2.752942562E0
2.260311405E2,9.094520569E0,-2.362912416E0,-2.758326292E0
2.265311405E2,9.062217712E0,-2.385046005E0,-2.750549555E0
2.270311405E2,9.056235313E0,-2.365903378E0,-2.748754978E0
2.275311405E2,9.131011009E0,-2.357528448E0,-2.697907448E0
2.280311405E2,9.113064766E0,-2.343769789E0,-2.716451883E0
2.285311405E2,9.124430656E0,-2.334198475E0,-2.762513638E0
2.290311405E2,9.092725754E0,-2.380260229E0,-2.743969440E0
2.295311405E2,9.083154678E0,-2.337189436E0,-2.737389088E0
2.300311405E2,9.151947975E0,-2.327019930E0,-2.703889608E0
2.305311405E2,9.104091644E0,-2.384447813E0,-2.733799934E0
2.310311405E2,9.089137077E0,-2.346162558E0,-2.735594511E0
2.315311405E2,9.089137077E0,-2.292324066E0,-2.720041037E0
2.320311405E2,9.105288506E0,-2.356332064E0,-2.737389088E0
2.325311405E2,9.028717995E0,-2.401197433E0,-2.678166628E0
2.330311405E2,8.992227554E0,-2.294118643E0,-2.676970243E0
2.335311405E2,8.969495773E0,-2.368894339E0,-2.742174864E0
2.340311405E2,9.062815666E0,-2.293520451E0,-2.785245657E0
2.345311405E2,9.051449776E0,-2.365903378E0,-2.810968399E0
2.350311405E2,9.038289070E0,-2.303091764E0,-2.877369165E0
2.355311405E2,8.858229637E0,-2.354537487E0,-2.785245657E0
2.360311405E2,9.001798630E0,-2.219342947E0,-2.846262455E0
2.365311405E2,8.883354187E0,-2.437089920E0,-2.833101988E0
2.370311405E2,8.952746391E0,-2.181057930E0,-2.858824968E0
2.375311405E2,8.766105652E0,-2.290529490E0,-2.729014158E0
2.380311405E2,9.227920532E0,-2.331805706E0,-2.699103832E0
2.385311405E2,8.985647202E0,-2.493321180E0,-2.726621389E0
2.390311405E2,9.062815666E0,-2.224128723E0,-3.089732170E0
2.395311405E2,8.655437469E0,-2.079961061E0,-2.764906645E0
2.400311405E2,9.204590797E0,-2.280958176E0,-2.743371248E0
2.405311405E2,9.054440498E0,-2.385046005E0,-3.115455151E0
2.410311405E2,8.967103004E0,-2.357528448E0,-3.446861029E0
2.415311405E2,8.702097893E0,-2.405385017E0,-3.501895905E0
2.420311405E2,8.615358353E0,-2.389831543E0,-3.497110367E0
2.425311405E2,8.784649849E0,-2.378465652E0,-3.723232031E0
2.430311405E2,8.729017258E0,-2.356332064E0,-3.700500250E0
2.435311405E2,8.818149567E0,-2.140379906E0,-3.754936934E0
2.440311405E2,8.663214684E0,-2.124826431E0,-3.845864296E0
2.445311405E2,8.507082939E0,-2.114058733E0,-3.853640795E0
2.450311405E2,8.598010063E0,-2.202593327E0,-4.093521118E0
2.455311405E2,8.693722725E0,-2.228316069E0,-4.210171223E0
2.460311405E2,8.650651932E0,-2.011765718E0,-4.253242016E0
2.465311405E2,8.362317085E0,-2.048256159E0,-4.112663746E0
2.470311405E2,8.575876236E0,-2.099701881E0,-4.160520554E0
2.475311405E2,8.788239479E0,-2.027917147E0,-4.063013077E0
2.480311405E2,8.670392990E0,-2.403590441E0,-4.180859566E0
2.485311405E2,8.604590416E0,-2.315055847E0,-4.160520554E0
2.490311405E2,8.563314438E0,-2.322234392E0,-4.257429600E0
2.495311405E2,8.515457153E0,-2.270190477E0,-4.205385685E0
2.500311405E2,8.658429146E0,-2.337189436E0,-4.176671982E0
2.505311405E2,8.588438988E0,-2.206182480E0,-4.058227062E0
2.510311405E2,8.443074226E0,-2.322832584E0,-4.171886444E0
2.515311405E2,8.437092781E0,-2.456830740E0,-4.227519512E0
2.520311405E2,8.483154297E0,-2.452044964E0,-4.290929317E0
2.525311405E2,8.657232285E0,-2.428116798E0,-4.304089546E0
2.530311405E2,8.562715530E0,-2.544168711E0,-4.257429600E0
2.535311405E2,8.695517540E0,-2.448455811E0,-4.171288013E0
2.540311405E2,8.636295319E0,-2.427518606E0,-4.208376884E0
2.545311405E2,8.689535141E0,-2.324627161E0,-4.133601189E0
2.550311405E2,8.720642090E0,-2.458625317E0,-4.070789337E0
2.555311405E2,8.918647766E0,-2.321038008E0,-4.069592953E0
2.560311405E2,8.653642654E0,-2.505883455E0,-3.872783422E0
2.565311405E2,8.738588333E0,-2.424527645E0,-3.802793503E0
2.570311405E2,8.830712318E0,-2.386242390E0,-3.780659676E0
2.575311405E2,8.760722160E0,-2.287538528E0,-3.873381615E0
2.580311405E2,8.719446182E0,-2.315055847E0,-3.850649834E0
2.585311405E2,8.647661209E0,-2.348555326E0,-3.790230989E0
2.590311405E2,8.699107170E0,-2.258824587E0,-3.867997885E0
2.595311405E2,8.567501068E0,-2.370688915E0,-3.969094515E0
2.600311405E2,8.725427628E0,-2.273181438E0,-3.818944931E0
2.605311405E2,8.802596092E0,-2.386840582E0,-3.664009571E0
2.610311405E2,8.626724243E0,-2.398804665E0,-3.805784464E0
2.615311405E2,8.701499939E0,-2.423331022E0,-3.884747505E0
2.620311405E2,8.681160927E0,-2.329412937E0,-3.934996843E0
2.625311405E2,8.692526817E0,-2.310270309E0,-3.768097401E0
2.630311405E2,8.585447311E0,-2.423331022E0,-3.874577999E0
2.635311405E2,8.563314438E0,-2.405983210E0,-3.809373617E0
2.640311405E2,8.706285477E0,-2.396411896E0,-3.875176191E0
2.645311405E2,8.740383148E0,-2.207378864E0,-3.719642878E0
2.650311405E2,8.608179092E0,-2.202593327E0,-3.878167391E0
2.655311405E2,8.721240044E0,-2.286342144E0,-4.022933006E0
2.660311405E2,8.714659691E0,-2.265404940E0,-3.905086517E0
2.665311405E2,8.610571861E0,-2.411965132E0,-3.873381615E0
2.670311405E2,8.543573380E0,-2.315055847E0,-3.973282099E0
2.675311405E2,8.644669533E0,-2.377269268E0,-3.983451605E0
2.680311405E2,8.641678810E0,-2.268395901E0,-3.903291941E0
2.685311405E2,8.662017822E0,-2.378465652E0,-3.898506403E0
2.690311405E2,8.722436905E0,-2.440679073E0,-3.885943890E0
2.695311405E2,8.697312355E0,-2.385046005E0,-3.817150354E0
2.700311405E2,8.644071579E0,-2.193022013E0,-3.901497364E0
2.705311405E2,8.541180611E0,-2.343171597E0,-3.817748547E0
2.710311405E2,8.677571297E0,-2.357528448E0,-3.855435371E0
2.715311405E2,8.734998703E0,-2.279163599E0,-3.856033802E0
2.720311405E2,8.714659691E0,-2.341377020E0,-4.011567116E0
2.725311405E2,8.550751686E0,-2.341975212E0,-4.025924206E0
2.730311405E2,8.585447311E0,-2.346162558E0,-3.929014683E0
2.735311405E2,8.610571861E0,-2.431107759E0,-4.064209461E0
2.740311405E2,8.577671051E0,-2.423331022E0,-3.945166349E0
2.745311405E2,8.568099976E0,-2.429911375E0,-3.720241070E0
2.750311405E2,8.791230202E0,-2.370688915E0,-3.705883980E0
2.755311405E2,8.591429710E0,-2.257628202E0,-3.820141315E0
2.760311405E2,8.568099976E0,-2.283949137E0,-3.876372576E0
2.765311405E2,8.716454506E0,-2.442473650E0,-3.665804386E0
2.770311405E2,8.641678810E0,-2.617748022E0,-3.949951887E0
2.775311405E2,8.538787842E0,-2.676970243E0,-3.997210264E0
2.780311405E2,8.451449394E0,-2.693121910E0,-3.925425529E0
2.785311405E2,8.716454506E0,-2.681756020E0,-3.801596880E0
2.790311405E2,8.687142372E0,-2.715255499E0,-3.825525284E0
2.795311405E2,8.641678810E0,-2.718246460E0,-3.929014683E0
2.800311405E2,8.569893837E0,-2.819941521E0,-3.887738705E0
2.805311405E2,8.647661209E0,-2.794816732E0,-3.799802303E0
2.810311405E2,8.625527382E0,-2.742174864E0,-3.869792461E0
2.815311405E2,8.709874153E0,-2.618944407E0,-3.758526087E0
2.820311405E2,8.555537224E0,-2.593819857E0,-3.896711588E0
2.825311405E2,8.572885513E0,-2.504088879E0,-3.871587038E0
2.830311405E2,8.655437469E0,-2.423331022E0,-3.761517286E0
2.835311405E2,8.702097893E0,-2.102692842E0,-3.865006685E0
2.840311405E2,8.679366112E0,-2.265404940E0,-3.869792461E0
2.845311405E2,8.541180611E0,-2.331805706E0,-3.983451605E0
2.850311405E2,8.567501068E0,-2.512463808E0,-3.891926050E0
2.855311405E2,8.690732002E0,-2.446661234E0,-3.834498405E0
2.860311405E2,8.636893272E0,-2.481955290E0,-4.050450325E0
2.865311405E2,8.543573380E0,-2.298306227E0,-4.077369690E0
2.870311405E2,8.591429710E0,-2.245664120E0,-4.119244099E0
2.875311405E2,8.505288124E0,-2.215753794E0,-4.149154663E0
2.880311405E2,8.483154297E0,-2.322832584E0,-4.069592953E0
2.885311405E2,8.496315002E0,-2.343171597E0,-4.149154663E0
2.890311405E2,8.435297966E0,-2.444268227E0,-4.299304008E0
2.895311405E2,8.446663857E0,-2.445464849E0,-4.348955154E0
2.900311405E2,8.434102058E0,-2.298306227E0,-4.380660057E0
2.905311405E2,8.441878319E0,-2.394019127E0,-4.357928276E0
2.910311405E2,8.496315002E0,-2.270190477E0,-4.438087940E0
2.915311405E2,8.403593063E0,-2.465803623E0,-4.318446636E0
2.920311405E2,8.448458672E0,-2.477169752E0,-4.384847641E0
2.925311405E2,8.398807526E0,-2.429911375E0,-4.336990833E0
2.930311405E2,8.277371407E0,-2.595016241E0,-4.380660057E0
2.935311405E2,8.394021988E0,-2.587239504E0,-4.444069862E0
2.940311405E2,8.283951759E0,-2.612962246E0,-4.385445595E0
2.945311405E2,8.306683540E0,-2.595614433E0,-4.424927235E0
2.950311405E2,8.424530029E0,-2.635095835E0,-4.408775806E0
2.955311405E2,8.425726891E0,-2.609971285E0,-4.432703972E0
2.960311405E2,8.438288689E0,-2.622533560E0,-4.394418716E0
2.965311405E2,8.312665939E0,-2.577668190E0,-4.357928276E0
2.970311405E2,8.390432358E0,-2.499901533E0,-4.391427994E0
2.975311405E2,8.397012711E0,-2.508874655E0,-4.399204254E0
2.980311405E2,8.390432358E0,-2.477767944E0,-4.353142738E0
2.985311405E2,8.376673698E0,-2.485544443E0,-4.444069862E0
2.990311405E2,8.344370842E0,-2.434697151E0,-4.339384079E0
2.995311405E2,8.405387878E0,-2.344966173E0,-4.316651821E0
3.000311405E2,8.362317085E0,-2.386840582E0,-4.345366001E0
3.005311405E2,8.344370842E0,-2.404188633E0,-4.420739651E0
3.010311405E2,8.336593628E0,-2.368894339E0,-4.424927235E0
3.015311405E2,8.405387878E0,-2.334198475E0,-4.442873478E0
3.020311405E2,8.388039589E0,-2.434697151E0,-4.517649174E0
3.025311405E2,8.377870560E0,-2.330609322E0,-4.506283283E0
3.030311405E2,8.304888725E0,-2.448455811E0,-4.516452789E0
3.035311405E2,8.347361565E0,-2.382055044E0,-4.420141697E0
3.040311405E2,8.361719131E0,-2.346760750E0,-4.455435753E0
3.045311405E2,8.333004951E0,-2.373680115E0,-4.490131855E0
3.050311405E2,8.411968231E0,-2.386840582E0,-4.444069862E0
3.055311405E2,8.374878883E0,-2.404188633E0,-4.448855400E0
3.060311405E2,8.386244774E0,-2.374876499E0,-4.549354076E0
3.065311405E2,8.383254051E0,-2.400599241E0,-4.466203690E0
3.070311405E2,8.304888725E0,-2.364108801E0,-4.468596458E0
3.075311405E2,8.295317650E0,-2.400599241E0,-4.506881237E0
3.080311405E2,8.325826645E0,-2.328814745E0,-4.394418716E0
3.085311405E2,8.428717613E0,-2.468196630E0,-4.508078098E0
3.090311405E2,8.315656662E0,-2.309672117E0,-4.581058979E0
3.095311405E2,8.367102623E0,-2.429313183E0,-4.462016106E0
3.100311405E2,8.318648338E0,-2.423331022E0,-4.552943230E0
3.105311405E2,8.288737297E0,-2.404188633E0,-4.506881237E0
3.110311405E2,8.321041107E0,-2.386242390E0,-4.534996986E0
3.115311405E2,8.349156380E0,-2.381456852E0,-4.537988186E0
3.120311405E2,8.359326363E0,-2.403590441E0,-4.575077057E0
3.125311405E2,8.321041107E0,-2.382055044E0,-4.551148891E0
3.130311405E2,8.316255569E0,-2.405385017E0,-4.578666210E0
3.135311405E2,8.280363083E0,-2.379662037E0,-4.560719967E0
3.140311405E2,8.342576027E0,-2.371885538E0,-4.484149456E0
3.145311405E2,8.391031265E0,-2.392822742E0,-4.558925152E0
3.150311405E2,8.374878883E0,-2.392822742E0,-4.534996986E0
3.155311405E2,8.362317085E0,-2.394617319E0,-4.528416634E0
3.160311405E2,8.339585304E0,-2.375474691E0,-4.530809879E0
3.165311405E2,8.330014229E0,-2.391027927E0,-4.609772682E0
3.170311405E2,8.303094864E0,-2.405983210E0,-4.645665169E0
3.175311405E2,8.280961037E0,-2.389233351E0,-4.602594376E0
3.180311405E2,8.283951759E0,-2.408974171E0,-4.666004181E0
3.185311405E2,8.233104706E0,-2.388036966E0,-4.625924587E0
3.190311405E2,8.323433876E0,-2.386242390E0,-4.653441906E0
3.195311405E2,8.306683540E0,-2.372483730E0,-4.685146809E0
3.200311405E2,8.273183823E0,-2.421536446E0,-4.661218643E0
3.205311405E2,8.296514511E0,-2.407179594E0,-4.712066174E0
3.210311405E2,8.213961601E0,-2.405983210E0,-4.650450706E0
3.215311405E2,8.240880966E0,-2.384447813E0,-4.683950424E0
3.220311405E2,8.191229820E0,-2.382055044E0,-4.726422787E0
3.225311405E2,8.282755852E0,-2.416750908E0,-4.738985062E0
3.230311405E2,8.277970314E0,-2.405983210E0,-4.573282242E0
3.235311405E2,8.663812637E0,-2.389233351E0,-4.098307133E0
3.240311405E2,8.548358917E0,-2.362314224E0,-3.961317778E0
3.245311405E2,8.596215248E0,-2.327019930E0,-4.032504559E0
3.250311405E2,8.605786324E0,-2.343171597E0,-4.025924206E0
3.255311405E2,8.628518105E0,-2.341377020E0,-4.040280819E0
3.260311405E2,8.624929428E0,-2.354537487E0,-4.007379532E0
3.265311405E2,8.557929993E0,-2.361117840E0,-4.002593994E0
3.270311405E2,8.572885513E0,-2.346162558E0,-3.973880291E0
3.275311405E2,8.592027664E0,-2.357528448E0,-4.023531437E0
3.280311405E2,8.590232849E0,-2.338984251E0,-3.997210264E0
3.285311405E2,8.605786324E0,-2.365305185E0,-4.013361931E0
3.290311405E2,8.581858635E0,-2.372483730E0,-4.027718544E0
3.295311405E2,8.601000786E0,-2.348555326E0,-4.023531437E0
3.300311405E2,8.620741844E0,-2.347957134E0,-4.025924206E0
3.305311405E2,8.621937752E0,-2.359323025E0,-4.034298897E0
3.310311405E2,8.598608017E0,-2.362912416E0,-4.031308174E0
3.315311405E2,8.599804878E0,-2.362314224E0,-3.992424488E0
3.320311405E2,8.575876236E0,-2.341975212E0,-4.021736622E0
3.325311405E2,8.601000786E0,-2.356332064E0,-4.040879250E0
3.330311405E2,8.609375954E0,-2.346760750E0,-4.027718544E0
3.335311405E2,8.609375954E0,-2.309672117E0,-4.018745422E0
3.340311405E2,8.572287560E0,-2.350948334E0,-4.031308174E0
3.345311405E2,8.601000786E0,-2.331805706E0,-4.027718544E0
3.350311405E2,8.593822479E0,-2.341377020E0,-4.025924206E0
3.355311405E2,8.591429710E0,-2.328814745E0,-4.010370731E0
3.360311405E2,8.602795601E0,-2.348555326E0,-4.032504559E0
3.365311405E2,8.583653450E0,-2.333600283E0,-3.985246181E0
3.370311405E2,8.569295883E0,-2.334198475E0,-4.021736622E0
3.375311405E2,8.612964630E0,-2.340180635E0,-3.997808456E0
3.380311405E2,8.612366676E0,-2.325823545E0,-4.028316975E0
3.385311405E2,8.592027664E0,-2.324028969E0,-4.018147469E0
3.390311405E2,8.582456589E0,-2.343769789E0,-4.032504559E0
3.395311405E2,8.575876236E0,-2.331805706E0,-4.012165546E0
3.400311405E2,8.574081421E0,-2.351546526E0,-4.003790379E0
3.405311405E2,8.602795601E0,-2.332403898E0,-4.034298897E0
3.410311405E2,8.610571861E0,-2.324028969E0,-4.080958843E0
3.415311405E2,8.579465866E0,-2.346760750E0,-4.042075634E0
3.420311405E2,8.593822479E0,-2.335394859E0,-4.040280819E0
3.425311405E2,8.593822479E0,-2.341975212E0,-4.050450325E0
3.430311405E2,8.572287560E0,-2.335394859E0,-4.054637909E0
3.435311405E2,8.598608017E0,-2.341377020E0,-4.037290096E0
3.440311405E2,8.598010063E0,-2.335394859E0,-4.036093712E0
3.445311405E2,8.586644173E0,-2.333600283E0,-4.028316975E0
3.450311405E2,8.581858635E0,-2.327019930E0,-4.040280819E0
3.455311405E2,8.583653450E0,-2.327618122E0,-4.012165546E0
3.460311405E2,8.553144455E0,-2.335394859E0,-3.975674868E0
3.465311405E2,8.631509781E0,-2.265404940E0,-3.758526087E0
3.470311405E2,9.067601204E0,-2.224128723E0,-3.085544825E0
3.475311405E2,9.190233231E0,-2.169093609E0,-3.008974552E0
3.480311405E2,9.170493126E0,-2.166700840E0,-2.947957516E0
3.485311405E2,9.151947975E0,-2.146960020E0,-2.937189817E0
3.490311405E2,9.124430656E0,-2.172683001E0,-2.971885681E0
3.495311405E2,9.146564484E0,-2.166102648E0,-3.050250769E0
3.500311405E2,9.077172279E0,-2.166700840E0,-3.053241730E0
3.505311405E2,9.113663673E0,-2.171486616E0,-3.136392355E0
3.510311405E2,9.108877182E0,-2.157129526E0,-3.073580742E0
3.515311405E2,9.047860146E0,-2.166102648E0,-3.028116941E0
3.520311405E2,9.096315384E0,-2.163111687E0,-3.118446112E0
3.525311405E2,9.115457535E0,-2.161915302E0,-3.074178934E0
3.530311405E2,9.118449211E0,-2.178664923E0,-3.201596737E0
3.535311405E2,9.127422333E0,-2.190030813E0,-3.112463951E0
3.540311405E2,8.986245155E0,-2.139183521E0,-3.172882795E0
3.545311405E2,9.092725754E0,-2.236690998E0,-3.096312523E0
3.550311405E2,9.076574326E0,-2.218744755E0,-3.136392355E0
3.555311405E2,9.035298347E0,-2.318047047E0,-3.268595695E0
3.560311405E2,8.950352669E0,-2.304886341E0,-3.363112211E0
3.565311405E2,9.010173798E0,-2.222334146E0,-3.336791277E0
3.570311405E2,8.943174362E0,-2.405983210E0,-3.281756163E0
3.575311405E2,8.953942299E0,-2.313261271E0,-3.281756163E0
3.580311405E2,8.825926781E0,-2.509472847E0,-3.269792080E0
3.585311405E2,8.891729355E0,-2.389233351E0,-3.457030535E0
3.590311405E2,8.851649284E0,-2.427518606E0,-3.585644722E0
3.595311405E2,8.869595528E0,-2.444268227E0,-3.626322746E0
3.600311405E2,8.912068367E0,-2.321038008E0,-3.513859987E0
3.605311405E2,8.783453941E0,-2.458027124E0,-3.511467218E0
3.610311405E2,8.848658562E0,-2.184048891E0,-3.635295868E0
3.615311405E2,8.780462265E0,-2.394617319E0,-3.754936934E0
3.620311405E2,8.762516975E0,-2.236092806E0,-3.735794306E0
3.625311405E2,8.551948547E0,-2.395813704E0,-3.990031719E0
3.630311405E2,8.559724808E0,-2.311466694E0,-4.147359848E0
3.635311405E2,8.495717049E0,-2.264806747E0,-4.334000111E0
3.640311405E2,8.572287560E0,-2.372483730E0,-4.325026989E0
3.645311405E2,8.459824562E0,-2.298904419E0,-4.463810444E0
3.650311405E2,8.352746010E0,-2.388036966E0,-4.433301926E0
3.655311405E2,8.478966713E0,-2.114058733E0,-4.241278172E0
3.660311405E2,8.258229256E0,-2.408375978E0,-4.341776848E0
3.665311405E2,8.338388443E0,-2.063809633E0,-4.237090588E0
3.670311405E2,8.216953278E0,-2.405385017E0,-4.283152580E0
3.675311405E2,8.258827209E0,-2.206182480E0,-4.348356724E0
3.680311405E2,8.120043755E0,-2.271386862E0,-4.494917393E0
3.685311405E2,8.052446365E0,-2.311466694E0,-4.517649174E0
3.690311405E2,8.151150703E0,-2.238485575E0,-4.565505505E0
3.695311405E2,8.070392609E0,-2.352742910E0,-4.569094658E0
3.700311405E2,8.100302696E0,-2.164308071E0,-4.676771641E0
3.705311405E2,8.100302696E0,-2.347957134E0,-4.804787636E0
3.710311405E2,8.145168304E0,-2.424527645E0,-4.805984497E0
3.715311405E2,8.179863930E0,-2.349751949E0,-4.849653244E0
3.720311405E2,8.213961601E0,-2.294118643E0,-4.881358147E0
3.725311405E2,8.143373489E0,-2.402393818E0,-4.827519894E0
3.730311405E2,8.141578674E0,-2.289333105E0,-4.827519894E0
3.735311405E2,8.145168304E0,-2.267199516E0,-4.849653244E0
3.740311405E2,8.196614265E0,-2.374876499E0,-4.863411903E0
3.745311405E2,8.129016876E0,-2.392822742E0,-4.921437740E0
3.750311405E2,8.098507881E0,-2.428116798E0,-4.882554531E0
3.755311405E2,8.167900085E0,-2.260619164E0,-4.876572609E0
3.760311405E2,8.335397720E0,-2.456232548E0,-4.564309120E0
3.765311405E2,8.307880402E0,-2.343171597E0,-4.605585575E0
3.770311405E2,8.137392044E0,-2.445464849E0,-4.618147850E0
3.775311405E2,8.252246857E0,-2.279163599E0,-4.764708042E0
3.780311405E2,8.138587952E0,-2.330609322E0,-4.712066174E0
3.785311405E2,8.166105270E0,-2.437089920E0,-4.779663086E0
3.790311405E2,8.164310455E0,-2.411965132E0,-4.876572609E0
3.795311405E2,8.247461319E0,-2.538186550E0,-4.938786030E0
3.800311405E2,8.201399803E0,-2.561516523E0,-4.844867706E0
3.805311405E2,8.180462837E0,-2.621337175E0,-4.779065132E0
3.810311405E2,8.226524353E0,-2.635694027E0,-4.696512699E0
3.815311405E2,8.268398285E0,-2.735594511E0,-4.709074974E0
3.820311405E2,8.322237015E0,-2.560320139E0,-4.667798996E0
3.825311405E2,8.344370842E0,-2.690729141E0,-4.640879631E0
3.830311405E2,8.408378601E0,-2.605185747E0,-4.627718925E0
3.835311405E2,8.267800331E0,-2.603390932E0,-4.540380955E0
3.840311405E2,8.301898003E0,-2.555534601E0,-4.493721008E0
3.845311405E2,8.309076309E0,-2.442473650E0,-4.484149456E0
3.850311405E2,8.207381248E0,-2.391027927E0,-4.392025948E0
3.855311405E2,8.383254051E0,-2.202593327E0,-4.469792843E0
3.860311405E2,8.356932640E0,-2.231905222E0,-4.565505505E0
3.865311405E2,8.378468513E0,-2.322832584E0,-4.563711166E0
3.870311405E2,8.376673698E0,-2.209173441E0,-4.548157692E0
3.875311405E2,8.425726891E0,-2.129612207E0,-4.621138573E0
3.880311405E2,8.266604424E0,-2.021337032E0,-4.881358147E0
3.885311405E2,8.148757935E0,-2.116451740E0,-4.968696117E0
3.890311405E2,8.076972961E0,-1.926820397E0,-5.061418056E0
3.895311405E2,8.093722343E0,-2.150549412E0,-5.077569485E0
3.900311405E2,7.837092400E0,-2.061416626E0,-5.112864017E0
3.905311405E2,8.029116631E0,-2.201396942E0,-5.146363258E0
3.910311405E2,8.071588516E0,-2.203191519E0,-5.296513081E0
3.915311405E2,7.962117195E0,-2.117049932E0,-5.294718266E0
3.920311405E2,7.971688747E0,-2.214557409E0,-5.406582832E0
3.925311405E2,8.036892891E0,-2.207378864E0,-5.481358528E0
3.930311405E2,7.802396297E0,-2.407179594E0,-5.377869129E0
3.935311405E2,7.909475327E0,-2.293520451E0,-5.416153908E0
3.940311405E2,7.868797302E0,-2.396411896E0,-5.420341492E0
3.945311405E2,7.832306862E0,-2.324627161E0,-5.461617470E0
3.950311405E2,7.798807144E0,-2.328814745E0,-5.404788017E0
3.955311405E2,7.804191113E0,-2.321038008E0,-5.416153908E0
3.960311405E2,7.798807144E0,-2.513660192E0,-5.453841209E0
3.965311405E2,7.824530125E0,-2.426322222E0,-5.490331650E0
3.970311405E2,7.686942577E0,-2.432902336E0,-5.383851051E0
3.975311405E2,7.746165276E0,-2.512463808E0,-5.436492920E0
3.980311405E2,7.644470215E0,-2.450250387E0,-5.444868088E0
3.985311405E2,7.714460373E0,-2.475374937E0,-5.428118229E0
3.990311405E2,7.687541008E0,-2.455035925E0,-5.396413326E0
3.995311405E2,7.658827305E0,-2.468196630E0,-5.362913609E0
4.000311405E2,7.753942013E0,-2.450250387E0,-5.465207100E0
4.005311405E2,7.763513088E0,-2.468196630E0,-5.499902725E0
4.010311405E2,7.744370461E0,-2.477169752E0,-5.404788017E0
4.015311405E2,7.774878979E0,-2.453839540E0,-5.434698582E0
4.020311405E2,7.770093441E0,-2.458625317E0,-5.401797295E0
4.025311405E2,7.765905857E0,-2.465803623E0,-5.447858810E0
4.030311405E2,7.760521889E0,-2.480160713E0,-5.420939922E0
4.035311405E2,7.821538925E0,-2.448455811E0,-5.452046394E0
4.040311405E2,7.738388538E0,-2.499303341E0,-5.377270699E0
4.045311405E2,7.913662910E0,-2.467598438E0,-5.219344616E0
4.050311405E2,7.937591076E0,-2.443670034E0,-5.172086239E0
4.055311405E2,7.969295979E0,-2.475374937E0,-5.157729149E0
4.060311405E2,7.981259823E0,-2.453839540E0,-5.091926575E0
4.065311405E2,8.005187988E0,-2.471187592E0,-5.030909538E0
4.070311405E2,8.053044319E0,-2.465803623E0,-5.010570526E0
4.075311405E2,8.027321815E0,-2.456232548E0,-4.994419098E0
4.080311405E2,8.065607071E0,-2.453839540E0,-4.935196877E0
4.085311405E2,8.074580193E0,-2.443670034E0,-4.932804108E0
4.090311405E2,8.153543472E0,-2.442473650E0,-4.869992256E0
4.095311405E2,8.132605553E0,-2.448455811E0,-4.890929699E0
4.100311405E2,8.078168869E0,-2.462812662E0,-4.878366947E0
4.105311405E2,8.056035995E0,-2.484946251E0,-4.868795872E0
4.110311405E2,8.091329575E0,-2.456232548E0,-4.843072891E0
4.115311405E2,8.121239662E0,-2.425125837E0,-4.835296154E0
4.120311405E2,8.194221497E0,-2.434098721E0,-4.777868748E0
4.125311405E2,8.218149185E0,-2.469393015E0,-4.860421181E0
4.130311405E2,8.105088234E0,-2.440679073E0,-4.833501816E0
4.135311405E2,8.113463402E0,-2.461616278E0,-4.856233597E0
4.140311405E2,8.108677864E0,-2.438884497E0,-4.838287354E0
4.145311405E2,8.115258217E0,-2.468196630E0,-4.839483738E0
4.150311405E2,8.121239662E0,-2.475973129E0,-4.837090969E0
4.155311405E2,8.140382767E0,-2.470589399E0,-4.838287354E0
4.160311405E2,8.062017441E0,-2.443670034E0,-4.857429981E0
4.165311405E2,8.096115112E0,-2.469393015E0,-4.884947300E0
4.170311405E2,8.191229820E0,-2.450250387E0,-4.705485821E0
4.175311405E2,8.082955360E0,-2.421536446E0,-4.906482697E0
4.180311405E2,8.352147102E0,-2.292324066E0,-4.459024906E0
4.185311405E2,8.175078392E0,-2.419741869E0,-4.731208801E0
4.190311405E2,8.133802414E0,-2.465803623E0,-4.796412945E0
4.195311405E2,8.232506752E0,-2.461616278E0,-4.663012981E0
4.200311405E2,8.307880402E0,-2.447259426E0,-4.578666210E0
4.205311405E2,8.285746574E0,-2.467598438E0,-4.561916351E0
4.210311405E2,8.024331093E0,-2.461616278E0,-4.993222713E0
4.215311405E2,8.582456589E0,-2.417947292E0,-4.076173306E0
4.220311405E2,8.433503151E0,-2.407179594E0,-4.286143780E0
4.225311405E2,8.342576027E0,-2.450250387E0,-4.461417675E0
4.230311405E2,8.311469078E0,-2.441875458E0,-4.569094658E0
4.235311405E2,8.282755852E0,-2.469393015E0,-4.552345276E0
4.240311405E2,8.242675781E0,-2.446661234E0,-4.563711166E0
4.245311405E2,8.258827209E0,-2.463410854E0,-4.552345276E0
4.250311405E2,8.300103188E0,-2.483749866E0,-4.629513741E0
4.255311405E2,8.260024071E0,-2.439482689E0,-4.576273441E0
4.260311405E2,8.253443718E0,-2.455035925E0,-4.600201607E0
4.265311405E2,8.269595146E0,-2.461018085E0,-4.591228485E0
4.270311405E2,8.257032394E0,-2.449054003E0,-4.602594376E0
4.275311405E2,8.244470596E0,-2.435893536E0,-4.605585575E0
4.280311405E2,8.252246857E0,-2.453839540E0,-4.590630054E0
4.285311405E2,8.268398285E0,-2.441875458E0,-4.582853794E0
4.290311405E2,8.277371407E0,-2.451446772E0,-4.572085857E0
4.295311405E2,8.272585869E0,-2.442473650E0,-4.600201607E0
4.300311405E2,8.277371407E0,-2.437688112E0,-4.604987144E0
4.305311405E2,8.260024071E0,-2.448455811E0,-4.588237286E0
4.310311405E2,8.280961037E0,-2.463410854E0,-4.604987144E0
4.315311405E2,8.289934158E0,-2.456232548E0,-4.595416069E0
4.320311405E2,8.234899521E0,-2.432304144E0,-4.596014023E0
4.325311405E2,8.276175499E0,-2.449054003E0,-4.613361835E0
4.330311405E2,8.269595146E0,-2.446661234E0,-4.595416069E0
4.335311405E2,8.266005516E0,-2.444268227E0,-4.589433670E0
4.340311405E2,8.263014793E0,-2.456830740E0,-4.601995945E0
4.345311405E2,8.261817932E0,-2.449054003E0,-4.579862595E0
4.350311405E2,8.254041672E0,-2.431107759E0,-4.599005222E0
4.355311405E2,8.257032394E0,-2.461018085E0,-4.600799561E0
4.360311405E2,8.269595146E0,-2.418545485E0,-4.575077057E0
4.365311405E2,8.333602905E0,-2.424527645E0,-4.581058979E0
4.370311405E2,8.260024071E0,-2.449054003E0,-4.599005222E0
4.375311405E2,8.269595146E0,-2.437688112E0,-4.600201607E0
4.380311405E2,8.270791054E0,-2.458625317E0,-4.600201607E0
4.385311405E2,8.277371407E0,-2.451446772E0,-4.594219685E0
4.390311405E2,8.266005516E0,-2.447259426E0,-4.588237286E0
4.395311405E2,8.267800331E0,-2.435893536E0,-4.597808838E0
4.400311405E2,8.273183823E0,-2.437089920E0,-4.587639332E0
4.405311405E2,8.271389961E0,-2.429313183E0,-4.608576298E0
4.410311405E2,8.277970314E0,-2.439482689E0,-4.600201607E0
4.415311405E2,8.263612747E0,-2.445464849E0,-4.596014023E0
4.420311405E2,8.607581139E0,-2.514258385E0,-4.517649174E0
4.425311405E2,8.588438988E0,-2.377269268E0,-4.002593994E0
4.430311405E2,8.942576408E0,-2.357528448E0,-3.405584812E0
4.435311405E2,8.968298912E0,-2.311466694E0,-3.305086374E0
4.440311405E2,8.993423462E0,-2.289333105E0,-3.308675528E0
4.445311405E2,9.004789352E0,-2.277967215E0,-3.284149170E0
4.450311405E2,8.944371223E0,-2.281556368E0,-3.351148129E0
4.455311405E2,8.964710236E0,-2.301895380E0,-3.352942705E0
4.460311405E2,8.963513374E0,-2.288734913E0,-3.339184046E0
4.465311405E2,8.933005333E0,-2.270190477E0,-3.303889751E0
4.470311405E2,9.016156197E0,-2.252244234E0,-3.376870871E0
4.475311405E2,8.995218277E0,-2.223530531E0,-3.419941664E0
4.480311405E2,9.058030128E0,-2.239681959E0,-3.343371391E0
4.485311405E2,9.004789352E0,-2.245664120E0,-3.227319479E0
4.490311405E2,9.022137642E0,-2.236092806E0,-3.309871912E0
4.495311405E2,9.080163956E0,-2.194816589E0,-3.232105255E0
4.500311405E2,8.979066849E0,-2.261815548E0,-3.340380430E0
4.505311405E2,9.023932457E0,-2.142174482E0,-3.354737282E0
4.510311405E2,8.918647766E0,-2.234896421E0,-3.387040377E0
4.515311405E2,9.029315948E0,-2.160120726E0,-3.492324591E0
4.520311405E2,8.851649284E0,-2.250449657E0,-3.245863914E0
4.525311405E2,8.853444099E0,-2.255833626E0,-3.480360508E0
4.530311405E2,8.931210518E0,-2.255235434E0,-3.654438496E0
4.535311405E2,9.030512810E0,-2.330609322E0,-3.597010612E0
4.540311405E2,8.766105652E0,-1.976471543E0,-3.338585854E0
4.545311405E2,8.703892708E0,-2.254039049E0,-3.564109325E0
4.550311405E2,8.679366112E0,-2.188834429E0,-4.066003799E0
4.555311405E2,8.799007416E0,-2.190030813E0,-3.674179077E0
4.560311405E2,8.615358353E0,-2.099701881E0,-3.652643681E0
4.565311405E2,8.615956306E0,-2.169093609E0,-3.712464333E0
4.570311405E2,8.416753769E0,-2.282752752E0,-3.482155085E0
4.575311405E2,8.462815285E0,-2.283949137E0,-3.972085476E0
4.580311405E2,8.770293236E0,-2.525624275E0,-4.262215137E0
4.585311405E2,9.038289070E0,-2.331805706E0,-3.960719585E0
4.590311405E2,8.658429146E0,-2.267199516E0,-3.849453449E0
4.595311405E2,8.706883430E0,-2.085345030E0,-3.881158352E0
4.600311405E2,8.642875671E0,-2.273181438E0,-3.699303865E0
4.605311405E2,8.638090134E0,-2.108675003E0,-3.997210264E0
4.610311405E2,8.091329575E0,-2.507678032E0,-4.398007870E0
4.615311405E2,8.166105270E0,-2.270190477E0,-4.651647091E0
4.620311405E2,7.988438606E0,-2.462812662E0,-4.760520458E0
4.625311405E2,8.157731056E0,-2.413759947E0,-4.883152962E0
4.630311405E2,7.951947689E0,-2.649452925E0,-4.863411903E0
4.635311405E2,8.081160545E0,-2.632104874E0,-5.065007210E0
4.640311405E2,8.140382767E0,-2.735594511E0,-4.946562767E0
4.645311405E2,8.118248940E0,-2.713460922E0,-4.916652203E0
4.650311405E2,8.270791054E0,-2.695514679E0,-4.911866665E0
4.655311405E2,8.222934723E0,-2.571087837E0,-4.859224796E0
4.660311405E2,8.203792572E0,-2.599801779E0,-4.928018093E0
4.665311405E2,8.261219978E0,-2.172683001E0,-4.852644444E0
4.670311405E2,8.204390526E0,-2.471187592E0,-4.822733879E0
4.675311405E2,8.246863365E0,-2.466402054E0,-4.876572609E0
4.680311405E2,8.243872643E0,-2.633899450E0,-4.853840828E0
4.685311405E2,8.342576027E0,-2.237887383E0,-4.837090969E0
4.690311405E2,8.218149185E0,-2.424527645E0,-4.801796913E0
4.695311405E2,8.320442200E0,-2.361117840E0,-4.663012981E0
4.700311405E2,8.158329010E0,-2.270190477E0,-4.626522541E0
4.705311405E2,8.325826645E0,-2.470589399E0,-4.582853794E0
4.710311405E2,8.203792572E0,-2.251047850E0,-4.789234638E0
4.715311405E2,8.043473244E0,-2.391027927E0,-4.797011375E0
4.720311405E2,8.127222061E0,-2.260619164E0,-4.914857864E0
4.725311405E2,8.084151268E0,-2.484946251E0,-4.913063049E0
4.730311405E2,8.136793137E0,-2.463410854E0,-5.024927616E0
4.735311405E2,7.990232944E0,-2.418545485E0,-5.074578762E0
4.740311405E2,7.950153351E0,-2.410768747E0,-4.975874901E0
4.745311405E2,7.945367813E0,-2.432304144E0,-5.124229908E0
4.750311405E2,7.965108395E0,-2.407179594E0,-5.160121918E0
4.755311405E2,7.969295979E0,-2.512463808E0,-5.175076962E0
4.760311405E2,7.957331657E0,-2.354537487E0,-5.151148796E0
4.765311405E2,7.869395256E0,-2.465803623E0,-5.195415974E0
4.770311405E2,7.959724426E0,-2.490330219E0,-5.217549801E0
4.775311405E2,7.990831375E0,-2.468196630E0,-5.163711071E0
4.780311405E2,8.018946648E0,-2.293520451E0,-5.039284706E0
4.785311405E2,8.081160545E0,-2.464607239E0,-4.961517811E0
4.790311405E2,8.252246857E0,-2.391027927E0,-4.990231514E0
4.795311405E2,8.220541954E0,-2.309672117E0,-4.724628448E0
4.800311405E2,8.390432358E0,-2.279163599E0,-4.618147850E0
4.805311405E2,8.445467949E0,-2.598605394E0,-4.185645103E0
4.810311405E2,8.251648903E0,-2.551945448E0,-4.286143780E0
4.815311405E2,8.237292290E0,-2.566302299E0,-4.332803726E0
4.820311405E2,8.381459236E0,-2.565105915E0,-4.277170658E0
4.825311405E2,8.333602905E0,-2.566302299E0,-4.240081787E0
4.830311405E2,8.365307808E0,-2.743969440E0,-4.334598064E0
4.835311405E2,8.339585304E0,-2.581257343E0,-4.385445595E0
4.840311405E2,8.283951759E0,-2.678765059E0,-4.278367043E0
4.845311405E2,8.350951195E0,-2.633899450E0,-4.275375843E0
4.850311405E2,8.366504669E0,-2.619542599E0,-4.265804768E0
4.855311405E2,8.242077827E0,-2.630310297E0,-4.222135544E0
4.860311405E2,8.331808090E0,-2.608176708E0,-4.331008911E0
4.865311405E2,8.330612183E0,-2.652443886E0,-4.278367043E0
4.870311405E2,8.381459236E0,-2.550748825E0,-4.301098824E0
4.875311405E2,8.336593628E0,-2.697309256E0,-4.287938118E0
4.880311405E2,8.437092781E0,-2.554338217E0,-4.372883320E0
4.885311405E2,8.387441635E0,-2.684746981E0,-4.310669899E0
4.890311405E2,8.397012711E0,-2.533401012E0,-4.276572227E0
4.895311405E2,8.416753769E0,-2.702095032E0,-4.230510235E0
4.900311405E2,8.513663292E0,-2.566900492E0,-4.370490551E0
4.905311405E2,8.424530029E0,-2.596810818E0,-4.395017147E0
4.910311405E2,8.347960472E0,-2.563311338E0,-4.387240410E0
4.915311405E2,8.488538742E0,-2.419741869E0,-4.261018753E0
4.920311405E2,8.331808090E0,-2.595614433E0,-4.335794449E0
4.925311405E2,8.350951195E0,-2.488535643E0,-4.386641979E0
4.930311405E2,8.334799767E0,-2.740978241E0,-4.198207378E0
4.935311405E2,8.598010063E0,-2.568096876E0,-4.264009953E0
4.940311405E2,8.404789925E0,-2.736192703E0,-4.171886444E0
4.945311405E2,8.659027100E0,-2.733799934E0,-4.456632137E0
4.950311405E2,8.407182693E0,-2.867797852E0,-4.101297855E0
4.955311405E2,8.446663857E0,-2.858824968E0,-4.329812527E0
4.960311405E2,8.424530029E0,-2.754737139E0,-4.210171223E0
4.965311405E2,8.797810555E0,-2.700898647E0,-4.232305050E0
4.970311405E2,8.556734085E0,-2.650051117E0,-4.128217220E0
4.975311405E2,8.483752251E0,-2.715255499E0,-3.940380573E0
4.980311405E2,8.526823044E0,-2.826521635E0,-4.027718544E0
4.985311405E2,8.400003433E0,-2.890529871E0,-4.187439442E0
4.990311405E2,8.502895355E0,-2.673381090E0,-4.028316975E0
4.995311405E2,8.539385796E0,-2.766103029E0,-3.951148272E0
5.000311405E2,8.567501068E0,-2.604587555E0,-4.069592953E0
5.005311405E2,8.500502586E0,-2.686541557E0,-4.066003799E0
5.010311405E2,8.522037506E0,-2.700300455E0,-4.207778454E0
5.015311405E2,8.566305161E0,-2.718246460E0,-4.179064751E0
5.020311405E2,8.607581139E0,-2.377269268E0,-3.942175388E0
5.025311405E2,8.286943436E0,-2.620738983E0,-3.969094515E0
5.030311405E2,8.464012146E0,-2.488535643E0,-4.171886444E0
5.035311405E2,8.566305161E0,-2.520838737E0,-4.206582069E0
5.040311405E2,8.652446747E0,-2.434098721E0,-4.164707661E0
5.045311405E2,8.577073097E0,-2.330609322E0,-4.217947960E0
5.050311405E2,8.563314438E0,-2.469393015E0,-4.182653904E0
5.055311405E2,8.591429710E0,-2.149951220E0,-4.270590305E0
5.060311405E2,8.450253487E0,-2.233101845E0,-4.236492634E0
5.065311405E2,8.593822479E0,-2.096112728E0,-4.250849247E0
5.070311405E2,8.517251968E0,-2.145165443E0,-4.463810444E0
5.075311405E2,8.551948547E0,-2.247458696E0,-4.290929317E0
5.080311405E2,8.518448830E0,-2.086541414E0,-4.424927235E0
5.085311405E2,8.450253487E0,-2.155334949E0,-4.697709084E0
5.090311405E2,8.215158463E0,-2.313261271E0,-4.528416634E0
5.095311405E2,8.301300049E0,-2.309672117E0,-4.782654285E0
5.100311405E2,8.320442200E0,-2.394019127E0,-4.807778835E0
5.105311405E2,8.196015358E0,-2.242672920E0,-4.541577339E0
5.110311405E2,8.322237015E0,-2.322832584E0,-4.787439823E0
5.115311405E2,8.292326927E0,-2.386840582E0,-4.886143684E0
5.120311405E2,8.215756416E0,-2.508874655E0,-4.834698200E0
5.125311405E2,8.109873772E0,-2.486740828E0,-4.773082733E0
5.130311405E2,7.969295979E0,-2.461018085E0,-4.786841869E0
5.135311405E2,8.036892891E0,-2.491526604E0,-4.887938499E0
5.140311405E2,7.980661869E0,-2.487339020E0,-4.879563808E0
5.145311405E2,7.896314621E0,-2.580659151E0,-4.942375183E0
5.150311405E2,7.878368378E0,-2.598605394E0,-4.953142643E0
5.155311405E2,7.919046402E0,-2.647658348E0,-5.055436134E0
5.160311405E2,7.935796261E0,-2.555534601E0,-5.012365341E0
5.165311405E2,7.845467091E0,-2.711666346E0,-5.123631477E0
5.170311405E2,7.788039684E0,-2.577668190E0,-5.131408215E0
5.175311405E2,7.708477974E0,-2.614158630E0,-5.167300701E0
5.180311405E2,7.773682594E0,-2.624328136E0,-5.246861935E0
5.185311405E2,7.783253670E0,-2.566302299E0,-5.256433010E0
5.190311405E2,7.810173035E0,-2.563311338E0,-5.353342533E0
5.195311405E2,7.749754429E0,-2.630908489E0,-5.436492920E0
5.200311405E2,7.669594765E0,-2.534597397E0,-5.377270699E0
5.205311405E2,7.752745152E0,-2.671586514E0,-5.288137913E0
5.210311405E2,7.775477409E0,-2.525624275E0,-5.431707382E0
5.215311405E2,7.646264553E0,-2.595614433E0,-5.320441246E0
5.220311405E2,7.712665558E0,-2.576471806E0,-5.371288776E0
5.225311405E2,7.782655716E0,-2.621337175E0,-5.358726501E0
5.230311405E2,7.806583881E0,-2.587837696E0,-5.349154949E0
5.235311405E2,7.724031448E0,-2.602194548E0,-5.340780258E0
5.240311405E2,7.823333740E0,-2.568096876E0,-5.343770981E0
5.245311405E2,7.765307903E0,-2.617748022E0,-5.302495003E0
5.250311405E2,7.858029366E0,-2.582453728E0,-5.288137913E0
5.255311405E2,7.824530125E0,-2.592623234E0,-5.277370453E0
5.260311405E2,7.804191113E0,-2.586043119E0,-5.270790100E0
5.265311405E2,7.816154957E0,-2.583052158E0,-5.289932728E0
5.270311405E2,7.713263988E0,-2.603390932E0,-5.356333256E0
5.275311405E2,7.746165276E0,-2.583052158E0,-5.350351334E0
5.280311405E2,7.709674358E0,-2.569891453E0,-5.363512039E0
5.285311405E2,7.752745152E0,-2.571087837E0,-5.334797859E0
5.290311405E2,7.806583881E0,-2.586043119E0,-5.367699623E0
5.295311405E2,7.792226791E0,-2.581257343E0,-5.367699623E0
5.300311405E2,7.749155998E0,-2.566900492E0,-5.369493961E0
5.305311405E2,7.749155998E0,-2.563311338E0,-5.346762180E0
5.310311405E2,7.852047443E0,-2.596810818E0,-5.346762180E0
5.315311405E2,7.718049526E0,-2.571686029E0,-5.326423168E0
5.320311405E2,7.770093441E0,-2.598605394E0,-5.344369411E0
5.325311405E2,7.715656757E0,-2.584248543E0,-5.383851051E0
5.330311405E2,7.741379261E0,-2.549552441E0,-5.240281582E0
5.335311405E2,8.232506752E0,-2.597409010E0,-4.802993298E0
5.340311405E2,8.159524918E0,-2.542374134E0,-4.648656368E0
5.345311405E2,8.190033913E0,-2.558525562E0,-4.668995380E0
5.350311405E2,8.187042236E0,-2.547159672E0,-4.675575256E0
5.355311405E2,8.148757935E0,-2.592025042E0,-4.657629490E0
5.360311405E2,8.178668022E0,-2.573480844E0,-4.668995380E0
5.365311405E2,8.231309891E0,-2.571087837E0,-4.715056896E0
5.370311405E2,8.172087669E0,-2.566900492E0,-4.660022259E0
5.375311405E2,8.145168304E0,-2.562114954E0,-4.664209366E0
5.380311405E2,8.196015358E0,-2.556730986E0,-4.667798996E0
5.385311405E2,8.196614265E0,-2.542374134E0,-4.679164886E0
5.390311405E2,8.161319733E0,-2.562114954E0,-4.670789719E0
5.395311405E2,8.193024635E0,-2.551945448E0,-4.686343193E0
5.400311405E2,8.194819450E0,-2.547757864E0,-4.691128731E0
5.405311405E2,8.200801849E0,-2.562114954E0,-4.692923546E0
5.410311405E2,8.209176064E0,-2.552543640E0,-4.686941147E0
5.415311405E2,8.181658745E0,-2.539382935E0,-4.654638290E0
5.420311405E2,8.188239098E0,-2.582453728E0,-4.666004181E0
5.425311405E2,8.177471161E0,-2.547757864E0,-4.667798996E0
5.430311405E2,8.186444283E0,-2.532802820E0,-4.689932346E0
5.435311405E2,8.169096947E0,-2.563311338E0,-4.680361271E0
5.440311405E2,8.178668022E0,-2.560320139E0,-4.671986103E0
5.445311405E2,8.178668022E0,-2.556730986E0,-4.652843475E0
5.450311405E2,8.181658745E0,-2.581257343E0,-4.699503899E0
5.455311405E2,8.167900085E0,-2.573480844E0,-4.657629490E0
5.460311405E2,8.185248375E0,-2.568096876E0,-4.701298237E0
5.465311405E2,8.163114548E0,-2.552543640E0,-4.703093052E0
5.470311405E2,8.191828728E0,-2.558525562E0,-4.683950424E0
5.475311405E2,8.180462837E0,-2.568096876E0,-4.688735962E0
5.480311405E2,8.167302132E0,-2.577668190E0,-4.678566456E0
5.485311405E2,8.188239098E0,-2.576471806E0,-4.673780918E0
5.490311405E2,8.160721779E0,-2.542972326E0,-4.683351994E0
5.495311405E2,8.193024635E0,-2.551945448E0,-4.715655327E0
5.500311405E2,8.199007034E0,-2.553740025E0,-4.693521500E0
5.505311405E2,8.208578110E0,-2.577668190E0,-4.652843475E0
5.510311405E2,8.153543472E0,-2.700898647E0,-4.720440865E0
5.515311405E2,8.183453560E0,-2.807977438E0,-4.541577339E0
5.520311405E2,8.210372925E0,-2.851048231E0,-4.279563427E0
5.525311405E2,8.247461319E0,-3.115455151E0,-3.979862213E0
5.530311405E2,8.123034477E0,-3.111865759E0,-4.310669899E0
5.535311405E2,8.132007599E0,-3.061018467E0,-4.470989227E0
5.540311405E2,8.073383331E0,-3.084946632E0,-4.493721008E0
5.545311405E2,8.105687141E0,-3.071187973E0,-4.473381996E0
5.550311405E2,8.103293419E0,-3.045464993E0,-4.563711166E0
5.555311405E2,8.105088234E0,-3.035295486E0,-4.548157692E0
5.560311405E2,8.102097511E0,-3.037688255E0,-4.579862595E0
5.565311405E2,8.100302696E0,-3.037688255E0,-4.511667252E0
5.570311405E2,8.115258217E0,-3.034099102E0,-4.508078098E0
5.575311405E2,8.100302696E0,-3.035893679E0,-4.490131855E0
5.580311405E2,8.116454124E0,-3.007179976E0,-4.509274483E0
5.585311405E2,8.109873772E0,-2.991028309E0,-4.516452789E0
5.590311405E2,8.127820015E0,-3.000599623E0,-4.511068821E0
5.595311405E2,8.105687141E0,-3.014956474E0,-4.487739086E0
5.600311405E2,8.087740898E0,-3.035893679E0,-4.502095699E0
5.605311405E2,8.108079910E0,-3.002394199E0,-4.516452789E0
5.610311405E2,8.121239662E0,-2.997608662E0,-4.499702930E0
5.615311405E2,8.113463402E0,-2.986242771E0,-4.545166492E0
5.620311405E2,8.123034477E0,-2.997608662E0,-4.511068821E0
5.625311405E2,8.113463402E0,-2.999403238E0,-4.514060020E0
5.630311405E2,8.108677864E0,-3.001796007E0,-4.502095699E0
5.635311405E2,8.106883049E0,-3.000599623E0,-4.536791801E0
5.640311405E2,8.106883049E0,-2.989831924E0,-4.506283283E0
5.645311405E2,8.095517159E0,-2.989831924E0,-4.557728767E0
5.650311405E2,8.105687141E0,-2.992822886E0,-4.540380955E0
5.655311405E2,8.082955360E0,-2.988037348E0,-4.537988186E0
5.660311405E2,8.096115112E0,-2.994019270E0,-4.516452789E0
5.665311405E2,8.111668587E0,-2.978466034E0,-4.528416634E0
5.670311405E2,8.119445801E0,-2.977867842E0,-4.592424870E0
5.675311405E2,8.117650986E0,-2.970091105E0,-4.576871395E0
5.680311405E2,8.113463402E0,-2.984447956E0,-4.551148891E0
5.685311405E2,8.091329575E0,-2.992224693E0,-4.535595417E0
5.690311405E2,8.273183823E0,-3.011965513E0,-4.344169617E0
5.695311405E2,8.304290771E0,-2.886940479E0,-4.217947960E0
5.700311405E2,8.651249886E0,-2.866601467E0,-3.681357622E0
5.705311405E2,8.706883430E0,-2.807977438E0,-3.472583771E0
5.710311405E2,8.723034859E0,-2.834896564E0,-3.467798233E0
5.715311405E2,8.779864311E0,-2.784049034E0,-3.453441381E0
5.720311405E2,8.781659126E0,-2.790031195E0,-3.472583771E0
5.725311405E2,8.745168686E0,-2.809173822E0,-3.422932863E0
5.730311405E2,8.739784241E0,-2.810370207E0,-3.489931822E0
5.735311405E2,8.775078773E0,-2.812762976E0,-3.488735437E0
5.740311405E2,8.737391472E0,-2.799602509E0,-3.410968781E0
5.745311405E2,8.749954224E0,-2.818745136E0,-3.467798233E0
5.750311405E2,8.765507698E0,-2.812762976E0,-3.444468260E0
5.755311405E2,8.776873589E0,-2.844467878E0,-3.410370588E0
5.760311405E2,8.803792953E0,-2.821736097E0,-3.377469063E0
5.765311405E2,8.699107170E0,-2.870190859E0,-3.456432343E0
5.770311405E2,8.778668404E0,-2.874976397E0,-3.525225878E0
5.775311405E2,8.780462265E0,-2.906681299E0,-3.394817114E0
5.780311405E2,8.724231720E0,-2.863012314E0,-3.494717360E0
5.785311405E2,8.650651932E0,-2.886940479E0,-3.425325632E0
5.790311405E2,8.682954788E0,-2.916252613E0,-3.564109325E0
5.795311405E2,8.537590981E0,-2.931805849E0,-3.601796389E0
5.800311405E2,8.556734085E0,-2.962314367E0,-3.632304668E0
5.805311405E2,8.515457153E0,-2.934797049E0,-3.769293785E0
5.810311405E2,8.557929993E0,-2.978466034E0,-3.672384501E0
5.815311405E2,8.376075745E0,-2.903690338E0,-3.839283943E0
5.820311405E2,8.385646820E0,-2.988037348E0,-3.824927092E0
5.825311405E2,8.317451477E0,-2.963510752E0,-3.855435371E0
5.830311405E2,8.376673698E0,-3.003590584E0,-3.906282902E0
5.835311405E2,8.421539307E0,-2.797807932E0,-3.973880291E0
5.840311405E2,8.314460754E0,-2.957528830E0,-3.986442566E0
5.845311405E2,8.377870560E0,-2.788236618E0,-4.127020836E0
5.850311405E2,8.514859200E0,-2.731407166E0,-4.195216179E0
5.855311405E2,8.532805443E0,-2.818745136E0,-4.113860130E0
5.860311405E2,8.457431793E0,-2.759522676E0,-4.258028030E0
5.865311405E2,8.457431793E0,-2.672184706E0,-4.142574310E0
5.870311405E2,8.676374435E0,-2.526820660E0,-4.358526230E0
5.875311405E2,8.464012146E0,-2.611167669E0,-4.581058979E0
5.880311405E2,8.432307243E0,-2.507678032E0,-4.826921463E0
5.885311405E2,8.445467949E0,-2.212164640E0,-4.889134884E0
5.890311405E2,8.253443718E0,-2.449054003E0,-4.941776752E0
5.895311405E2,8.309675217E0,-2.470589399E0,-4.954339504E0
5.900311405E2,8.301300049E0,-2.513660192E0,-4.869992256E0
5.905311405E2,8.486743927E0,-2.569891453E0,-4.875376225E0
5.910311405E2,8.404789925E0,-2.373680115E0,-4.899304390E0
5.915311405E2,8.137392044E0,-2.482553482E0,-4.881358147E0
5.920311405E2,8.279166222E0,-2.582453728E0,-5.060221672E0
5.925311405E2,8.146963120E0,-2.534597397E0,-4.907081127E0
5.930311405E2,8.280363083E0,-2.463410854E0,-4.853840828E0
5.935311405E2,8.074580193E0,-2.481955290E0,-4.674378872E0
5.940311405E2,8.373682976E0,-2.414956331E0,-4.792225361E0
5.945311405E2,8.017151833E0,-2.716451883E0,-4.853840828E0
5.950311405E2,8.349754333E0,-2.508874655E0,-4.836492538E0
5.955311405E2,8.093722343E0,-2.684746981E0,-4.733003139E0
5.960311405E2,8.081160545E0,-2.554338217E0,-4.776073933E0
5.965311405E2,8.060821533E0,-2.877369165E0,-4.884947300E0
5.970311405E2,8.185248375E0,-2.853441000E0,-4.628915310E0
5.975311405E2,8.024331093E0,-2.988037348E0,-4.700700283E0
5.980311405E2,8.130811691E0,-2.976671457E0,-4.964509010E0
5.985311405E2,8.087740898E0,-2.873181820E0,-4.748556614E0
5.990311405E2,8.085946083E0,-2.874976397E0,-4.719842434E0
5.995311405E2,7.976474285E0,-2.939582586E0,-4.826921463E0
6.000311405E2,7.969893932E0,-2.686541557E0,-4.766502857E0
6.005311405E2,8.001599312E0,-2.980260611E0,-4.695914268E0
6.010311405E2,7.909475327E0,-2.877369165E0,-4.744369030E0
6.015311405E2,8.097311974E0,-2.884547710E0,-4.739583492E0
6.020311405E2,8.142177582E0,-2.937189817E0,-4.850849628E0
6.025311405E2,8.118248940E0,-2.866601467E0,-4.782654285E0
6.030311405E2,7.939385414E0,-2.903690338E0,-4.624129772E0
6.035311405E2,8.071588516E0,-2.950948477E0,-4.608576298E0
6.040311405E2,8.084151268E0,-2.997010469E0,-4.650450706E0
6.045311405E2,8.084151268E0,-2.839084148E0,-4.706083775E0
6.050311405E2,8.072187424E0,-2.868396044E0,-4.728217602E0
6.055311405E2,8.110472679E0,-3.035893679E0,-4.699503899E0
6.060311405E2,8.138587952E0,-2.812762976E0,-4.661218643E0
6.065311405E2,8.028517723E0,-3.000599623E0,-4.816154003E0
6.070311405E2,8.030312538E0,-2.901297569E0,-4.677370071E0
6.075311405E2,8.126026154E0,-2.787040234E0,-4.777868748E0
6.080311405E2,8.113463402E0,-3.051447153E0,-4.535595417E0
6.085311405E2,7.878966808E0,-2.810968399E0,-4.902295589E0
6.090311405E2,8.006384850E0,-3.095116138E0,-4.654638290E0
6.095311405E2,8.126026154E0,-2.715255499E0,-4.683950424E0
6.100311405E2,8.124231339E0,-2.762513638E0,-4.681557655E0
6.105311405E2,8.100900650E0,-2.649452925E0,-4.834698200E0
6.110311405E2,8.376075745E0,-2.819941521E0,-4.743771076E0
6.115311405E2,8.349754333E0,-2.752942562E0,-4.770092010E0
6.120311405E2,8.322237015E0,-2.633301258E0,-4.588237286E0
6.125311405E2,8.397610664E0,-2.625524759E0,-4.579862595E0
6.130311405E2,8.346165657E0,-2.563311338E0,-4.700700283E0
6.135311405E2,8.391031265E0,-2.589034081E0,-4.616951466E0
6.140311405E2,8.441878319E0,-2.590230465E0,-4.788636208E0
6.145311405E2,8.294719696E0,-2.873181820E0,-4.423132420E0
6.150311405E2,8.179863930E0,-2.763111830E0,-4.552345276E0
6.155311405E2,8.468797684E0,-2.685943365E0,-4.346562386E0
6.160311405E2,8.294719696E0,-2.890529871E0,-4.254438877E0
6.165311405E2,8.388039589E0,-2.927020311E0,-4.368097782E0
6.170311405E2,8.363512993E0,-2.941377163E0,-4.356133461E0
6.175311405E2,8.215756416E0,-2.877967358E0,-4.289732933E0
6.180311405E2,8.172087669E0,-2.973680258E0,-4.258028030E0
6.185311405E2,8.105687141E0,-3.047259569E0,-4.279563427E0
6.190311405E2,8.152944565E0,-3.266801119E0,-4.268795490E0
6.195311405E2,8.216953278E0,-3.303889751E0,-4.423132420E0
6.200311405E2,8.216953278E0,-3.206382275E0,-4.249652863E0
6.205311405E2,8.210970879E0,-3.084946632E0,-4.274777889E0
6.210311405E2,8.230113029E0,-3.281157970E0,-4.246662140E0
6.215311405E2,7.981259823E0,-3.360719442E0,-4.699503899E0
6.220311405E2,7.993224144E0,-3.305086374E0,-4.716851711E0
6.225311405E2,7.851449490E0,-3.289532900E0,-4.746163845E0
6.230311405E2,7.792825222E0,-3.310470104E0,-4.693521500E0
6.235311405E2,7.872386456E0,-3.384647608E0,-4.755734921E0
6.240311405E2,7.954938889E0,-3.233899832E0,-4.858626366E0
6.245311405E2,7.866404533E0,-3.157329559E0,-4.822733879E0
6.250311405E2,7.808976650E0,-2.965305567E0,-4.766502857E0
6.255311405E2,7.853243828E0,-2.968894720E0,-4.882554531E0
6.260311405E2,7.856235027E0,-2.988037348E0,-4.959722996E0
6.265311405E2,7.807182312E0,-2.866601467E0,-4.968696117E0
6.270311405E2,7.764111042E0,-2.900100946E0,-5.054837704E0
6.275311405E2,7.765307903E0,-2.775674343E0,-5.252843857E0
6.280311405E2,7.640881062E0,-2.925225735E0,-5.390431404E0
6.285311405E2,7.572087288E0,-3.005385160E0,-5.291727066E0
6.290311405E2,7.622336388E0,-2.890529871E0,-5.399404526E0
6.295311405E2,7.473383427E0,-3.007179976E0,-5.425127029E0
6.300311405E2,7.576872826E0,-2.633301258E0,-5.648856163E0
6.305311405E2,7.392625332E0,-3.059223652E0,-5.458626747E0
6.310311405E2,7.510472298E0,-2.913261652E0,-5.534000397E0
6.315311405E2,7.492526054E0,-3.087937593E0,-5.433502197E0
6.320311405E2,7.506882668E0,-2.786442041E0,-5.395216942E0
6.325311405E2,7.672585964E0,-3.037688255E0,-5.640480995E0
6.330311405E2,7.753942013E0,-2.665604353E0,-5.469992638E0
6.335311405E2,7.792226791E0,-2.955734253E0,-5.522634506E0
6.340311405E2,7.629515171E0,-3.025724173E0,-5.385047436E0
6.345311405E2,7.620542049E0,-2.779263496E0,-5.299503803E0
6.350311405E2,7.558328629E0,-2.999403238E0,-5.353940487E0
6.355311405E2,7.684549809E0,-2.903092146E0,-5.447858810E0
6.360311405E2,7.684549809E0,-2.904886723E0,-5.359922886E0
6.365311405E2,7.587042332E0,-2.950948477E0,-5.286941528E0
6.370311405E2,7.463811874E0,-2.854039192E0,-5.279763222E0
6.375311405E2,7.634898663E0,-2.924029350E0,-5.297709465E0
6.380311405E2,7.648657799E0,-2.939582586E0,-5.382056236E0
6.385311405E2,7.670193195E0,-2.879163742E0,-5.358726501E0
6.390311405E2,7.682157040E0,-2.950948477E0,-5.305486202E0
6.395311405E2,7.661818027E0,-2.892324448E0,-5.286343575E0
6.400311405E2,7.653443336E0,-2.880958557E0,-5.258227825E0
6.405311405E2,7.668398380E0,-2.877369165E0,-5.300700188E0
6.410311405E2,7.645666599E0,-2.927618504E0,-5.374279499E0
6.415311405E2,7.648657799E0,-2.914458036E0,-5.358128071E0
6.420311405E2,7.636693478E0,-2.874976397E0,-5.321637630E0
6.425311405E2,7.620542049E0,-2.946162939E0,-5.366502762E0
6.430311405E2,7.579265594E0,-2.896511793E0,-5.376074314E0
6.435311405E2,7.624729156E0,-2.913261652E0,-5.423332691E0
6.440311405E2,7.593024254E0,-2.927020311E0,-5.414359570E0
6.445311405E2,7.578667641E0,-2.913261652E0,-5.404190063E0
6.450311405E2,7.663612843E0,-2.917448997E0,-5.394618511E0
6.455311405E2,7.634898663E0,-2.882753134E0,-5.416153908E0
6.460311405E2,7.671389580E0,-2.939582586E0,-5.365904808E0
6.465311405E2,7.658228874E0,-2.927020311E0,-5.346762180E0
6.470311405E2,7.668398380E0,-2.952743053E0,-5.353940487E0
6.475311405E2,7.591827869E0,-2.919243574E0,-5.402993679E0
6.480311405E2,7.607979774E0,-2.894119024E0,-5.395216942E0
6.485311405E2,7.604390144E0,-2.930011272E0,-5.436492920E0
6.490311405E2,7.560122967E0,-2.924029350E0,-5.447260857E0
6.495311405E2,7.602595806E0,-2.928814888E0,-5.442475319E0
6.500311405E2,7.631309509E0,-2.922234535E0,-5.444269657E0
6.505311405E2,7.526025295E0,-2.936591625E0,-5.481358528E0
6.510311405E2,7.548159122E0,-2.925225735E0,-5.519045353E0
6.515311405E2,7.607381344E0,-2.930011272E0,-5.463412285E0
6.520311405E2,7.606184959E0,-2.943171740E0,-5.418546677E0
6.525311405E2,7.573882103E0,-2.928814888E0,-5.436492920E0
6.530311405E2,7.514659405E0,-2.949752092E0,-5.516054630E0
6.535311405E2,7.619943619E0,-2.920439959E0,-5.490331650E0
6.540311405E2,7.623532772E0,-2.927618504E0,-5.375475883E0
6.545311405E2,7.826324463E0,-2.959323406E0,-5.279763222E0
6.550311405E2,7.931608677E0,-2.886940479E0,-4.790431023E0
6.555311405E2,7.974679470E0,-2.917448997E0,-4.856233597E0
6.560311405E2,7.966304779E0,-2.903092146E0,-4.798805714E0
6.565311405E2,7.987242222E0,-2.896511793E0,-4.855635166E0
6.570311405E2,8.009973526E0,-2.907877684E0,-4.804787636E0
6.575311405E2,7.999804497E0,-2.898306370E0,-4.807778835E0
6.580311405E2,7.987242222E0,-2.908475876E0,-4.812564373E0
6.585311405E2,8.023732185E0,-2.865405083E0,-4.851448059E0
6.590311405E2,7.990831375E0,-2.908475876E0,-4.832305431E0
6.595311405E2,7.950153351E0,-2.903092146E0,-4.805984497E0
6.600311405E2,7.974679470E0,-2.887538671E0,-4.749154568E0
6.605311405E2,8.012965202E0,-2.879163742E0,-4.822135925E0
6.610311405E2,8.000402451E0,-2.887538671E0,-4.819144726E0
6.615311405E2,7.959724426E0,-2.927618504E0,-4.822135925E0
6.620311405E2,7.953742504E0,-2.874976397E0,-4.796412945E0
6.625311405E2,7.977670670E0,-2.879761934E0,-4.825725079E0
6.630311405E2,8.023732185E0,-2.886940479E0,-4.783850670E0
6.635311405E2,8.014759064E0,-2.865405083E0,-4.830510616E0
6.640311405E2,7.998608112E0,-2.903092146E0,-4.816154003E0
6.645311405E2,7.998608112E0,-2.900100946E0,-4.820939541E0
6.650311405E2,7.961519241E0,-2.903092146E0,-4.916054249E0
6.655311405E2,7.958528042E0,-2.936591625E0,-4.823930264E0
6.660311405E2,7.957331657E0,-2.918047190E0,-4.789234638E0
6.665311405E2,7.945965767E0,-2.935395241E0,-4.869992256E0
6.670311405E2,7.964509964E0,-2.922832966E0,-4.793421745E0
6.675311405E2,7.933403492E0,-2.960519791E0,-4.773082733E0
6.680311405E2,7.995018482E0,-2.903092146E0,-4.791627407E0
6.685311405E2,8.079365730E0,-2.755335331E0,-4.563711166E0
6.690311405E2,7.972885132E0,-2.877369165E0,-4.643870354E0
6.695311405E2,7.969295979E0,-2.908475876E0,-4.913661480E0
6.700311405E2,7.931010723E0,-2.961117983E0,-4.871787071E0
6.705311405E2,7.947162151E0,-2.950948477E0,-4.822135925E0
6.710311405E2,7.953742504E0,-2.925225735E0,-4.846662045E0
6.715311405E2,7.957331657E0,-2.914458036E0,-4.837090969E0
6.720311405E2,7.969893932E0,-2.906681299E0,-4.835296154E0
6.725311405E2,7.953742504E0,-2.935395241E0,-4.814359188E0
6.730311405E2,7.996813297E0,-2.898306370E0,-4.837090969E0
6.735311405E2,7.962117195E0,-2.919243574E0,-4.784449100E0
6.740311405E2,7.982456207E0,-2.890529871E0,-4.807778835E0
6.745311405E2,7.995616913E0,-2.879163742E0,-4.817948341E0
6.750311405E2,7.993822098E0,-2.880958557E0,-4.801796913E0
6.755311405E2,7.990831375E0,-2.879163742E0,-4.813162804E0
6.760311405E2,7.987242222E0,-2.880958557E0,-4.797011375E0
6.765311405E2,7.979465485E0,-2.901895761E0,-4.774279594E0
6.770311405E2,8.006384850E0,-2.869592667E0,-4.805984497E0
6.775311405E2,7.987242222E0,-2.863610506E0,-4.809573650E0
6.780311405E2,8.009973526E0,-2.864806890E0,-4.816154003E0
6.785311405E2,7.986045361E0,-2.882154942E0,-4.793421745E0
6.790311405E2,7.996813297E0,-2.853441000E0,-4.794020176E0
6.795311405E2,8.007580757E0,-2.885744095E0,-4.772484779E0
6.800311405E2,7.999804497E0,-2.874378204E0,-4.794020176E0
6.805311405E2,7.975875854E0,-2.873181820E0,-4.816154003E0
6.810311405E2,8.009973526E0,-2.860619545E0,-4.804787636E0
6.815311405E2,7.978867054E0,-2.879163742E0,-4.801796913E0
6.820311405E2,7.998608112E0,-2.867797852E0,-4.800002098E0
6.825311405E2,8.017151833E0,-2.850450039E0,-4.825126648E0
6.830311405E2,8.005187988E0,-2.882154942E0,-4.816154003E0
6.835311405E2,7.982456207E0,-2.874976397E0,-4.805984497E0
6.840311405E2,7.995616913E0,-2.879163742E0,-4.831707001E0
6.845311405E2,8.196015358E0,-2.933600664E0,-4.582853794E0
6.850311405E2,8.306085587E0,-2.802593470E0,-4.335794449E0
6.855311405E2,8.734998703E0,-2.729014158E0,-3.659822226E0
6.860311405E2,8.754141808E0,-2.723032236E0,-3.643072367E0
6.865311405E2,8.767302513E0,-2.738585472E0,-3.571287870E0
6.870311405E2,8.743373871E0,-2.715255499E0,-3.638286829E0
6.875311405E2,8.792427063E0,-2.700300455E0,-3.628715515E0
6.880311405E2,8.772088051E0,-2.712264538E0,-3.659822226E0
6.885311405E2,8.706285477E0,-2.715255499E0,-3.673580885E0
6.890311405E2,8.806783676E0,-2.689532757E0,-3.652643681E0
6.895311405E2,8.758927345E0,-2.690729141E0,-3.637090445E0
6.900311405E2,8.713463783E0,-2.715255499E0,-3.571886063E0
6.905311405E2,8.740383148E0,-2.700898647E0,-3.588037491E0
6.910311405E2,8.775078773E0,-2.709871531E0,-3.616153240E0
6.915311405E2,8.802596092E0,-2.683550596E0,-3.590430260E0
6.920311405E2,8.802596092E0,-2.681157827E0,-3.647858143E0
6.925311405E2,8.816354752E0,-2.707478762E0,-3.568894863E0
6.930311405E2,8.690732002E0,-2.764906645E0,-3.665804386E0
6.935311405E2,8.732007980E0,-2.696112871E0,-3.650250912E0
6.940311405E2,8.684749603E0,-2.807379246E0,-3.715455294E0
6.945311405E2,8.458029747E0,-2.659024239E0,-3.653241873E0
6.950311405E2,8.566305161E0,-2.700300455E0,-3.735794306E0
6.955311405E2,8.480163574E0,-2.671586514E0,-3.851248026E0
6.960311405E2,8.591429710E0,-2.777468920E0,-4.013361931E0
6.965311405E2,8.480163574E0,-2.780459881E0,-3.968496323E0
6.970311405E2,8.505886078E0,-2.682952404E0,-4.006781578E0
6.975311405E2,8.403593063E0,-2.748754978E0,-3.944568157E0
6.980311405E2,8.413164139E0,-2.700300455E0,-4.124029636E0
6.985311405E2,8.536395073E0,-2.705684185E0,-4.155136585E0
6.990311405E2,8.287541389E0,-2.763111830E0,-4.130012035E0
6.995311405E2,8.321041107E0,-2.731407166E0,-4.268795490E0
7.000311405E2,8.383254051E0,-2.745165825E0,-4.418945312E0
7.005311405E2,8.606385231E0,-2.777468920E0,-4.328018188E0
7.010311405E2,8.467002869E0,-2.774477959E0,-4.316651821E0
7.015311405E2,8.560322762E0,-2.699103832E0,-4.303491592E0
7.020311405E2,8.599804878E0,-2.734398127E0,-4.334000111E0
7.025311405E2,8.556734085E0,-2.707478762E0,-4.292723656E0
7.030311405E2,8.484949112E0,-2.796611547E0,-4.368097782E0
7.035311405E2,8.279166222E0,-2.648256540E0,-4.200001717E0
7.040311405E2,8.703892708E0,-2.664407969E0,-4.402793884E0
7.045311405E2,8.491529465E0,-2.475374937E0,-4.380061626E0
7.050311405E2,8.472386360E0,-2.595614433E0,-4.267001152E0
7.055311405E2,8.389236450E0,-2.486740828E0,-4.198207378E0
7.060311405E2,8.512466431E0,-2.327019930E0,-4.363312244E0
7.065311405E2,8.395816803E0,-2.490330219E0,-4.128217220E0
7.070311405E2,8.349156380E0,-2.362912416E0,-4.177868366E0
7.075311405E2,8.237890244E0,-2.316252232E0,-4.145565033E0
7.080311405E2,8.350951195E0,-2.496312141E0,-4.179064751E0
7.085311405E2,8.498109818E0,-2.662613392E0,-4.480560303E0
7.090311405E2,8.548358917E0,-2.382055044E0,-4.439284325E0
7.095311405E2,8.510073662E0,-2.468196630E0,-4.466801643E0
7.100311405E2,8.592027664E0,-2.507678032E0,-4.217350006E0
7.105311405E2,8.598608017E0,-2.700300455E0,-4.297509670E0
7.110311405E2,8.669795036E0,-2.665604353E0,-4.490729809E0
7.115311405E2,8.480163574E0,-2.578266382E0,-4.210171223E0
7.120311405E2,8.658429146E0,-2.539382935E0,-4.115654945E0
7.125311405E2,8.349754333E0,-2.549552441E0,-4.405784607E0
7.130311405E2,8.335397720E0,-2.470589399E0,-4.359723091E0
7.135311405E2,8.230113029E0,-2.431107759E0,-4.540380955E0
7.140311405E2,8.319246292E0,-2.642872572E0,-4.372285366E0
7.145311405E2,8.484949112E0,-2.535195589E0,-4.502095699E0
7.150311405E2,8.132007599E0,-2.446661234E0,-4.230510235E0
7.155311405E2,8.487939835E0,-2.487339020E0,-4.444668293E0
7.160311405E2,8.289934158E0,-2.723032236E0,-4.363312244E0
7.165311405E2,8.488538742E0,-2.535195589E0,-4.313661098E0
7.170311405E2,8.414361000E0,-2.528615236E0,-4.202992916E0
7.175311405E2,8.254041672E0,-2.590230465E0,-4.372285366E0
7.180311405E2,8.187042236E0,-2.545963287E0,-4.356133461E0
7.185311405E2,8.330014229E0,-2.532802820E0,-4.551148891E0
7.190311405E2,8.159524918E0,-2.681756020E0,-4.411168575E0
7.195311405E2,8.170890808E0,-2.695514679E0,-4.579862595E0
7.200311405E2,8.267800331E0,-2.839682341E0,-4.543372154E0
7.205311405E2,8.148757935E0,-2.909672260E0,-4.554139614E0
7.210311405E2,8.191229820E0,-2.950948477E0,-4.614558697E0
7.215311405E2,7.880163193E0,-2.760120869E0,-4.428516388E0
7.220311405E2,8.012965202E0,-2.536391973E0,-4.423132420E0
7.225311405E2,7.813762188E0,-2.720041037E0,-4.403990269E0
7.230311405E2,7.971090317E0,-2.790031195E0,-4.466203690E0
7.235311405E2,8.140382767E0,-2.706880569E0,-4.613361835E0
7.240311405E2,8.280363083E0,-2.720041037E0,-4.563711166E0
7.245311405E2,8.298309326E0,-2.963510752E0,-4.627718925E0
7.250311405E2,8.228319168E0,-2.742174864E0,-4.396811485E0
7.255311405E2,7.610372543E0,-2.308475733E0,-4.822733879E0
7.260311405E2,7.895118237E0,-2.767299414E0,-3.916452408E0
7.265311405E2,7.593024254E0,-2.730808735E0,-4.548157692E0
7.270311405E2,7.911868095E0,-2.477169752E0,-4.700700283E0
7.275311405E2,7.811967850E0,-2.913261652E0,-4.772484779E0
7.280311405E2,7.966903210E0,-2.829512835E0,-4.858626366E0
7.285311405E2,8.038687706E0,-3.174079180E0,-4.542773724E0
7.290311405E2,8.328219414E0,-2.773879766E0,-4.910071850E0
7.295311405E2,8.036892891E0,-2.887538671E0,-4.956732273E0
7.300311405E2,7.932805061E0,-2.816950560E0,-4.865804672E0
7.305311405E2,7.794619560E0,-2.897109985E0,-4.742574692E0
7.310311405E2,7.862815380E0,-2.873181820E0,-4.837090969E0
7.315311405E2,7.956733704E0,-2.857030153E0,-4.692923546E0
7.320311405E2,8.079365730E0,-2.766103029E0,-4.683950424E0
7.325311405E2,8.170890808E0,-2.712264538E0,-4.704289436E0
7.330311405E2,7.971688747E0,-2.904886723E0,-4.807778835E0
7.335311405E2,7.891529083E0,-2.843869686E0,-4.760520458E0
7.340311405E2,8.154739380E0,-2.911466837E0,-4.615156651E0
7.345311405E2,7.904091358E0,-2.941975355E0,-4.719842434E0
7.350311405E2,8.046463966E0,-3.147160053E0,-4.901697159E0
7.355311405E2,8.467600822E0,-2.971885681E0,-4.774877548E0
7.360311405E2,8.320442200E0,-3.206382275E0,-4.756931305E0
7.365311405E2,8.292326927E0,-3.116651535E0,-4.683950424E0
7.370311405E2,7.993224144E0,-2.870190859E0,-4.431507587E0
7.375311405E2,7.922037601E0,-2.973082066E0,-4.403990269E0
7.380311405E2,7.907082558E0,-2.911466837E0,-4.415356159E0
7.385311405E2,7.780262947E0,-3.040081263E0,-4.569094658E0
7.390311405E2,7.993822098E0,-3.008974552E0,-4.704289436E0
7.395311405E2,8.070392609E0,-2.946162939E0,-4.746163845E0
7.400311405E2,8.014759064E0,-2.764906645E0,-4.797011375E0
7.405311405E2,8.129016876E0,-2.882154942E0,-4.805984497E0
7.410311405E2,8.160721779E0,-2.763111830E0,-4.707878590E0
7.415311405E2,8.046463966E0,-3.018545866E0,-4.771288395E0
7.420311405E2,8.237890244E0,-2.887538671E0,-4.697709084E0
7.425311405E2,8.172087669E0,-2.820539713E0,-4.404588223E0
7.430311405E2,8.017750740E0,-2.769692183E0,-4.805984497E0
7.435311405E2,7.972885132E0,-2.708675146E0,-4.654638290E0
7.440311405E2,8.098507881E0,-2.646461725E0,-4.820939541E0
7.445311405E2,8.051250458E0,-2.586043119E0,-4.712066174E0
7.450311405E2,8.210372925E0,-2.606382132E0,-4.700700283E0
7.455311405E2,8.024331093E0,-2.858824968E0,-4.750350952E0
7.460311405E2,8.091329575E0,-2.788236618E0,-4.793421745E0
7.465311405E2,8.003393173E0,-2.925823927E0,-4.865804672E0
7.470311405E2,8.067401886E0,-2.904886723E0,-4.683351994E0
7.475311405E2,8.057829857E0,-2.915654421E0,-4.633700848E0
7.480311405E2,8.074580193E0,-2.623729944E0,-4.602594376E0
7.485311405E2,8.066802979E0,-2.904886723E0,-4.780859470E0
7.490311405E2,8.096115112E0,-2.772084951E0,-4.919643402E0
7.495311405E2,8.047660828E0,-2.782254457E0,-4.975276470E0
7.500311405E2,7.872386456E0,-2.653042078E0,-4.779065132E0
7.505311405E2,7.829315662E0,-2.877369165E0,-4.853840828E0
7.510311405E2,7.768897057E0,-2.831307411E0,-4.965705395E0
7.515311405E2,7.788039684E0,-2.891726255E0,-5.129015446E0
7.520311405E2,7.709674358E0,-2.847458839E0,-4.862215519E0
7.525311405E2,7.612765312E0,-3.032304525E0,-4.959125042E0
7.530311405E2,7.708477974E0,-3.019742250E0,-5.409573555E0
7.535311405E2,7.858029366E0,-3.075973511E0,-5.487340450E0
7.540311405E2,7.883154392E0,-2.928814888E0,-5.173282623E0
7.545311405E2,7.884948730E0,-2.906681299E0,-5.376074314E0
7.550311405E2,7.609176159E0,-2.510669231E0,-5.087141037E0
7.555311405E2,7.557730198E0,-2.874976397E0,-5.014159679E0
7.560311405E2,7.674380302E0,-2.954537868E0,-5.276772022E0
7.565311405E2,7.697112083E0,-3.058027267E0,-5.356333256E0
7.570311405E2,7.799405575E0,-2.834896564E0,-5.277370453E0
7.575311405E2,7.590033531E0,-2.915654421E0,-5.096712112E0
7.580311405E2,7.703094482E0,-3.037688255E0,-5.376074314E0
7.585311405E2,7.841877937E0,-3.089732170E0,-5.358726501E0
7.590311405E2,7.744968891E0,-2.962314367E0,-5.140979290E0
7.595311405E2,7.821538925E0,-3.048455954E0,-5.203791142E0
7.600311405E2,7.978867054E0,-2.886940479E0,-5.147559643E0
7.605311405E2,7.912466049E0,-3.006581545E0,-5.189434052E0
7.610311405E2,8.033902168E0,-2.854039192E0,-5.129015446E0
7.615311405E2,7.989036560E0,-3.096312523E0,-5.050052166E0
7.620311405E2,7.985447407E0,-3.029313564E0,-4.951348305E0
7.625311405E2,7.807182312E0,-2.950948477E0,-4.878366947E0
7.630311405E2,7.907680511E0,-2.818745136E0,-4.920839787E0
7.635311405E2,7.907680511E0,-2.846262455E0,-4.943571568E0
7.640311405E2,7.940581799E0,-2.938386202E0,-4.971088886E0
7.645311405E2,7.981259823E0,-2.914458036E0,-4.951348305E0
7.650311405E2,8.030312538E0,-2.920439959E0,-5.042275429E0
7.655311405E2,7.976474285E0,-2.815753937E0,-5.076373100E0
7.660311405E2,8.005187988E0,-2.801397085E0,-5.107480049E0
7.665311405E2,7.919046402E0,-2.649452925E0,-5.008776188E0
7.670311405E2,7.822735310E0,-2.849253654E0,-4.995017052E0
7.675311405E2,7.816154957E0,-2.879163742E0,-4.954937458E0
7.680311405E2,7.740182877E0,-2.810370207E0,-4.914857864E0
7.685311405E2,7.786244869E0,-2.892324448E0,-4.947160721E0
7.690311405E2,7.724031448E0,-2.861815929E0,-5.024927616E0
7.695311405E2,7.626523972E0,-3.045464993E0,-4.939982414E0
7.700311405E2,7.778468132E0,-2.815753937E0,-5.053641319E0
7.705311405E2,7.698308468E0,-2.970689297E0,-5.133800983E0
7.710311405E2,7.663014412E0,-2.872583628E0,-5.152345181E0
7.715311405E2,7.636693478E0,-3.021536827E0,-5.241477966E0
7.720311405E2,7.390830994E0,-2.991028309E0,-5.596213818E0
7.725311405E2,7.167101860E0,-2.974876642E0,-5.904289722E0
7.730311405E2,7.362117290E0,-2.992224693E0,-5.739185333E0
7.735311405E2,7.442874908E0,-2.946761131E0,-5.620141983E0
7.740311405E2,7.341179848E0,-3.055036306E0,-5.684150219E0
7.745311405E2,7.467401028E0,-3.013161898E0,-5.640480995E0
7.750311405E2,7.435696602E0,-3.011367321E0,-5.559723377E0
7.755311405E2,7.481160164E0,-3.053241730E0,-5.516054630E0
7.760311405E2,7.476374149E0,-2.980260611E0,-5.465207100E0
7.765311405E2,7.543373585E0,-3.016751051E0,-5.469992638E0
7.770311405E2,7.519444942E0,-3.045464993E0,-5.461617470E0
7.775311405E2,7.576872826E0,-3.019742250E0,-5.471786976E0
7.780311405E2,7.560122967E0,-2.989233732E0,-5.419145107E0
7.785311405E2,7.561319351E0,-2.983251572E0,-5.425127029E0
7.790311405E2,7.576872826E0,-3.004188776E0,-5.385047436E0
7.795311405E2,7.578667641E0,-3.008376360E0,-5.393422127E0
7.800311405E2,7.579265594E0,-2.992224693E0,-5.374279499E0
7.805311405E2,7.564310551E0,-2.983251572E0,-5.361717224E0
7.810311405E2,7.556533813E0,-2.978466034E0,-5.376074314E0
7.815311405E2,7.575676441E0,-2.968296528E0,-5.359922886E0
7.820311405E2,7.596613884E0,-2.971885681E0,-5.359922886E0
7.825311405E2,7.567301750E0,-3.017947674E0,-5.356931686E0
7.830311405E2,7.561319351E0,-2.961117983E0,-5.382056236E0
7.835311405E2,7.591229916E0,-2.962314367E0,-5.358128071E0
7.840311405E2,7.619943619E0,-2.983251572E0,-5.402993679E0
7.845311405E2,7.578667641E0,-2.984447956E0,-5.361717224E0
7.850311405E2,7.607979774E0,-2.973082066E0,-5.363512039E0
7.855311405E2,7.599604607E0,-2.944966555E0,-5.368297577E0
7.860311405E2,7.573882103E0,-2.981456995E0,-5.389832973E0
7.865311405E2,7.569096088E0,-2.949153900E0,-5.392225742E0
7.870311405E2,7.612765312E0,-2.938386202E0,-5.402993679E0
7.875311405E2,7.588238716E0,-2.965903759E0,-5.371288776E0
7.880311405E2,7.599604607E0,-2.939582586E0,-5.358128071E0
7.885311405E2,7.573882103E0,-2.938386202E0,-5.366502762E0
7.890311405E2,7.603193760E0,-2.947957516E0,-5.397011280E0
7.895311405E2,7.594819069E0,-2.937189817E0,-5.327619553E0
7.900311405E2,7.593024254E0,-2.931805849E0,-5.385047436E0
7.905311405E2,7.615756035E0,-2.934797049E0,-5.464010715E0
7.910311405E2,7.627122402E0,-2.938386202E0,-5.413761139E0
7.915311405E2,7.719245911E0,-2.944966555E0,-5.144568920E0
7.920311405E2,8.032107353E0,-2.919243574E0,-4.533202648E0
7.925311405E2,7.923832417E0,-2.940180779E0,-4.861019135E0
7.930311405E2,7.934599876E0,-2.927618504E0,-4.849653244E0
7.935311405E2,7.951947689E0,-2.921038151E0,-4.827519894E0
7.940311405E2,7.893323898E0,-2.927020311E0,-4.839483738E0
7.945311405E2,7.960322857E0,-2.912663460E0,-4.863411903E0
7.950311405E2,7.966903210E0,-2.965903759E0,-4.889134884E0
7.955311405E2,8.000402451E0,-2.952743053E0,-4.872983456E0
7.960311405E2,7.885547161E0,-2.910868645E0,-4.852644444E0
7.965311405E2,7.964509964E0,-2.884547710E0,-4.846662045E0
7.970311405E2,7.966903210E0,-2.965305567E0,-4.899304390E0
7.975311405E2,7.944170952E0,-2.921038151E0,-4.835296154E0
7.980311405E2,8.008178711E0,-2.981456995E0,-4.898705959E0
7.985311405E2,7.974081516E0,-2.901297569E0,-4.894518852E0
7.990311405E2,7.884948730E0,-2.936591625E0,-4.820341110E0
7.995311405E2,7.975875854E0,-2.925225735E0,-4.846662045E0
8.000311405E2,7.945367813E0,-2.939582586E0,-4.825725079E0
8.005311405E2,7.928617954E0,-2.941975355E0,-4.823930264E0
8.010311405E2,7.974081516E0,-2.919243574E0,-4.901697159E0
8.015311405E2,7.938189030E0,-2.925823927E0,-4.846064091E0
8.020311405E2,7.993224144E0,-2.906083107E0,-4.899304390E0
8.025311405E2,7.968099594E0,-2.934797049E0,-4.830510616E0
8.030311405E2,7.935796261E0,-2.927020311E0,-4.835296154E0
8.035311405E2,7.995018482E0,-2.908475876E0,-4.869992256E0
8.040311405E2,7.945367813E0,-2.928814888E0,-4.846064091E0
8.045311405E2,7.942376614E0,-2.934797049E0,-4.846662045E0
8.050311405E2,7.928617954E0,-2.930609465E0,-4.836492538E0
8.055311405E2,7.971688747E0,-2.949153900E0,-4.840082169E0
8.060311405E2,7.962117195E0,-2.907877684E0,-4.857429981E0
8.065311405E2,7.974679470E0,-2.933600664E0,-4.840082169E0
8.070311405E2,7.932805061E0,-2.931805849E0,-4.835296154E0
8.075311405E2,7.950751305E0,-2.946162939E0,-4.822733879E0
8.080311405E2,7.947760582E0,-2.935395241E0,-4.802993298E0
8.085311405E2,7.961519241E0,-2.925225735E0,-4.841278553E0
8.090311405E2,7.960322857E0,-2.904886723E0,-4.847858906E0
8.095311405E2,7.953742504E0,-2.920439959E0,-4.830510616E0
8.100311405E2,7.969295979E0,-2.917448997E0,-4.825725079E0
8.105311405E2,7.966304779E0,-2.912663460E0,-4.832305431E0
8.110311405E2,7.940581799E0,-2.925823927E0,-4.830510616E0
8.115311405E2,7.959724426E0,-2.927020311E0,-4.830510616E0
8.120311405E2,7.962117195E0,-2.900100946E0,-4.801198483E0
8.125311405E2,7.976474285E0,-2.917448997E0,-4.822135925E0
8.130311405E2,7.951947689E0,-2.901895761E0,-4.832305431E0
8.135311405E2,7.942376614E0,-2.920439959E0,-4.857429981E0
8.140311405E2,7.938189030E0,-2.925823927E0,-4.838287354E0
8.145311405E2,7.950153351E0,-2.919243574E0,-4.835296154E0
8.150311405E2,7.981259823E0,-2.903092146E0,-4.837090969E0
8.155311405E2,7.995018482E0,-2.897109985E0,-4.849653244E0
8.160311405E2,7.932805061E0,-2.912663460E0,-4.844867706E0
8.165311405E2,7.917252064E0,-2.927618504E0,-4.798805714E0
8.170311405E2,7.932805061E0,-2.922234535E0,-4.798207760E0
8.175311405E2,7.944170952E0,-2.914458036E0,-4.815555573E0
8.180311405E2,7.922037601E0,-2.897109985E0,-4.786841869E0
8.185311405E2,7.933403492E0,-2.932404041E0,-4.819144726E0
8.190311405E2,8.096115112E0,-2.892324448E0,-4.576273441E0
8.195311405E2,8.411968231E0,-2.874378204E0,-4.054637909E0
8.200311405E2,8.428717613E0,-2.837887764E0,-4.109074593E0
8.205311405E2,8.424530029E0,-2.836092949E0,-4.102494240E0
8.210311405E2,8.454441071E0,-2.853441000E0,-4.067798615E0
8.215311405E2,8.395217896E0,-2.877369165E0,-4.031308174E0
8.220311405E2,8.478368759E0,-2.836691141E0,-4.060021877E0
8.225311405E2,8.423932076E0,-2.850450039E0,-4.088137627E0
8.230311405E2,8.397012711E0,-2.847458839E0,-4.080958843E0
8.235311405E2,8.440681458E0,-2.860021353E0,-4.100101471E0
8.240311405E2,8.416753769E0,-2.874378204E0,-4.066602230E0
8.245311405E2,8.440083504E0,-2.858824968E0,-4.072584152E0
8.250311405E2,8.422736168E0,-2.863012314E0,-4.107280254E0
8.255311405E2,8.452646255E0,-2.861815929E0,-4.104289055E0
8.260311405E2,8.374878883E0,-2.860619545E0,-4.043870449E0
8.265311405E2,8.395816803E0,-2.896511793E0,-4.110869408E0
8.270311405E2,8.425726891E0,-2.876172781E0,-4.088735580E0
8.275311405E2,8.373085022E0,-2.874976397E0,-4.133002758E0
8.280311405E2,8.430512428E0,-2.882753134E0,-4.121636868E0
8.285311405E2,8.407182693E0,-2.889333248E0,-4.050450325E0
8.290311405E2,8.438288689E0,-2.898306370E0,-4.064209461E0
8.295311405E2,8.435297966E0,-2.908475876E0,-4.061816216E0
8.300311405E2,8.400602341E0,-2.891726255E0,-4.083950043E0
8.305311405E2,8.447860718E0,-2.963510752E0,-4.147958279E0
8.310311405E2,8.260024071E0,-2.852244616E0,-4.162314892E0
8.315311405E2,8.432307243E0,-2.880958557E0,-4.067798615E0
8.320311405E2,8.388039589E0,-2.915654421E0,-4.109673023E0
8.325311405E2,8.363512993E0,-2.927020311E0,-4.001996040E0
8.330311405E2,8.456234932E0,-2.962314367E0,-4.104887009E0
8.335311405E2,8.467600822E0,-2.940180779E0,-4.060021877E0
8.340311405E2,8.468797684E0,-3.008974552E0,-4.090530396E0
8.345311405E2,8.474181175E0,-2.901297569E0,-4.085146427E0
8.350311405E2,8.424530029E0,-2.958725214E0,-4.107878208E0
8.355311405E2,8.453244209E0,-3.045464993E0,-4.094717979E0
8.360311405E2,8.391031265E0,-2.933600664E0,-4.117449760E0
8.365311405E2,8.471788406E0,-3.013760090E0,-4.033102512E0
8.370311405E2,8.471788406E0,-2.947957516E0,-4.091726780E0
8.375311405E2,8.325227737E0,-3.121437073E0,-3.994219303E0
8.380311405E2,8.357531548E0,-3.022733212E0,-4.122235298E0
8.385311405E2,8.310871124E0,-3.126222849E0,-4.031308174E0
8.390311405E2,8.154739380E0,-2.992822886E0,-3.994219303E0
8.395311405E2,8.382656097E0,-3.363112211E0,-4.214358807E0
8.400311405E2,8.507680893E0,-2.815753937E0,-4.072584152E0
8.405311405E2,8.218747139E0,-3.448655605E0,-4.281956196E0
8.410311405E2,8.572287560E0,-2.976671457E0,-4.193421841E0
8.415311405E2,8.162516594E0,-3.188436270E0,-3.999004841E0
8.420311405E2,8.282156944E0,-3.067598581E0,-4.042674065E0
8.425311405E2,8.483154297E0,-3.268595695E0,-4.275375843E0
8.430311405E2,8.274380684E0,-3.323032379E0,-4.225724697E0
8.435311405E2,8.303094864E0,-3.147160053E0,-4.102494240E0
8.440311405E2,7.912466049E0,-3.243471146E0,-3.878167391E0
8.445311405E2,8.432307243E0,-3.205185890E0,-4.192225456E0
8.450311405E2,8.362317085E0,-3.236292601E0,-4.259224415E0
8.455311405E2,8.342576027E0,-3.466003656E0,-4.334598064E0
8.460311405E2,8.337790489E0,-3.253042459E0,-4.200001717E0
8.465311405E2,8.328817368E0,-3.367897987E0,-4.222733974E0
8.470311405E2,8.387441635E0,-3.320041418E0,-4.232305050E0
8.475311405E2,8.245666504E0,-3.361317635E0,-4.244867325E0
8.480311405E2,8.212167740E0,-3.376870871E0,-4.265804768E0
8.485311405E2,8.081758499E0,-3.296113253E0,-4.217350006E0
8.490311405E2,8.155936241E0,-3.308077335E0,-4.140779495E0
8.495311405E2,8.057829857E0,-3.164507866E0,-4.270590305E0
8.500311405E2,8.161319733E0,-3.193820000E0,-4.139583111E0
8.505311405E2,8.273183823E0,-3.437887907E0,-4.339384079E0
8.510311405E2,8.167900085E0,-3.352942705E0,-4.329214573E0
8.515311405E2,8.270791054E0,-3.579662561E0,-4.223930359E0
8.520311405E2,7.990831375E0,-3.461816072E0,-4.143172264E0
8.525311405E2,8.100900650E0,-3.563511133E0,-4.273581028E0
8.530311405E2,8.165507317E0,-3.421736479E0,-4.286143780E0
8.535311405E2,8.156534195E0,-3.587439299E0,-4.411168575E0
8.540311405E2,8.123034477E0,-3.407379389E0,-4.578067780E0
8.545311405E2,8.005187988E0,-3.303291559E0,-4.583451748E0
8.550311405E2,7.875975609E0,-3.206382275E0,-4.659423828E0
8.555311405E2,7.870592117E0,-2.894119024E0,-4.597210407E0
8.560311405E2,7.932805061E0,-3.125026464E0,-5.071587563E0
8.565311405E2,8.126026154E0,-2.994019270E0,-4.846064091E0
8.570311405E2,7.944170952E0,-2.887538671E0,-4.629513741E0
8.575311405E2,7.951947689E0,-2.670390129E0,-4.893920422E0
8.580311405E2,7.928019524E0,-2.796013355E0,-4.663012981E0
8.585311405E2,7.907082558E0,-2.842673302E0,-4.772484779E0
8.590311405E2,7.938189030E0,-2.963510752E0,-4.898705959E0
8.595311405E2,8.075178146E0,-2.689532757E0,-4.865804672E0
8.600311405E2,8.074580193E0,-3.089732170E0,-4.894518852E0
8.605311405E2,8.056035995E0,-3.005385160E0,-4.600799561E0
8.610311405E2,8.222934723E0,-2.954537868E0,-4.683351994E0
8.615311405E2,8.146963120E0,-2.711666346E0,-4.910071850E0
8.620311405E2,8.145168304E0,-2.950948477E0,-4.956732273E0
8.625311405E2,7.816154957E0,-2.809173822E0,-4.831707001E0
8.630311405E2,7.768897057E0,-2.833101988E0,-4.788636208E0
8.635311405E2,7.617550850E0,-2.793620348E0,-4.670789719E0
8.640311405E2,7.834101200E0,-3.021536827E0,-4.806582451E0
8.645311405E2,7.921439171E0,-2.743371248E0,-4.792225361E0
8.650311405E2,7.918448448E0,-2.879163742E0,-4.776073933E0
8.655311405E2,7.771887779E0,-2.707478762E0,-4.631308079E0
8.660311405E2,7.825726509E0,-2.777468920E0,-4.666004181E0
8.665311405E2,8.254041672E0,-2.368894339E0,-4.937589645E0
8.670311405E2,8.392825127E0,-2.571087837E0,-4.831707001E0
8.675311405E2,8.334799767E0,-2.423331022E0,-4.794020176E0
8.680311405E2,8.263014793E0,-2.865405083E0,-4.907081127E0
8.685311405E2,8.261817932E0,-2.374876499E0,-4.704289436E0
8.690311405E2,8.313861847E0,-2.850450039E0,-4.628915310E0
8.695311405E2,8.389236450E0,-2.828316450E0,-4.829912663E0
8.700311405E2,8.304290771E0,-2.654836655E0,-4.967499733E0
8.705311405E2,8.219944000E0,-2.609971285E0,-4.704289436E0
8.710311405E2,8.081160545E0,-2.489732027E0,-4.716851711E0
8.715311405E2,8.239685059E0,-2.552543640E0,-4.628915310E0
8.720311405E2,8.495717049E0,-2.640479803E0,-4.833501816E0
8.725311405E2,7.911868095E0,-2.616551638E0,-4.447061062E0
8.730311405E2,8.421539307E0,-2.844467878E0,-4.766502857E0
8.735311405E2,8.309076309E0,-2.772683144E0,-4.638486862E0
8.740311405E2,8.288737297E0,-2.413759947E0,-4.704289436E0
8.745311405E2,8.100302696E0,-2.797807932E0,-4.418945312E0
8.750311405E2,8.851649284E0,-2.976671457E0,-5.157729149E0
8.755311405E2,9.074779510E0,-3.166900873E0,-5.127220631E0
8.760311405E2,8.294719696E0,-2.611765862E0,-4.552943230E0
8.765311405E2,7.607979774E0,-2.221735716E0,-4.109673023E0
8.770311405E2,7.757531166E0,-2.860619545E0,-4.337589264E0
8.775311405E2,8.154739380E0,-2.315055847E0,-4.354937077E0
8.780311405E2,8.209176064E0,-2.676372051E0,-4.576273441E0
8.785311405E2,8.184649467E0,-2.437089920E0,-4.451846600E0
8.790311405E2,8.042875290E0,-2.670390129E0,-4.537988186E0
8.795311405E2,8.188239098E0,-2.563909531E0,-4.634299278E0
8.800311405E2,8.097311974E0,-2.764308453E0,-4.438087940E0
8.805311405E2,8.140382767E0,-2.371885538E0,-4.331008911E0
8.810311405E2,8.134400368E0,-2.601596355E0,-4.642076015E0
8.815311405E2,7.933403492E0,-2.512463808E0,-4.788636208E0
8.820311405E2,7.925028801E0,-2.807379246E0,-4.774279594E0
8.825311405E2,7.993224144E0,-2.487339020E0,-4.911866665E0
8.830311405E2,7.905886173E0,-2.678166628E0,-4.931009293E0
8.835311405E2,7.956733704E0,-2.706880569E0,-5.283352375E0
8.840311405E2,7.851449490E0,-2.609373093E0,-4.993222713E0
8.845311405E2,7.758727551E0,-2.699103832E0,-5.098506927E0
8.850311405E2,7.789236069E0,-2.708675146E0,-5.334797859E0
8.855311405E2,7.735397339E0,-2.623729944E0,-5.350351334E0
8.860311405E2,7.709674358E0,-2.683550596E0,-5.131408215E0
8.865311405E2,7.583453178E0,-2.633301258E0,-5.328217983E0
8.870311405E2,7.787441254E0,-2.774477959E0,-5.222933769E0
8.875311405E2,7.590033531E0,-2.688336134E0,-5.162514687E0
8.880311405E2,7.749155998E0,-2.671586514E0,-5.038087845E0
8.885311405E2,7.852047443E0,-2.746960402E0,-5.404190063E0
8.890311405E2,8.004590034E0,-2.821736097E0,-5.096712112E0
8.895311405E2,8.006384850E0,-2.615953445E0,-5.091926575E0
8.900311405E2,7.956733704E0,-2.944966555E0,-5.045266628E0
8.905311405E2,7.972885132E0,-2.616551638E0,-4.967499733E0
8.910311405E2,7.919046402E0,-2.851048231E0,-4.854438782E0
8.915311405E2,8.072187424E0,-2.537588358E0,-4.746163845E0
8.920311405E2,7.998608112E0,-2.805584431E0,-4.975874901E0
8.925311405E2,7.925028801E0,-2.780459881E0,-4.849653244E0
8.930311405E2,7.952546120E0,-2.756531715E0,-4.801796913E0
8.935311405E2,7.909475327E0,-2.886940479E0,-4.959722996E0
8.940311405E2,7.923233986E0,-2.809173822E0,-4.961517811E0
8.945311405E2,8.042875290E0,-2.739183664E0,-5.021338463E0
8.950311405E2,7.942376614E0,-2.767897606E0,-4.829912663E0
8.955311405E2,7.814958572E0,-2.946162939E0,-4.786841869E0
8.960311405E2,8.088936806E0,-2.994617462E0,-4.881358147E0
8.965311405E2,8.266005516E0,-3.117249727E0,-5.132006168E0
8.970311405E2,7.931608677E0,-3.010170937E0,-4.916054249E0
8.975311405E2,7.942974567E0,-2.963510752E0,-4.911268711E0
8.980311405E2,7.710870743E0,-3.400799274E0,-4.826921463E0
8.985311405E2,7.615756035E0,-3.024527788E0,-4.859224796E0
8.990311405E2,7.393822193E0,-2.816950560E0,-4.572085857E0
8.995311405E2,7.744370461E0,-2.946162939E0,-5.105087280E0
9.000311405E2,7.586444378E0,-2.740978241E0,-5.084149837E0
9.005311405E2,7.701299667E0,-2.845664263E0,-5.100301266E0
9.010311405E2,7.768298626E0,-3.260220766E0,-5.356333256E0
9.015311405E2,7.121040344E0,-3.836891174E0,-5.203791142E0
9.020311405E2,7.623532772E0,-3.410370588E0,-5.077569485E0
9.025311405E2,7.309474945E0,-3.564109325E0,-5.034498692E0
9.030311405E2,7.667799950E0,-3.372085333E0,-5.301298618E0
9.035311405E2,7.459026337E0,-3.129812002E0,-5.109274387E0
9.040311405E2,7.239484787E0,-3.759722471E0,-5.846263885E0
9.045311405E2,8.065009117E0,-3.141177893E0,-5.937191010E0
9.050311405E2,7.588238716E0,-3.591028690E0,-5.394618511E0
9.055311405E2,7.478767395E0,-3.172882795E0,-5.326423168E0
9.060311405E2,7.593024254E0,-3.451646566E0,-5.338985443E0
9.065311405E2,7.974679470E0,-3.104687452E0,-5.239085197E0
9.070311405E2,7.570890903E0,-3.303291559E0,-5.207978249E0
9.075311405E2,7.574480057E0,-2.954537868E0,-5.502295494E0
9.080311405E2,7.471588612E0,-3.222533941E0,-5.409573555E0
9.085311405E2,7.843672752E0,-2.805584431E0,-5.506483078E0
9.090311405E2,7.800601959E0,-2.798406124E0,-5.348556995E0
9.095311405E2,7.609176159E0,-2.723032236E0,-5.291129112E0
9.100311405E2,7.813164234E0,-2.776870728E0,-5.443073273E0
9.105311405E2,7.957331657E0,-2.753540754E0,-5.536991596E0
9.110311405E2,7.849654675E0,-2.833101988E0,-5.542973518E0
9.115311405E2,7.476972580E0,-2.569891453E0,-5.711069584E0
9.120311405E2,8.094321251E0,-3.087937593E0,-5.648856163E0
9.125311405E2,7.846663475E0,-2.810370207E0,-5.532206059E0
9.130311405E2,7.765307903E0,-2.886940479E0,-5.483152866E0
9.135311405E2,7.811967850E0,-2.892324448E0,-5.361119270E0
9.140311405E2,7.792226791E0,-2.804388046E0,-5.386841774E0
9.145311405E2,7.804191113E0,-2.842673302E0,-5.414359570E0
9.150311405E2,7.939385414E0,-2.475374937E0,-4.849055290E0
9.155311405E2,7.658228874E0,-2.982653379E0,-5.078765869E0
9.160311405E2,7.479963779E0,-2.809173822E0,-5.192425251E0
9.165311405E2,7.852047443E0,-2.809173822E0,-5.161916733E0
9.170311405E2,7.591229916E0,-3.042474031E0,-5.157131195E0
9.175311405E2,7.763513088E0,-2.858226538E0,-5.306084156E0
9.180311405E2,7.677969456E0,-2.985046148E0,-5.176871777E0
9.185311405E2,7.636693478E0,-2.879761934E0,-5.306084156E0
9.190311405E2,7.574480057E0,-3.017947674E0,-5.280361176E0
9.195311405E2,7.628318787E0,-2.940180779E0,-5.401797295E0
9.200311405E2,7.616952896E0,-2.989233732E0,-5.385645390E0
9.205311405E2,7.666603565E0,-2.936591625E0,-5.415555954E0
9.210311405E2,7.602595806E0,-2.994019270E0,-5.402993679E0
9.215311405E2,7.556533813E0,-2.987439156E0,-5.401198864E0
9.220311405E2,7.602595806E0,-2.992224693E0,-5.346762180E0
9.225311405E2,7.622336388E0,-2.968894720E0,-5.364708424E0
9.230311405E2,7.676175117E0,-2.961117983E0,-5.426921844E0
9.235311405E2,7.578667641E0,-2.958725214E0,-5.349154949E0
9.240311405E2,7.596613884E0,-2.989831924E0,-5.335994720E0
9.245311405E2,7.706085205E0,-2.970091105E0,-5.324628353E0
9.250311405E2,7.765905857E0,-2.986242771E0,-5.188836098E0
9.255311405E2,7.910671711E0,-2.982653379E0,-4.872983456E0
9.260311405E2,7.982456207E0,-2.860619545E0,-4.744369030E0
9.265311405E2,9.364311218E0,1.534397483E0,-2.064407825E0
9.270311405E2,5.743970871E0,6.317051888E0,5.554937840E0
9.275311405E2,2.112264156E0,6.562315941E0,8.716454506E0
9.280311405E2,1.171286702E0,6.465406895E0,6.946962357E0
9.285311405E2,1.700698733E0,6.614958286E0,7.054041386E0
9.290311405E2,1.846062660E0,6.739983082E0,5.038087845E0
