"Time (s)","Gyroscope x (rad/s)","Gyroscope y (rad/s)","Gyroscope z (rad/s)"
2.696937650E-1,3.665188700E-2,1.698204130E-1,-3.817904741E-2
7.737810050E-1,-1.569922417E-1,1.070540547E-1,-6.765327603E-2
1.277869442E0,8.872810751E-2,5.467239767E-2,-3.268126398E-2
1.781959390E0,-6.108647794E-4,-5.115992576E-2,1.237001177E-2
2.286051057E0,2.932151034E-2,7.941242307E-3,1.084284950E-2
2.790144651E0,-1.404988952E-2,-1.527161989E-2,-1.053741761E-2
3.294240067E0,-9.162971750E-3,1.084284950E-2,1.527161920E-3
3.798336942E0,-3.237583488E-2,8.704823442E-3,-3.970621154E-3
4.302434859E0,-1.496618707E-2,3.283398226E-2,9.162971983E-4
4.806533401E0,-1.252272818E-2,1.206457894E-2,8.857538924E-3
5.310632567E0,-7.635809598E-4,-2.290742937E-3,-4.886918236E-3
5.814732359E0,6.108647794E-4,-2.138026757E-3,3.665188793E-3
6.318832724E0,-9.162971983E-4,-4.123337101E-3,7.635809598E-4
6.822933349E0,-4.581485875E-3,-7.024944760E-3,5.650499370E-3
7.327034078E0,-6.719512399E-3,-6.108647678E-3,-1.221729559E-3
7.831134651E0,2.748891478E-3,-3.054323839E-3,-5.803215317E-3
8.335235015E0,4.428769462E-3,3.359756200E-3,7.330377586E-3
8.839335276E0,-2.290742937E-3,3.054323897E-4,1.527161949E-4
9.343435588E0,4.581485991E-4,-1.985310577E-3,-2.138026757E-3
9.847536213E0,-3.207040019E-3,-1.374445739E-3,-1.832594397E-3
1.035163720E1,-4.123337101E-3,-3.665188793E-3,-5.345067009E-3
1.085573866E1,3.054323897E-4,-1.374445739E-3,3.054323897E-4
1.135984069E1,-9.162971983E-4,1.985310577E-3,3.512472380E-3
1.186394350E1,-4.581485991E-4,1.221729559E-3,2.290742937E-3
1.236804736E1,-3.665188793E-3,2.443459118E-3,3.207040019E-3
1.287215200E1,2.596175298E-3,-2.443459118E-3,-3.512472380E-3
1.337625715E1,-8.093958721E-3,-3.970621154E-3,1.527161949E-4
1.388036267E1,3.817904973E-3,3.359756200E-3,6.108647678E-3
1.438446824E1,-4.123337101E-3,-2.443459118E-3,9.162971983E-4
1.488857387E1,2.290742937E-3,-6.108647794E-4,3.054323897E-4
1.539267976E1,-1.527161920E-3,-3.054323839E-3,-1.221729559E-3
1.589678569E1,7.941242307E-3,4.581485991E-4,-1.374445739E-3
1.640089194E1,-1.038470119E-2,-1.985310577E-3,-1.985310577E-3
1.690499856E1,6.566796452E-3,4.428769462E-3,5.803215317E-3
1.740910554E1,-1.527161920E-3,3.054323897E-4,2.443459118E-3
1.791321283E1,1.145371497E-1,-1.012508348E-1,2.962694131E-2
1.841732017E1,-2.218966335E-1,-4.276053514E-3,-4.123337101E-3
1.892142752E1,-1.281288862E-1,6.185005978E-2,5.299251899E-2
1.942553476E1,-5.497782957E-3,-3.298669681E-2,2.764163166E-2
1.992964173E1,2.092211880E-2,9.880737960E-2,-8.994983882E-2
2.043374791E1,1.270598769E-1,2.597702444E-1,3.581194878E-1
2.093785437E1,-2.463312149E-1,-3.833176568E-2,1.145371422E-2
2.144196077E1,-9.941824526E-2,-3.541488647E-1,-2.037234008E-1
2.194606702E1,-1.974620372E-1,7.620538026E-2,3.207040206E-2
2.245017301E1,-5.375609919E-2,-1.466075517E-2,2.748891478E-3
2.295427859E1,-3.787361458E-2,4.276053514E-3,7.177661173E-3
2.345838369E1,-8.399390616E-3,2.138026804E-2,1.252272818E-2
2.396248838E1,-4.306596518E-2,2.458730713E-2,5.497782957E-3
2.446659265E1,-1.191186346E-2,3.512472380E-3,5.497782957E-3
2.497069661E1,-2.474002354E-2,9.010255337E-3,-5.650499370E-3
2.547480025E1,-2.550360374E-2,6.566796452E-3,-5.497782957E-3
2.597890364E1,-6.108647678E-3,9.315688163E-3,5.955931731E-3
2.648300676E1,-1.221729559E-3,4.123337101E-3,7.177661173E-3
2.698710952E1,-3.970621154E-3,3.207040019E-3,-4.581485991E-4
2.749121202E1,-1.450803876E-2,5.497782957E-3,-2.901607659E-3
2.799531432E1,-1.023198478E-2,-3.817904973E-3,-1.695149764E-2
2.849941635E1,2.657261863E-2,-1.832594397E-3,1.175914705E-2
2.900351822E1,-1.007926930E-2,4.581485991E-4,1.679878100E-3
2.950761973E1,-5.497782957E-3,-1.527161949E-4,-3.359756200E-3
3.001172088E1,-9.773836471E-3,6.108647794E-4,-5.039634649E-3
3.051582166E1,-1.970038936E-2,-3.054323839E-3,-1.649334840E-2
3.101992213E1,-1.114828233E-2,4.886918236E-3,-4.581485875E-3
3.152402228E1,6.108647794E-4,2.748891478E-3,1.832594397E-3
3.202812218E1,-7.941242307E-3,3.054323897E-4,-9.010255337E-3
3.253222187E1,-8.093958721E-3,2.901607659E-3,-8.093958721E-3
3.303632140E1,-6.566796452E-3,-1.374445739E-3,-1.237001177E-2
3.354042093E1,-1.084284950E-2,-7.330377586E-3,-2.061668597E-2
3.404452051E1,3.054323897E-4,-1.985310577E-3,-7.024944760E-3
3.454862004E1,1.527161949E-4,-1.069013379E-3,-8.552107029E-3
3.505271947E1,1.221729559E-3,-1.679878100E-3,-1.634063199E-2
3.555681880E1,1.527161949E-4,-1.832594397E-3,-1.099556591E-2
3.606091807E1,-1.114828233E-2,-5.192350596E-3,-2.321286127E-2
3.656501734E1,-1.985310577E-3,-5.650499370E-3,-1.084284950E-2
3.706911661E1,4.428769462E-3,2.443459118E-3,-7.330377586E-3
3.757321583E1,1.679878100E-3,-1.527161949E-4,-1.267544460E-2
3.807731494E1,-4.581485991E-4,-1.679878100E-3,-1.343902480E-2
3.858141400E1,1.527161949E-4,-3.359756200E-3,-1.252272818E-2
3.908551301E1,-4.276053514E-3,-4.123337101E-3,-1.786779426E-2
3.958961197E1,-1.985310577E-3,-8.552107029E-3,-2.336557768E-2
4.009371088E1,1.572976820E-2,-1.481347065E-2,-2.443459118E-3
4.059780973E1,9.162971750E-3,-5.345067009E-3,-7.635809947E-3
4.110190854E1,5.345067009E-3,-3.207040019E-3,-1.343902480E-2
4.160600729E1,5.192350596E-3,-5.803215317E-3,-1.313359290E-2
4.211010619E1,4.428769462E-3,-9.926552884E-3,-2.015853859E-2
4.261420520E1,7.483093534E-3,-1.328630932E-2,-1.756236330E-2
4.311830426E1,8.552107029E-3,-3.665188793E-3,-8.399390616E-3
4.362240338E1,1.343902480E-2,-5.650499370E-3,-1.206457894E-2
4.412650265E1,1.597411335E-1,-1.029307172E-1,-5.390881747E-2
4.463060202E1,9.101885557E-2,-5.329795182E-2,-1.420260593E-2
4.513470140E1,1.496618707E-2,-1.588248461E-2,-3.207040019E-3
4.563880072E1,-6.108647794E-4,-9.162971983E-4,-9.621120058E-3
4.614289999E1,-5.803215317E-3,-3.665188793E-3,4.581485991E-4
4.664699947E1,4.276053514E-3,-2.901607659E-3,-1.069013379E-3
4.715109926E1,-2.901607659E-3,-6.414080039E-3,-1.252272818E-2
4.765519942E1,-3.390299529E-2,-1.679878123E-2,-1.267544460E-2
4.815930004E1,2.703076601E-2,3.512472380E-3,-5.497782957E-3
4.866340135E1,-3.665188793E-3,1.527161920E-3,7.330377586E-3
4.916750374E1,-1.038470119E-2,-4.734201822E-3,-4.734201822E-3
4.967160770E1,1.099556591E-2,-2.138026757E-3,-2.443459118E-3
5.017571359E1,-6.719512399E-3,-5.345067009E-3,-9.315688163E-3
5.067982166E1,-5.039634649E-3,-9.773836471E-3,-1.695149764E-2
5.118393192E1,-1.389717404E-2,-1.374445739E-3,7.330377586E-3
5.168804416E1,1.069013379E-3,-4.123337101E-3,1.527161920E-3
5.219215822E1,3.512472380E-3,-5.192350596E-3,-3.817904973E-3
5.269627400E1,-7.635809947E-3,-4.734201822E-3,-2.138026757E-3
5.320039135E1,-2.901607659E-3,-4.886918236E-3,-1.084284950E-2
5.370450994E1,-2.901607659E-3,-6.108647678E-3,-1.343902480E-2
5.420862958E1,-3.665188793E-3,-5.803215317E-3,6.108647678E-3
5.471275010E1,-4.581485991E-4,-1.679878100E-3,-3.054323839E-3
5.521687145E1,-2.290742937E-3,-4.428769462E-3,-3.359756200E-3
5.572099369E1,-5.039634649E-3,-5.650499370E-3,-7.024944760E-3
5.622511692E1,-1.221729536E-2,-1.007926930E-2,-1.114828233E-2
5.672924124E1,-9.162971983E-4,-1.496618707E-2,-3.222311661E-2
5.723336645E1,8.032871783E-2,1.130099874E-2,5.192350596E-3
5.773749228E1,2.139553875E-1,-4.581485991E-4,-1.389717404E-2
5.824161843E1,8.888082206E-2,-1.435532235E-2,-4.581485991E-4
5.874574484E1,-1.618791744E-2,-1.603520103E-2,1.496618707E-2
5.924987124E1,-5.787943676E-2,3.359756200E-3,-7.330377586E-3
5.975399765E1,-7.513637096E-2,2.748891478E-3,7.483093534E-3
6.025812385E1,-3.359756200E-3,-4.581485875E-3,-3.054323839E-3
6.076224973E1,-2.748891478E-3,-6.719512399E-3,-6.566796452E-3
6.126637525E1,-5.192350596E-3,-7.788525894E-3,-1.160643063E-2
6.177050051E1,1.221729559E-3,-4.886918236E-3,-1.527161920E-3
6.227462619E1,-2.901607659E-3,-4.428769462E-3,-6.108647794E-4
6.277875239E1,-4.581485875E-3,-5.039634649E-3,-2.443459118E-3
6.328287900E1,4.581485991E-4,-4.428769462E-3,-3.970621154E-3
6.378700572E1,-4.734201822E-3,-5.497782957E-3,-7.483093534E-3
6.429113223E1,1.527161949E-4,-5.345067009E-3,3.054323897E-4
6.479525848E1,-5.650499370E-3,-9.621120058E-3,6.108647678E-3
6.529938442E1,2.596175298E-3,-3.970621154E-3,-7.330377586E-3
6.580351005E1,-3.512472380E-3,-3.054323839E-3,-7.024944760E-3
6.630763536E1,-2.443459118E-3,-4.276053514E-3,-1.160643063E-2
6.681176036E1,4.581485991E-4,-1.527161920E-3,-2.290742937E-3
6.731588504E1,-4.123337101E-3,-2.290742937E-3,-5.650499370E-3
6.782000937E1,6.108647794E-4,-2.901607659E-3,-6.414080039E-3
6.832413333E1,3.054323897E-4,-1.985310577E-3,-5.497782957E-3
6.882825692E1,-7.941242307E-3,-2.290742937E-3,-9.162971750E-3
6.933238031E1,-3.970621154E-3,-2.901607659E-3,-7.941242307E-3
6.983650359E1,2.443459118E-3,-4.886918236E-3,-1.099556591E-2
7.034062661E1,-2.901607659E-3,-3.207040019E-3,6.108647794E-4
7.084474921E1,-2.290742937E-3,-3.359756200E-3,3.054323897E-4
7.134887150E1,-1.527161949E-4,-4.734201822E-3,-1.450803876E-2
7.185299359E1,1.069013379E-3,-1.527161949E-4,1.832594397E-3
7.235711541E1,-1.221729536E-2,-4.276053514E-3,-6.719512399E-3
7.286123692E1,-0.000000000E0,-5.039634649E-3,-1.099556591E-2
7.336535812E1,-3.054323897E-4,-3.054323897E-4,-6.108647794E-4
7.386947900E1,-2.138026757E-3,-3.207040019E-3,-2.138026757E-3
7.437359958E1,-6.872228812E-3,-2.290742937E-3,-6.108647678E-3
7.487771999E1,-1.328630932E-2,-1.175914705E-2,-1.740964688E-2
7.538184077E1,-2.901607659E-3,-9.010255337E-3,-1.175914705E-2
7.588596239E1,1.527161949E-4,5.497782957E-3,3.817904973E-3
7.639008484E1,1.527161920E-3,-0.000000000E0,-1.374445739E-3
7.689420812E1,3.054323897E-4,-1.527161949E-4,-3.970621154E-3
7.739833229E1,2.901607659E-3,-2.748891478E-3,-7.330377586E-3
7.790245723E1,-4.428769462E-3,-7.024944760E-3,-1.267544460E-2
7.840658270E1,-3.817904973E-3,-3.512472380E-3,-4.276053514E-3
7.891070843E1,1.832594397E-3,7.635809598E-4,3.207040019E-3
7.941483406E1,-8.704823442E-3,4.581485991E-4,-2.748891478E-3
7.991895981E1,6.108647678E-3,-3.512472380E-3,-4.886918236E-3
8.042308528E1,-1.053741761E-2,-2.901607659E-3,-7.483093534E-3
8.092721059E1,-1.863137633E-2,4.276053514E-3,7.330377586E-3
8.143133575E1,-4.520399496E-2,-1.954767294E-2,6.566796452E-3
8.193546080E1,-6.429351866E-2,-1.434005052E-1,5.940660089E-2
8.243958575E1,1.985310577E-3,-1.392771751E-1,-1.505781710E-1
8.294371054E1,1.004872546E-1,-5.468766689E-1,-2.159406990E-1
8.344783528E1,1.291978955E-1,-2.909243584E0,6.701186895E-1
8.395196002E1,2.400698513E-1,-6.750056148E-2,3.433060050E-1
8.445608460E1,-1.041524485E-1,5.711585656E-2,3.970621154E-2
8.496020908E1,-2.504545636E-2,-7.254019380E-2,1.618791670E-1
8.546433335E1,1.954767294E-2,-1.924224012E-2,2.290742844E-2
8.596845742E1,-7.452550530E-2,1.701258421E-1,-3.894263133E-2
8.647258117E1,1.207985133E-1,4.358520210E-1,-3.347539008E-1
8.697670471E1,3.338375986E-1,-3.045161068E-1,1.831067204E-1
8.748082804E1,-3.375027776E-1,8.170316368E-2,2.768744528E-1
8.798495117E1,7.742711157E-2,-4.825831577E-2,4.260781780E-2
8.848907408E1,-2.596175298E-3,6.108647794E-4,-2.244928107E-2
8.899319674E1,9.468403645E-3,-3.359756246E-2,-1.313359290E-1
8.949731914E1,1.496618707E-2,5.986474827E-2,9.162971983E-4
9.000144132E1,2.428187430E-2,-1.850920320E-1,4.062250629E-2
9.050556335E1,6.856957078E-2,5.085449293E-2,1.021671370E-1
9.100968518E1,-2.962694131E-2,1.740964688E-2,-5.329795182E-2
9.151380684E1,-2.443459118E-3,5.039634649E-3,-2.535088919E-2
9.201792835E1,-2.596175298E-3,-2.687804960E-2,-1.527161989E-2
9.252204966E1,2.596175298E-3,-2.535088919E-2,-1.649334840E-2
9.302617065E1,7.483093534E-3,-1.817322709E-2,-1.053741761E-2
9.353029127E1,3.359756200E-3,-1.404988952E-2,-1.466075517E-2
9.403441153E1,2.901607659E-3,-3.665188793E-3,-1.954767294E-2
9.453853148E1,8.246674202E-3,-4.734201822E-3,-9.315688163E-3
9.504265117E1,9.468403645E-3,-5.803215317E-3,-1.313359290E-2
9.554677065E1,1.099556591E-2,-6.872228812E-3,-1.802051067E-2
9.605088992E1,1.175914705E-2,-5.497782957E-3,-1.725693047E-2
9.655500903E1,1.618791744E-2,-5.039634649E-3,-1.435532235E-2
9.705912794E1,1.893680729E-2,-3.665188793E-3,-2.107483521E-2
9.756324674E1,2.672533318E-2,-6.261364091E-3,-1.374445762E-2
9.806736528E1,1.374445762E-2,-1.007926930E-2,-1.160643063E-2
9.857148351E1,1.511890348E-2,-1.527161989E-2,-2.290742844E-2
9.907560158E1,2.153298259E-2,-9.010255337E-3,-1.908952370E-2
9.957971955E1,2.382372692E-2,-9.926552884E-3,-1.771507785E-2
1.000838373E2,2.580903657E-2,-5.497782957E-3,-1.389717404E-2
1.005879549E2,2.611446939E-2,-1.084284950E-2,-1.313359290E-2
1.010920726E2,2.611446939E-2,-7.177661173E-3,-1.450803876E-2
1.015961902E2,2.764163166E-2,-1.084284950E-2,-1.267544460E-2
1.021003081E2,2.809977904E-2,-6.719512399E-3,-1.328630932E-2
1.026044259E2,2.916879393E-2,-7.177661173E-3,-1.450803876E-2
1.031085438E2,2.932151034E-2,-1.221729536E-2,-1.252272818E-2
1.036126618E2,2.871064469E-2,-8.246674202E-3,-1.084284950E-2
1.041167798E2,2.596175298E-2,-9.315688163E-3,-1.511890348E-2
1.046208978E2,2.916879393E-2,-8.857538924E-3,-8.093958721E-3
1.051250161E2,2.641990222E-2,-2.443459118E-3,-1.252272818E-2
1.056291346E2,4.077522457E-2,-7.483093534E-3,-1.114828233E-2
1.061332533E2,2.901607752E-2,-1.267544460E-2,-1.282816008E-2
1.066373720E2,2.779434808E-2,-8.093958721E-3,-9.315688163E-3
1.071414910E2,2.687804960E-2,-8.093958721E-3,-1.237001177E-2
1.076456104E2,2.733619884E-2,-1.527161920E-3,-8.093958721E-3
1.081497300E2,2.290742844E-2,4.948004708E-2,-5.222893879E-2
1.086538499E2,9.926552884E-3,-1.565341055E-1,-3.802633286E-2
1.091579701E2,2.794706449E-2,1.169806048E-1,-8.093958721E-3
1.096620905E2,2.794706449E-2,-2.443459118E-3,-3.665188793E-3
1.101662113E2,4.382954910E-2,1.221729559E-3,-2.092211880E-2
1.106703322E2,3.726275265E-2,1.420260593E-2,-2.901607659E-3
1.111744534E2,3.176496923E-2,5.650499370E-3,9.010255337E-3
1.116785749E2,2.489273995E-2,-8.857538924E-3,-1.023198478E-2
1.121826965E2,2.535088919E-2,-1.145371422E-2,-1.389717404E-2
1.126868183E2,2.718348242E-2,-2.138026757E-3,-9.468403645E-3
1.131909402E2,2.580903657E-2,-4.886918236E-3,-1.481347065E-2
1.136950621E2,3.100138716E-2,-2.596175298E-3,-7.635809947E-3
1.141991840E2,2.703076601E-2,-4.734201822E-3,-1.450803876E-2
1.147033061E2,2.932151034E-2,-2.443459118E-3,-1.160643063E-2
1.152074282E2,2.748891525E-2,-2.901607659E-3,-1.389717404E-2
1.157115505E2,2.962694131E-2,1.374445739E-3,-7.483093534E-3
1.162156730E2,3.084867075E-2,-5.955931731E-3,-9.468403645E-3
1.167197956E2,2.932151034E-2,-5.955931731E-3,-1.130099874E-2
1.172239183E2,2.886336111E-2,6.108647794E-4,-1.450803876E-2
1.177280409E2,2.932151034E-2,-5.803215317E-3,-1.237001177E-2
1.182321635E2,3.054323979E-2,-3.359756200E-3,-7.330377586E-3
1.187362860E2,2.977965772E-2,-9.010255337E-3,-5.803215317E-3
1.192404086E2,2.489273995E-2,1.527161920E-3,-1.496618707E-2
1.197445312E2,3.039052337E-2,-4.276053514E-3,-1.069013402E-2
1.202486539E2,2.641990222E-2,-6.566796452E-3,-1.847865991E-2
1.207527766E2,3.207040206E-2,-6.872228812E-3,1.527161949E-4
1.212568992E2,2.672533318E-2,-1.832594397E-3,-1.221729536E-2
1.217610217E2,3.039052337E-2,-4.886918236E-3,-8.704823442E-3
1.222651442E2,2.916879393E-2,-1.084284950E-2,-1.420260593E-2
1.227692666E2,2.397644334E-2,3.054323897E-4,-7.024944760E-3
1.232733891E2,2.840521187E-2,-9.162971750E-3,-1.191186346E-2
1.237775115E2,3.054323979E-2,-8.093958721E-3,-6.108647678E-3
1.242816340E2,2.916879393E-2,-8.246674202E-3,-1.282816008E-2
1.247857564E2,2.855792828E-2,-7.330377586E-3,-1.099556591E-2
1.252898787E2,2.825249545E-2,-5.497782957E-3,-8.704823442E-3
1.257940008E2,2.871064469E-2,-6.108647678E-3,-1.084284950E-2
1.262981228E2,2.962694131E-2,-9.010255337E-3,-7.788525894E-3
1.268022448E2,2.779434808E-2,-3.665188793E-3,-7.941242307E-3
1.273063666E2,2.809977904E-2,-7.941242307E-3,-1.527161989E-2
1.278104885E2,3.054323979E-2,-9.621120058E-3,-7.788525894E-3
1.283146102E2,2.809977904E-2,-5.192350596E-3,-1.007926930E-2
1.288187319E2,2.901607752E-2,-6.261364091E-3,-6.872228812E-3
1.293228536E2,2.718348242E-2,-4.428769462E-3,-8.857538924E-3
1.298269753E2,2.641990222E-2,-6.414080039E-3,-1.572976820E-2
1.303310971E2,2.657261863E-2,-1.237001177E-2,-1.450803876E-2
1.308352190E2,3.115410358E-2,-1.420260593E-2,-7.941242307E-3
1.313393412E2,2.901607752E-2,-5.650499370E-3,-1.404988952E-2
1.318434635E2,1.878409274E-2,9.315688163E-3,-1.130099874E-2
1.323475857E2,2.779434808E-2,-1.389717404E-2,-1.053741761E-2
1.328517080E2,3.023780696E-2,-1.023198478E-2,-1.099556591E-2
1.333558303E2,2.504545636E-2,-6.414080039E-3,-1.374445762E-2
1.338599524E2,2.840521187E-2,2.901607659E-3,-7.177661173E-3
1.343640747E2,2.993237413E-2,-1.267544460E-2,-1.023198478E-2
1.348681969E2,3.222311661E-2,-1.618791744E-2,-6.261364091E-3
1.353723191E2,2.336557768E-2,7.483093534E-3,-2.000582218E-2
1.358764414E2,3.039052337E-2,-9.315688163E-3,-7.330377586E-3
1.363805638E2,2.718348242E-2,-1.023198478E-2,-1.206457894E-2
1.368846862E2,3.039052337E-2,-9.315688163E-3,-7.024944760E-3
1.373888086E2,2.397644334E-2,2.138026757E-3,-1.466075517E-2
1.378929310E2,3.130681813E-2,-8.399390616E-3,-7.941242307E-3
1.383970535E2,2.809977904E-2,-6.108647678E-3,-1.175914705E-2
1.389011760E2,2.916879393E-2,-8.246674202E-3,-8.246674202E-3
1.394052984E2,2.550360374E-2,6.108647794E-4,-9.162971750E-3
1.399094206E2,2.886336111E-2,-1.282816008E-2,-1.221729536E-2
1.404135428E2,2.977965772E-2,-1.191186346E-2,-9.315688163E-3
1.409176650E2,2.886336111E-2,-5.345067009E-3,-1.175914705E-2
1.414217872E2,2.855792828E-2,-3.359756200E-3,-1.160643063E-2
1.419259096E2,2.779434808E-2,-3.665188793E-3,-1.099556591E-2
1.424300322E2,2.886336111E-2,-4.428769462E-3,-1.023198478E-2
1.429341553E2,2.718348242E-2,-5.192350596E-3,-1.328630932E-2
1.434382785E2,2.855792828E-2,-9.773836471E-3,-1.175914705E-2
1.439424020E2,2.871064469E-2,-2.748891478E-3,-7.788525894E-3
1.444465256E2,2.733619884E-2,-3.970621154E-3,-9.926552884E-3
1.449506493E2,2.825249545E-2,-1.007926930E-2,-1.206457894E-2
1.454547732E2,2.748891525E-2,-4.276053514E-3,-1.023198478E-2
1.459588971E2,2.657261863E-2,-6.108647678E-3,-1.328630932E-2
1.464630211E2,2.886336111E-2,-1.282816008E-2,-1.038470119E-2
1.469671452E2,2.916879393E-2,-1.053741761E-2,-7.941242307E-3
1.474712693E2,2.977965772E-2,-1.038470119E-2,-6.566796452E-3
1.479753934E2,2.626718581E-2,-8.552107029E-3,-1.404988952E-2
1.484795176E2,2.977965772E-2,-9.315688163E-3,-9.010255337E-3
1.489836417E2,2.764163166E-2,-8.857538924E-3,-1.084284950E-2
1.494877658E2,2.855792828E-2,-9.315688163E-3,-1.038470119E-2
1.499918900E2,2.809977904E-2,-8.399390616E-3,-9.468403645E-3
1.504960143E2,3.176496923E-2,-1.511890348E-2,-7.941242307E-3
1.510001385E2,2.733619884E-2,-1.023198478E-2,-1.603520103E-2
1.515042626E2,2.580903657E-2,1.221729559E-3,-1.053741761E-2
1.520083866E2,3.145953640E-2,-1.970038936E-2,-1.175914705E-2
1.525125106E2,3.023780696E-2,-1.786779426E-2,-9.468403645E-3
1.530166345E2,2.672533318E-2,-2.748891478E-3,-1.053741761E-2
1.535207584E2,2.825249545E-2,-8.093958721E-3,-1.130099874E-2
1.540248822E2,2.871064469E-2,-1.343902480E-2,-1.359174121E-2
1.545290061E2,2.855792828E-2,-5.345067009E-3,-1.053741761E-2
1.550331299E2,2.825249545E-2,-6.108647678E-3,-1.267544460E-2
1.555372536E2,2.871064469E-2,-3.817904973E-3,-1.038470119E-2
1.560413773E2,2.825249545E-2,-7.024944760E-3,-1.038470119E-2
1.565455009E2,2.871064469E-2,-3.207040019E-3,-9.315688163E-3
1.570496247E2,2.779434808E-2,-5.497782957E-3,-1.206457894E-2
1.575537485E2,2.962694131E-2,-5.345067009E-3,-1.084284950E-2
1.580578722E2,2.809977904E-2,-6.108647678E-3,-1.267544460E-2
1.585619960E2,3.054323979E-2,-7.330377586E-3,-4.428769462E-3
1.590661203E2,2.932151034E-2,-3.970621154E-3,-3.665188793E-3
1.595702453E2,2.733619884E-2,-5.803215317E-3,-8.857538924E-3
1.600743711E2,2.932151034E-2,-7.635809947E-3,-4.428769462E-3
1.605784978E2,2.840521187E-2,-2.443459118E-3,-9.162971983E-4
1.610826252E2,2.718348242E-2,-5.345067009E-3,-9.162971983E-4
1.615867530E2,2.519817278E-2,-2.901607659E-3,1.527161920E-3
1.620908812E2,2.474002354E-2,-1.985310577E-3,3.512472380E-3
1.625950099E2,2.275471389E-2,-2.901607659E-3,9.162971983E-4
1.630991389E2,1.970038936E-2,1.985310577E-3,1.679878100E-3
1.636032680E2,1.802051067E-2,4.276053514E-3,4.581485991E-4
1.641073974E2,2.122755162E-2,-6.566796452E-3,7.635809947E-3
1.646115270E2,1.725693047E-2,6.108647794E-4,4.581485875E-3
1.651156569E2,1.175914705E-2,1.069013402E-2,1.221729559E-3
1.656197869E2,1.679878123E-2,-6.261364091E-3,3.512472380E-3
1.661239171E2,1.496618707E-2,-2.748891478E-3,7.788525894E-3
1.666280473E2,1.191186346E-2,6.108647794E-4,5.497782957E-3
1.671321776E2,1.114828233E-2,4.734201822E-3,8.857538924E-3
1.676363083E2,7.330377586E-3,1.832594397E-3,4.428769462E-3
1.681404396E2,8.857538924E-3,1.679878100E-3,7.024944760E-3
1.686445714E2,4.276053514E-3,5.497782957E-3,2.596175298E-3
1.691487034E2,3.970621154E-3,3.359756200E-3,4.734201822E-3
1.696528355E2,3.817904973E-3,-3.817904973E-3,6.261364091E-3
1.701569676E2,2.138026757E-3,4.581485875E-3,5.345067009E-3
1.706610996E2,-1.221729559E-3,1.221729559E-3,-2.290742937E-3
1.711652317E2,-1.985310577E-3,3.207040019E-3,-1.679878100E-3
1.716693636E2,4.581485991E-4,-5.803215317E-3,1.527161949E-4
1.721734955E2,7.635809598E-4,1.527161949E-4,1.679878100E-3
1.726776272E2,-9.162971983E-4,3.970621154E-3,-1.527161949E-4
1.731817588E2,1.527161949E-4,-2.748891478E-3,-2.901607659E-3
1.736858902E2,-1.527161949E-4,-9.162971983E-4,-1.069013379E-3
1.741900214E2,2.290742937E-3,-5.192350596E-3,2.748891478E-3
1.746941526E2,-1.679878100E-3,9.162971983E-4,-1.679878100E-3
1.751982836E2,-9.162971983E-4,2.748891478E-3,1.527161949E-4
1.757024146E2,9.162971983E-4,-2.138026757E-3,1.069013379E-3
1.762065454E2,1.679878100E-3,-6.566796452E-3,-6.108647794E-4
1.767106761E2,-3.054323897E-4,-2.901607659E-3,-1.679878100E-3
1.772148067E2,1.069013379E-3,-2.596175298E-3,4.581485991E-4
1.777189372E2,1.069013379E-3,-2.901607659E-3,-7.635809598E-4
1.782230677E2,1.069013379E-3,-2.443459118E-3,1.679878100E-3
1.787271982E2,1.527161920E-3,-2.901607659E-3,7.635809598E-4
1.792313286E2,3.054323897E-4,-3.512472380E-3,-7.635809598E-4
1.797354590E2,-1.527161949E-4,-0.000000000E0,-9.162971983E-4
1.802395892E2,7.635809598E-4,-1.679878100E-3,1.069013379E-3
1.807437193E2,1.832594397E-3,-3.359756200E-3,1.374445739E-3
1.812478494E2,7.635809598E-4,-2.748891478E-3,-1.527161949E-4
1.817519793E2,1.069013379E-3,-3.512472380E-3,0.000000000E0
1.822561092E2,-6.108647794E-4,0.000000000E0,-7.635809598E-4
1.827602391E2,1.527161920E-3,-4.886918236E-3,1.527161949E-4
1.832643690E2,-9.162971983E-4,2.748891478E-3,4.581485991E-4
1.837684988E2,1.069013379E-3,-2.596175298E-3,7.635809598E-4
1.842726285E2,1.527161920E-3,-6.414080039E-3,-6.108647794E-4
1.847767582E2,-1.527161920E-3,3.817904973E-3,-1.527161920E-3
1.852808879E2,-6.108647794E-4,9.162971983E-4,-1.527161949E-4
1.857850174E2,1.069013379E-3,-3.054323839E-3,1.221729559E-3
1.862891469E2,-0.000000000E0,-1.527161949E-4,1.985310577E-3
1.867932764E2,-4.581485991E-4,-1.527161920E-3,6.108647794E-4
1.872974057E2,-1.069013379E-3,2.901607659E-3,-2.138026757E-3
1.878015348E2,7.635809598E-4,-3.207040019E-3,-4.581485991E-4
1.883056639E2,-3.054323839E-3,5.803215317E-3,1.527161949E-4
1.888097928E2,-8.552107029E-3,1.313359290E-2,1.374445739E-3
1.893139217E2,-1.527161949E-4,-0.000000000E0,1.527161949E-4
1.898180505E2,1.221729559E-3,-3.512472380E-3,-1.527161949E-4
1.903221793E2,-1.679878100E-3,1.679878100E-3,-1.985310577E-3
1.908263079E2,-2.138026757E-3,6.108647678E-3,1.527161949E-4
1.913304364E2,-1.618791744E-2,3.512472659E-2,7.635809598E-4
1.918345646E2,-8.399390616E-3,-5.497782957E-3,-3.970621154E-3
1.923386926E2,1.527161920E-3,-6.261364091E-3,1.832594397E-3
1.928428205E2,-0.000000000E0,4.581485991E-4,-1.069013379E-3
1.933469483E2,1.527161949E-4,-3.207040019E-3,-2.901607659E-3
1.938510761E2,-3.054323897E-4,-1.679878100E-3,-1.527161920E-3
1.943552037E2,-0.000000000E0,-1.221729559E-3,-6.108647794E-4
1.948593313E2,4.581485991E-4,-9.162971983E-4,9.162971983E-4
1.953634589E2,1.527161949E-4,-1.527161949E-4,1.374445739E-3
1.958675865E2,-3.054323897E-4,-0.000000000E0,-1.069013379E-3
1.963717141E2,-3.054323897E-4,-0.000000000E0,-2.596175298E-3
1.968758424E2,-1.527161949E-4,-2.596175298E-3,-1.374445739E-3
1.973799698E2,3.054323897E-4,-7.635809598E-4,-4.581485991E-4
1.978840978E2,-0.000000000E0,-4.581485991E-4,4.581485991E-4
1.983882259E2,1.527161949E-4,4.581485991E-4,1.069013379E-3
1.988923540E2,-4.581485991E-4,1.527161949E-4,-1.374445739E-3
1.993964821E2,-1.527161949E-4,-1.374445739E-3,-1.679878100E-3
1.999006105E2,-3.054323897E-4,-6.108647794E-4,-1.679878100E-3
2.004047386E2,4.581485991E-4,-9.162971983E-4,-3.054323897E-4
2.009088666E2,1.527161949E-4,1.527161949E-4,6.108647794E-4
2.014129948E2,3.054323897E-4,4.581485991E-4,1.374445739E-3
2.019171229E2,-3.054323897E-4,-6.108647794E-4,-1.985310577E-3
2.024212512E2,1.527161949E-4,-7.635809598E-4,-7.635809598E-4
2.029253795E2,-0.000000000E0,-7.635809598E-4,-6.108647794E-4
2.034295078E2,-3.054323897E-4,-3.054323897E-4,-6.108647794E-4
2.039336361E2,7.635809598E-4,0.000000000E0,1.679878100E-3
2.044377644E2,0.000000000E0,-1.527161949E-4,4.581485991E-4
2.049418928E2,-3.054323897E-4,-9.162971983E-4,-1.832594397E-3
2.054460211E2,-0.000000000E0,-7.635809598E-4,-1.221729559E-3
2.059501496E2,-0.000000000E0,-1.527161949E-4,-0.000000000E0
2.064542779E2,6.108647794E-4,-1.527161949E-4,1.985310577E-3
2.069584062E2,-0.000000000E0,1.527161949E-4,-0.000000000E0
2.074625344E2,-4.581485991E-4,-1.527161949E-4,-1.679878100E-3
2.079666626E2,-0.000000000E0,-1.527161949E-4,-7.635809598E-4
2.084707908E2,3.054323897E-4,-6.108647794E-4,6.108647794E-4
2.089749190E2,9.162971983E-4,-0.000000000E0,2.290742937E-3
2.094790473E2,-4.581485991E-4,1.527161949E-4,-1.679878100E-3
2.099831754E2,-0.000000000E0,-6.108647794E-4,-1.679878100E-3
2.104873035E2,1.527161949E-4,-9.162971983E-4,-7.635809598E-4
2.109914316E2,0.000000000E0,-7.635809598E-4,-1.527161949E-4
2.114955597E2,6.108647794E-4,3.054323897E-4,1.985310577E-3
2.119996878E2,3.054323897E-4,-4.581485991E-4,1.527161949E-4
2.125038161E2,-4.581485991E-4,-6.108647794E-4,-1.985310577E-3
2.130079446E2,0.000000000E0,-4.581485991E-4,-9.162971983E-4
2.135120733E2,4.581485991E-4,-9.162971983E-4,-4.581485991E-4
2.140162021E2,1.527161949E-4,-1.527161949E-4,1.069013379E-3
2.145203309E2,6.108647794E-4,0.000000000E0,1.679878100E-3
2.150244598E2,-3.054323897E-4,-1.527161949E-4,-1.679878100E-3
2.155285887E2,-1.527161949E-4,-7.635809598E-4,-1.374445739E-3
2.160327177E2,-1.527161949E-4,-4.581485991E-4,-6.108647794E-4
2.165368467E2,0.000000000E0,-6.108647794E-4,1.527161949E-4
2.170409757E2,-9.162971983E-4,4.428769462E-3,6.108647794E-4
2.175451046E2,-5.345067009E-3,9.468403645E-3,-8.093958721E-3
2.180492334E2,-1.099556591E-2,9.621120058E-3,-9.468403645E-3
2.185533622E2,-1.832594397E-3,-2.748891478E-3,-2.748891478E-3
2.190574908E2,-4.581485991E-4,-2.596175298E-3,-3.054323897E-4
2.195616194E2,-3.054323897E-4,-1.985310577E-3,4.581485991E-4
2.200657478E2,1.527161949E-4,-7.635809598E-4,1.221729559E-3
2.205698763E2,-9.162971983E-4,-1.985310577E-3,-2.290742937E-3
2.210740048E2,1.527161949E-4,-3.054323839E-3,-1.221729559E-3
2.215781332E2,-0.000000000E0,-2.138026757E-3,-3.054323897E-4
2.220822616E2,0.000000000E0,-1.679878100E-3,-3.054323897E-4
2.225863899E2,-1.527161949E-4,-9.162971983E-4,-0.000000000E0
2.230905183E2,1.527161949E-4,-3.054323897E-4,2.290742937E-3
2.235946465E2,0.000000000E0,-1.527161949E-4,4.581485991E-4
2.240987746E2,0.000000000E0,-1.832594397E-3,-1.527161920E-3
2.246029029E2,-3.054323897E-4,-1.221729559E-3,-7.635809598E-4
2.251070323E2,1.527161949E-4,-1.069013379E-3,-1.527161949E-4
2.256111624E2,-4.581485991E-4,-1.069013379E-3,-4.581485991E-4
2.261152931E2,1.527161949E-4,0.000000000E0,1.374445739E-3
2.266194240E2,-4.581485991E-4,4.581485991E-4,6.108647794E-4
2.271235550E2,-0.000000000E0,-7.635809598E-4,-1.679878100E-3
2.276276859E2,6.108647794E-4,-2.138026757E-3,-9.162971983E-4
2.281318167E2,-1.527161949E-4,-9.162971983E-4,-1.679878100E-3
2.286359477E2,-4.581485991E-4,-9.162971983E-4,-4.581485991E-4
2.291400786E2,3.054323897E-4,4.581485991E-4,1.374445739E-3
2.296442094E2,0.000000000E0,-3.054323839E-3,2.138026757E-3
2.301483402E2,-2.443459118E-3,1.221729559E-3,-3.207040019E-3
2.306524710E2,-1.221729559E-3,-1.985310577E-3,-3.054323839E-3
2.311566017E2,7.635809598E-4,-1.679878100E-3,1.069013379E-3
2.316607325E2,-1.527161920E-3,-2.748891478E-3,-1.527161920E-3
2.321648632E2,6.108647794E-4,-3.665188793E-3,4.886918236E-3
2.326689939E2,-2.290742937E-3,-6.872228812E-3,-3.359756200E-3
2.331731247E2,-1.527161920E-3,-6.261364091E-3,1.221729559E-3
2.336772554E2,-9.162971983E-4,-7.024944760E-3,-1.374445739E-3
2.341813860E2,-9.162971983E-4,-7.941242307E-3,3.054323897E-4
2.346855165E2,-1.527161920E-3,-7.024944760E-3,-1.527161949E-4
2.351896472E2,-1.374445739E-3,-3.665188793E-3,3.970621154E-3
2.356937785E2,-1.679878100E-3,-7.788525894E-3,1.832594397E-3
2.361979107E2,-9.926552884E-3,1.679878100E-3,-2.443459118E-3
2.367020434E2,-4.428769462E-3,-6.108647794E-4,-1.221729559E-3
2.372061762E2,-1.832594397E-3,-1.527161920E-3,-1.069013379E-3
2.377103090E2,-2.901607659E-3,-1.985310577E-3,-1.985310577E-3
2.382144417E2,3.054323897E-4,3.054323897E-4,5.650499370E-3
2.387185742E2,-2.901607659E-3,-5.039634649E-3,-1.084284950E-2
2.392227067E2,3.817904973E-3,-3.207040019E-3,6.719512399E-3
2.397268391E2,-2.748891478E-3,-4.123337101E-3,-5.803215317E-3
2.402309715E2,2.443459118E-3,-6.872228812E-3,6.566796452E-3
2.407351038E2,5.650499370E-3,-1.282816008E-2,7.177661173E-3
2.412392360E2,2.138026757E-3,-1.069013402E-2,-1.832594397E-3
2.417433682E2,-0.000000000E0,-2.901607659E-3,-2.443459118E-3
2.422475004E2,3.512472380E-3,-1.007926930E-2,1.985310577E-3
2.427516329E2,3.054323839E-3,-2.290742937E-3,4.428769462E-3
2.432557655E2,2.443459118E-3,-1.679878100E-3,1.099556591E-2
2.437598983E2,2.748891478E-3,-8.857538924E-3,2.397644334E-2
2.442640311E2,-1.481347065E-2,-7.330377586E-3,2.397644334E-2
2.447681640E2,-7.941242307E-3,-1.023198478E-2,3.711003438E-2
2.452722969E2,-1.863137633E-2,-1.527161949E-4,3.726275265E-2
2.457764298E2,-2.947422490E-2,1.374445762E-2,3.924806044E-2
2.462805629E2,-3.665188700E-2,2.275471389E-2,4.337139800E-2
2.467846962E2,-4.932733253E-2,1.679878123E-2,1.954767294E-2
2.472888300E2,-5.390881747E-2,1.908952370E-2,1.175914705E-2
2.477929644E2,-4.734202102E-2,1.053741761E-2,1.053741761E-2
2.482970994E2,-4.703658819E-2,1.343902480E-2,-9.315688163E-3
2.488012346E2,-3.619373962E-2,6.872228812E-3,-4.581485875E-3
2.493053698E2,-3.100138716E-2,7.483093534E-3,-1.481347065E-2
2.498095049E2,-1.970038936E-2,5.345067009E-3,-1.343902480E-2
2.503136401E2,-1.099556591E-2,9.162971983E-4,-1.618791744E-2
2.508177753E2,1.527161949E-4,-7.177661173E-3,-3.207040019E-3
2.513219105E2,3.054323897E-4,1.679878100E-3,2.443459118E-3
2.518260455E2,7.635809598E-4,-2.596175298E-3,4.581485991E-4
2.523301805E2,-1.527161920E-3,4.428769462E-3,-1.374445739E-3
2.528343154E2,2.901607659E-3,7.330377586E-3,7.635809598E-4
2.533384501E2,-1.527161949E-4,1.038470119E-2,-6.108647678E-3
2.538425848E2,3.054323839E-3,9.468403645E-3,1.069013379E-3
2.543467194E2,1.527161949E-4,1.130099874E-2,-3.512472380E-3
2.548508539E2,3.054323839E-3,1.206457894E-2,2.748891478E-3
2.553549884E2,-1.374445739E-3,1.099556591E-2,-7.177661173E-3
2.558591228E2,2.748891478E-3,1.252272818E-2,4.581485991E-4
2.563632573E2,-2.901607659E-3,6.872228812E-3,-4.581485875E-3
2.568673919E2,1.221729559E-3,-1.679878100E-3,1.527161920E-3
2.573715264E2,-2.443459118E-3,9.162971983E-4,-3.970621154E-3
2.578756611E2,2.901607659E-3,-4.428769462E-3,4.734201822E-3
2.583797959E2,6.108647794E-4,4.581485991E-4,6.108647794E-4
2.588839306E2,-1.527161920E-3,-1.527161920E-3,-3.665188793E-3
2.593880653E2,1.527161920E-3,-0.000000000E0,1.832594397E-3
2.598922003E2,-1.527161920E-3,6.108647794E-4,-4.276053514E-3
2.603963348E2,-1.069013379E-3,5.803215317E-3,9.162971983E-4
2.609004694E2,1.374445739E-3,-7.330377586E-3,1.985310577E-3
2.614046041E2,6.108647794E-4,-3.817904973E-3,-1.527161949E-4
2.619087390E2,1.069013379E-3,2.443459118E-3,1.985310577E-3
2.624128739E2,-4.581485875E-3,5.803215317E-3,-5.955931731E-3
2.629170088E2,2.748891478E-3,-4.428769462E-3,4.276053514E-3
2.634211437E2,4.581485991E-4,-6.108647678E-3,-1.069013379E-3
2.639252787E2,-1.221729559E-3,4.886918236E-3,1.832594397E-3
2.644294137E2,-1.374445739E-3,1.069013379E-3,-6.261364091E-3
2.649335485E2,5.039634649E-3,-9.010255337E-3,6.719512399E-3
2.654376834E2,-3.665188793E-3,6.108647794E-4,-5.955931731E-3
2.659418183E2,1.069013379E-3,1.985310577E-3,-1.527161949E-4
2.664459531E2,6.108647794E-4,-3.054323897E-4,1.832594397E-3
2.669500879E2,-1.221729559E-3,-7.635809598E-4,-1.527161920E-3
2.674542227E2,1.679878100E-3,7.635809598E-4,2.901607659E-3
2.679583575E2,-4.581485991E-4,1.527161949E-4,-4.581485991E-4
2.684624922E2,-1.527161949E-4,0.000000000E0,-1.985310577E-3
2.689666270E2,1.527161920E-3,-2.290742937E-3,3.054323897E-4
2.694707618E2,-3.054323897E-4,7.635809598E-4,1.069013379E-3
2.699748972E2,-3.359756200E-3,-0.000000000E0,-3.512472380E-3
2.704790329E2,2.596175298E-3,-2.290742937E-3,1.832594397E-3
2.709831690E2,-2.138026757E-3,8.857538924E-3,-2.138026757E-3
2.714873050E2,-2.290742937E-3,3.054323897E-4,-2.596175298E-3
2.719914409E2,1.679878100E-3,-5.803215317E-3,2.901607659E-3
2.724955768E2,1.527161949E-4,-3.054323839E-3,-2.138026757E-3
2.729997126E2,2.443459118E-3,1.221729559E-3,3.817904973E-3
2.735038484E2,3.054323897E-4,1.527161949E-4,-1.527161920E-3
2.740079843E2,-2.748891478E-3,9.468403645E-3,-4.428769462E-3
2.745121202E2,2.443459118E-3,6.108647794E-4,1.527161920E-3
2.750162558E2,-1.221729559E-3,9.162971983E-4,-7.635809598E-4
2.755203915E2,4.581485991E-4,-4.886918236E-3,-1.374445739E-3
2.760245269E2,-1.679878100E-3,9.468403645E-3,-4.581485991E-4
2.765286623E2,3.054323897E-4,1.374445739E-3,-7.024944760E-3
2.770327976E2,1.191186346E-2,-1.267544460E-2,-5.039634649E-3
2.775369328E2,1.237001177E-2,-7.483093534E-3,-1.114828233E-2
2.780410680E2,1.328630932E-2,6.566796452E-3,-1.252272818E-2
2.785452030E2,2.229656465E-2,-1.007926930E-2,-1.420260593E-2
2.790493380E2,2.672533318E-2,-1.145371422E-2,-2.748891478E-3
2.795534729E2,2.275471389E-2,-1.084284950E-2,-1.404988952E-2
2.800576076E2,1.893680729E-2,4.734201822E-3,-1.374445762E-2
2.805617421E2,2.275471389E-2,-6.108647678E-3,-1.191186346E-2
2.810658767E2,2.428187430E-2,-1.359174121E-2,-5.803215317E-3
2.815700112E2,1.924224012E-2,-1.069013402E-2,-3.054323839E-3
2.820741456E2,1.160643063E-2,7.635809598E-4,-3.817904973E-3
2.825782799E2,1.007926930E-2,-3.970621154E-3,-4.581485991E-4
2.830824142E2,5.497782957E-3,-3.665188793E-3,-1.069013379E-3
2.835865485E2,4.734201822E-3,-6.872228812E-3,4.123337101E-3
2.840906828E2,-3.054323839E-3,5.955931731E-3,-1.069013379E-3
2.845948171E2,-9.162971983E-4,6.108647678E-3,-3.817904973E-3
2.850989513E2,1.527161920E-3,2.748891478E-3,2.138026757E-3
2.856030854E2,-1.221729559E-3,-3.817904973E-3,-3.970621154E-3
2.861072194E2,3.054323839E-3,-1.527161920E-3,1.069013379E-3
2.866113534E2,9.162971983E-4,-5.650499370E-3,6.108647794E-4
2.871154873E2,1.832594397E-3,-3.817904973E-3,2.748891478E-3
2.876196213E2,2.596175298E-3,-2.748891478E-3,3.207040019E-3
2.881237551E2,-3.054323897E-4,-3.817904973E-3,-3.817904973E-3
2.886278890E2,-0.000000000E0,-1.527161949E-4,-1.985310577E-3
2.891320228E2,-1.527161949E-4,-4.276053514E-3,-3.817904973E-3
2.896361566E2,3.665188793E-3,-1.527161949E-4,6.261364091E-3
2.901402904E2,-3.054323897E-4,-4.428769462E-3,-9.162971983E-4
2.906444241E2,-0.000000000E0,1.679878100E-3,-1.374445739E-3
2.911485578E2,3.054323897E-4,-3.054323839E-3,-4.581485991E-4
2.916526914E2,7.635809598E-4,-2.138026757E-3,-5.650499370E-3
2.921568251E2,5.955931731E-3,-2.290742937E-3,-6.414080039E-3
2.926609589E2,9.315688163E-3,-2.138026757E-3,-5.497782957E-3
2.931650928E2,1.038470119E-2,-4.276053514E-3,-1.191186346E-2
2.936692267E2,1.466075517E-2,-3.817904973E-3,-1.313359290E-2
2.941733609E2,1.924224012E-2,-6.566796452E-3,-1.252272818E-2
2.946774949E2,2.015853859E-2,-6.414080039E-3,-1.603520103E-2
2.951816291E2,2.397644334E-2,-7.024944760E-3,-1.206457894E-2
2.956857632E2,2.412915789E-2,-5.955931731E-3,-1.343902480E-2
2.961898974E2,2.428187430E-2,-5.345067009E-3,-1.114828233E-2
2.966940316E2,2.275471389E-2,-7.635809947E-3,-1.542433538E-2
2.971981658E2,2.489273995E-2,-6.108647678E-3,-9.315688163E-3
2.977023000E2,2.504545636E-2,-7.024944760E-3,-9.468403645E-3
2.982064342E2,2.107483521E-2,-7.483093534E-3,-1.145371422E-2
2.987105683E2,2.244928107E-2,-4.428769462E-3,-1.527161949E-4
2.992147024E2,1.389717404E-2,-4.428769462E-3,-9.010255337E-3
2.997188365E2,1.527161989E-2,-6.261364091E-3,-6.108647794E-4
3.002229707E2,1.084284950E-2,-7.788525894E-3,-4.734201822E-3
3.007271050E2,1.084284950E-2,-4.886918236E-3,1.221729559E-3
3.012312395E2,6.566796452E-3,-5.192350596E-3,-3.207040019E-3
3.017353748E2,8.093958721E-3,-2.901607659E-3,5.497782957E-3
3.022395109E2,3.054323839E-3,-1.679878100E-3,-2.748891478E-3
3.027436479E2,3.970621154E-3,-1.069013379E-3,5.192350596E-3
3.032477853E2,-1.374445739E-3,1.985310577E-3,3.054323897E-4
3.037519230E2,-1.985310577E-3,-2.901607659E-3,-1.832594397E-3
3.042560610E2,4.581485991E-4,1.527161949E-4,1.527161920E-3
3.047601991E2,-1.985310577E-3,1.221729559E-3,-7.635809598E-4
3.052643374E2,-1.221729559E-3,1.221729559E-3,-0.000000000E0
3.057684758E2,1.069013379E-3,-2.596175298E-3,6.108647794E-4
3.062726144E2,1.374445739E-3,6.108647794E-4,1.985310577E-3
3.067767530E2,4.581485991E-4,1.527161949E-4,-1.374445739E-3
3.072808916E2,3.054323839E-3,-9.162971983E-4,7.635809598E-4
3.077850303E2,-2.901607659E-3,1.985310577E-3,-6.414080039E-3
3.082891691E2,4.734201822E-3,-3.512472380E-3,5.039634649E-3
3.087933079E2,-1.374445739E-3,-1.985310577E-3,-3.817904973E-3
3.092974467E2,1.374445739E-3,1.679878100E-3,4.276053514E-3
3.098015854E2,-1.527161949E-4,-1.069013379E-3,-0.000000000E0
3.103057241E2,1.527161949E-4,-6.108647794E-4,-1.679878100E-3
3.108098630E2,-3.054323897E-4,-4.581485991E-4,-1.832594397E-3
3.113140019E2,3.054323897E-4,-4.581485991E-4,0.000000000E0
3.118181408E2,1.527161920E-3,0.000000000E0,2.748891478E-3
3.123222797E2,1.527161949E-4,-1.527161949E-4,3.054323897E-4
3.128264184E2,-1.221729559E-3,-3.054323897E-4,-2.290742937E-3
3.133305571E2,-1.069013379E-3,3.054323897E-4,-2.443459118E-3
3.138346957E2,9.162971983E-4,-4.581485991E-4,0.000000000E0
3.143388344E2,-3.054323897E-4,-1.527161949E-4,-4.581485991E-4
3.148429730E2,6.108647794E-4,6.108647794E-4,1.069013379E-3
3.153471117E2,7.635809598E-4,-3.054323897E-4,1.069013379E-3
3.158512504E2,-6.108647794E-4,-7.635809598E-4,-2.290742937E-3
3.163553892E2,4.581485991E-4,-1.985310577E-3,-4.581485991E-4
3.168595279E2,7.635809598E-4,-1.527161920E-3,1.527161949E-4
3.173636668E2,9.162971983E-4,-3.665188793E-3,-0.000000000E0
3.178678056E2,4.581485991E-4,6.108647794E-4,1.221729559E-3
3.183719445E2,7.635809598E-4,-1.527161949E-4,7.635809598E-4
3.188760834E2,-3.054323897E-4,-1.527161920E-3,-1.679878100E-3
3.193802223E2,-7.635809598E-4,1.069013379E-3,-1.221729559E-3
3.198843607E2,4.581485991E-4,-6.108647794E-4,3.054323897E-4
3.203884995E2,2.901607659E-3,-4.581485875E-3,2.596175298E-3
3.208926385E2,-6.108647794E-4,3.054323897E-4,-1.527161920E-3
3.213967781E2,-4.581485991E-4,-1.069013379E-3,-1.527161920E-3
3.219009185E2,1.527161949E-4,1.527161949E-4,-3.054323897E-4
3.224050598E2,-3.054323897E-4,-3.054323897E-4,-3.054323897E-4
3.229092020E2,3.054323897E-4,1.221729559E-3,1.069013379E-3
3.234133448E2,-1.802051067E-2,4.657844082E-2,-4.886918236E-3
3.239174884E2,3.512472380E-3,-1.511890348E-2,7.635809598E-4
3.244216324E2,0.000000000E0,-1.985310577E-3,-9.162971983E-4
3.249257768E2,1.527161949E-4,-7.635809598E-4,-6.108647794E-4
3.254299215E2,7.635809598E-4,3.054323897E-4,1.374445739E-3
3.259340665E2,9.162971983E-4,4.581485991E-4,1.374445739E-3
3.264382116E2,-9.162971983E-4,-4.581485991E-4,-2.138026757E-3
3.269423568E2,4.581485991E-4,-1.069013379E-3,-3.054323897E-4
3.274465019E2,-4.581485991E-4,-0.000000000E0,-1.374445739E-3
3.279506468E2,1.527161949E-4,-6.108647794E-4,-1.527161949E-4
3.284547917E2,1.374445739E-3,9.162971983E-4,3.207040019E-3
3.289589364E2,-1.221729559E-3,-4.581485991E-4,-2.901607659E-3
3.294630812E2,3.054323897E-4,-6.108647794E-4,-6.108647794E-4
3.299672259E2,-4.581485991E-4,-7.635809598E-4,-1.221729559E-3
3.304713703E2,4.581485991E-4,0.000000000E0,1.221729559E-3
3.309755147E2,0.000000000E0,4.581485991E-4,3.054323897E-4
3.314796590E2,-7.635809598E-4,-4.581485991E-4,-2.138026757E-3
3.319838033E2,-0.000000000E0,-1.527161949E-4,-7.635809598E-4
3.324879475E2,-4.581485991E-4,-0.000000000E0,-1.374445739E-3
3.329920918E2,3.054323897E-4,1.527161949E-4,1.527161949E-4
3.334962360E2,3.054323897E-4,-4.581485991E-4,3.054323897E-4
3.340003802E2,3.054323897E-4,6.108647794E-4,1.069013379E-3
3.345045243E2,-4.581485991E-4,-1.221729559E-3,-2.138026757E-3
3.350086684E2,-1.527161949E-4,-1.527161949E-4,-9.162971983E-4
3.355128125E2,-3.054323897E-4,1.527161949E-4,-6.108647794E-4
3.360169567E2,9.162971983E-4,4.581485991E-4,1.832594397E-3
3.365211008E2,-3.054323897E-4,-3.054323897E-4,-1.069013379E-3
3.370252448E2,-9.162971983E-4,-3.054323897E-4,-2.138026757E-3
3.375293887E2,1.527161949E-4,-1.527161949E-4,-4.581485991E-4
3.380335323E2,-3.054323897E-4,-3.054323897E-4,-6.108647794E-4
3.385376757E2,1.527161949E-4,-6.108647794E-4,-4.581485991E-4
3.390418190E2,4.581485991E-4,3.054323897E-4,1.527161920E-3
3.395459622E2,1.527161949E-4,6.108647794E-4,6.108647794E-4
3.400501053E2,-1.527161949E-4,-6.108647794E-4,-1.221729559E-3
3.405542482E2,-3.054323897E-4,-4.581485991E-4,-1.221729559E-3
3.410583910E2,0.000000000E0,-4.581485991E-4,-4.581485991E-4
3.415625336E2,-0.000000000E0,-3.054323897E-4,-4.581485991E-4
3.420666761E2,3.054323897E-4,7.635809598E-4,1.069013379E-3
3.425708186E2,6.108647794E-4,6.108647794E-4,9.162971983E-4
3.430749612E2,-9.162971983E-4,-3.054323897E-4,-1.985310577E-3
3.435791038E2,-1.527161949E-4,-7.635809598E-4,-1.069013379E-3
3.440832464E2,1.527161949E-4,-1.527161949E-4,-3.054323897E-4
3.445873891E2,-0.000000000E0,0.000000000E0,-4.581485991E-4
3.450915320E2,-1.527161949E-4,-0.000000000E0,-3.054323897E-4
3.455956749E2,7.635809598E-4,3.054323897E-4,1.527161920E-3
3.460998178E2,-3.207040019E-3,6.872228812E-3,-2.596175298E-3
3.466039608E2,-8.093958721E-3,6.872228812E-3,-9.010255337E-3
3.471081038E2,-2.046396956E-2,1.267544460E-2,-1.007926930E-2
3.476122468E2,-7.177661173E-3,-6.414080039E-3,-5.039634649E-3
3.481163897E2,-1.374445739E-3,-7.330377586E-3,-6.108647794E-4
3.486205326E2,-7.635809598E-4,-3.665188793E-3,1.221729559E-3
3.491246755E2,-9.162971983E-4,-2.596175298E-3,9.162971983E-4
3.496288182E2,-1.527161949E-4,-5.192350596E-3,-1.527161920E-3
3.501329610E2,4.581485991E-4,-3.817904973E-3,-6.108647794E-4
3.506371040E2,-1.527161949E-4,-2.290742937E-3,-6.108647794E-4
3.511412471E2,-1.527161949E-4,-1.527161949E-4,1.985310577E-3
3.516453901E2,-6.108647794E-4,-6.108647794E-4,6.108647794E-4
3.521495331E2,-0.000000000E0,-2.901607659E-3,-1.832594397E-3
3.526536761E2,6.108647794E-4,-2.748891478E-3,1.374445739E-3
3.531578190E2,1.069013379E-3,-3.207040019E-3,2.748891478E-3
3.536619621E2,-4.581485991E-4,-3.054323897E-4,6.108647678E-3
3.541661052E2,-1.832594397E-3,-1.069013379E-3,7.024944760E-3
3.546702482E2,1.069013379E-3,-0.000000000E0,1.099556591E-2
3.551743910E2,1.679878100E-3,1.374445739E-3,2.015853859E-2
3.556785338E2,-2.748891478E-3,4.581485991E-4,1.985310577E-2
3.561826766E2,-6.108647678E-3,2.138026757E-3,2.092211880E-2
3.566868193E2,-5.955931731E-3,5.803215317E-3,3.390299529E-2
3.571909620E2,-1.527161989E-2,4.276053514E-3,2.443459071E-2
3.576951047E2,-1.481347065E-2,8.552107029E-3,3.894263133E-2
3.581992473E2,-2.519817278E-2,9.468403645E-3,3.084867075E-2
3.587033897E2,-2.825249545E-2,1.252272818E-2,4.001164436E-2
3.592075320E2,-3.817904741E-2,1.588248461E-2,3.390299529E-2
3.597116742E2,-4.581485689E-2,1.710421406E-2,2.489273995E-2
3.602158163E2,-4.703658819E-2,1.817322709E-2,3.069595434E-2
3.607199583E2,-5.543597788E-2,1.679878123E-2,1.237001177E-2
3.612241004E2,-5.283980444E-2,1.603520103E-2,1.542433538E-2
3.617282426E2,-5.268708616E-2,5.039634649E-3,-1.069013379E-3
3.622323850E2,-4.184423760E-2,9.162971983E-4,4.123337101E-3
3.627365276E2,-3.924806044E-2,2.596175298E-3,-5.192350596E-3
3.632406705E2,-3.558287397E-2,4.734201822E-3,-1.511890348E-2
3.637448136E2,-2.382372692E-2,-9.162971983E-4,-1.099556591E-2
3.642489568E2,-2.015853859E-2,-4.581485991E-4,-1.908952370E-2
3.647531003E2,-3.970621154E-3,-4.581485875E-3,-6.108647678E-3
3.652572440E2,-9.621120058E-3,9.315688163E-3,-1.252272818E-2
3.657613879E2,3.817904973E-3,-2.138026757E-3,8.704823442E-3
3.662655318E2,-2.596175298E-3,-1.130099874E-2,-6.261364091E-3
3.667696757E2,1.985310577E-3,-1.007926930E-2,6.108647678E-3
3.672738196E2,-2.596175298E-3,-1.359174121E-2,-4.276053514E-3
3.677779634E2,1.985310577E-3,-1.145371422E-2,4.581485875E-3
3.682821072E2,-3.054323897E-4,-1.175914705E-2,1.527161920E-3
3.687862511E2,-1.374445739E-3,-9.315688163E-3,4.581485991E-4
3.692903949E2,1.069013379E-3,-1.130099874E-2,3.207040019E-3
3.697945386E2,-1.527161920E-3,-1.389717404E-2,-3.207040019E-3
3.702986822E2,2.443459118E-3,-7.330377586E-3,6.719512399E-3
3.708028259E2,-1.374445739E-3,-3.359756200E-3,-1.221729559E-3
3.713069696E2,1.221729559E-3,-4.581485991E-4,6.108647794E-4
3.718111134E2,-0.000000000E0,-1.069013379E-3,-6.108647794E-4
3.723152572E2,1.832594397E-3,1.221729559E-3,4.428769462E-3
3.728194012E2,-2.748891478E-3,-1.679878100E-3,-5.803215317E-3
3.733235455E2,4.581485875E-3,1.527161949E-4,3.054323839E-3
3.738276898E2,-2.748891478E-3,-1.069013379E-3,-3.054323897E-4
3.743318343E2,-9.162971983E-4,-1.679878100E-3,-6.108647794E-4
3.748359788E2,4.581485991E-4,4.581485991E-4,1.221729559E-3
3.753401233E2,-4.581485991E-4,-7.635809598E-4,-2.443459118E-3
3.758442679E2,-3.207040019E-3,1.527161989E-2,3.970621154E-3
3.763484125E2,-1.679878100E-3,-1.985310577E-3,-3.970621154E-3
3.768525573E2,2.138026757E-3,-5.039634649E-3,1.985310577E-3
3.773567019E2,-7.635809598E-4,-2.748891478E-3,-2.138026757E-3
3.778608466E2,-3.054323897E-4,-7.635809598E-4,-9.162971983E-4
3.783649914E2,1.985310577E-3,-2.443459118E-3,6.108647794E-4
3.788691371E2,1.069013379E-3,-3.054323839E-3,-5.497782957E-3
3.793732833E2,8.552107029E-3,1.374445739E-3,-5.192350596E-3
3.798774304E2,1.023198478E-2,5.039634649E-3,-8.857538924E-3
3.803815768E2,1.221729536E-2,5.650499370E-3,-1.557705179E-2
3.808857233E2,1.802051067E-2,4.886918236E-3,-1.298087649E-2
3.813898699E2,1.985310577E-2,4.276053514E-3,-1.282816008E-2
3.818940167E2,2.000582218E-2,3.359756200E-3,-1.404988952E-2
3.823981635E2,2.229656465E-2,2.443459118E-3,-1.099556591E-2
3.829023103E2,2.244928107E-2,4.428769462E-3,-1.023198478E-2
3.834064569E2,1.924224012E-2,2.748891478E-3,-1.328630932E-2
3.839106035E2,1.802051067E-2,-1.679878100E-3,-5.345067009E-3
3.844147500E2,1.160643063E-2,-3.817904973E-3,-6.261364091E-3
3.849188963E2,1.053741761E-2,-1.527161920E-3,6.108647794E-4
3.854230426E2,4.886918236E-3,-1.374445739E-3,1.069013379E-3
3.859271891E2,6.108647794E-4,-1.221729559E-3,3.054323839E-3
3.864313357E2,-1.374445739E-3,2.290742937E-3,9.468403645E-3
3.869354827E2,-9.162971750E-3,1.527161920E-3,5.192350596E-3
3.874396298E2,-8.552107029E-3,-1.527161920E-3,1.359174121E-2
3.879437769E2,-1.359174121E-2,-1.221729559E-3,1.237001177E-2
3.884479241E2,-1.771507785E-2,-2.290742937E-3,9.926552884E-3
3.889520713E2,-1.511890348E-2,6.108647794E-4,1.420260593E-2
3.894562186E2,-1.496618707E-2,-2.290742937E-3,1.374445762E-2
3.899603657E2,-1.832594350E-2,3.817904973E-3,9.315688163E-3
3.904645129E2,-1.450803876E-2,-1.679878100E-3,1.298087649E-2
3.909686599E2,-1.756236330E-2,1.985310577E-3,8.246674202E-3
3.914728068E2,-1.557705179E-2,2.290742937E-3,1.359174121E-2
3.919769536E2,-1.557705179E-2,-3.054323897E-4,9.621120058E-3
3.924811003E2,-1.328630932E-2,5.345067009E-3,1.435532235E-2
3.929852470E2,-1.588248461E-2,-4.581485991E-4,8.857538924E-3
3.934893934E2,-1.389717404E-2,4.276053514E-3,1.038470119E-2
3.939935400E2,-1.588248461E-2,2.748891478E-3,5.192350596E-3
3.944976863E2,-1.435532235E-2,6.414080039E-3,1.038470119E-2
3.950018325E2,-1.404988952E-2,3.970621154E-3,7.330377586E-3
3.955059786E2,-1.145371422E-2,2.748891478E-3,5.955931731E-3
3.960101246E2,-1.160643063E-2,4.428769462E-3,5.192350596E-3
3.965142704E2,-1.114828233E-2,1.527161949E-4,-1.221729559E-3
3.970184163E2,-6.414080039E-3,2.443459118E-3,5.039634649E-3
3.975225620E2,-7.024944760E-3,-2.138026757E-3,-1.985310577E-3
3.980267077E2,-4.886918236E-3,4.734201822E-3,2.596175298E-3
3.985308532E2,-4.428769462E-3,2.748891478E-3,-1.832594397E-3
3.990349986E2,-2.748891478E-3,-2.138026757E-3,-1.374445739E-3
3.995391438E2,-2.138026757E-3,9.162971983E-4,-2.901607659E-3
4.000432889E2,1.832594397E-3,-2.748891478E-3,1.679878100E-3
4.005474341E2,-1.527161949E-4,-1.527161949E-4,-1.527161949E-4
4.010515792E2,7.635809598E-4,4.581485991E-4,1.527161920E-3
4.015557244E2,-6.108647794E-4,-1.527161949E-4,-1.221729559E-3
4.020598697E2,1.527161949E-4,-9.162971983E-4,1.527161949E-4
4.025640151E2,-4.581485991E-4,1.527161949E-4,-1.069013379E-3
4.030681605E2,-6.108647794E-4,1.527161949E-4,-6.108647794E-4
4.035723063E2,1.069013379E-3,-6.108647794E-4,1.221729559E-3
4.040764522E2,-1.679878100E-3,6.566796452E-3,0.000000000E0
4.045805982E2,-2.138026757E-3,5.192350596E-3,-1.221729559E-3
4.050847442E2,-1.069013379E-3,1.679878100E-3,-4.581485991E-4
4.055888902E2,-9.162971983E-4,1.527161920E-3,-6.108647794E-4
4.060930362E2,4.581485991E-4,1.374445739E-3,1.832594397E-3
4.065971821E2,-6.108647794E-4,3.512472380E-3,1.221729559E-3
4.071013281E2,-1.832594397E-3,2.596175298E-3,-1.527161949E-4
4.076054743E2,-2.138026757E-3,1.985310577E-3,-6.108647794E-4
4.081096207E2,-1.527161920E-3,1.527161920E-3,4.581485991E-4
4.086137671E2,-1.527161920E-3,1.679878100E-3,3.054323897E-4
4.091179139E2,-1.679878100E-3,1.527161920E-3,7.635809598E-4
4.096220606E2,-7.635809598E-4,1.985310577E-3,1.221729559E-3
4.101262076E2,-1.679878100E-3,6.108647794E-4,1.527161949E-4
4.106303546E2,-1.985310577E-3,9.162971983E-4,1.527161949E-4
4.111345016E2,-1.679878100E-3,7.635809598E-4,1.069013379E-3
4.116386487E2,6.108647794E-4,0.000000000E0,1.832594397E-3
4.121427958E2,-3.207040019E-3,3.054323839E-3,-6.108647794E-4
4.126469430E2,-1.069013379E-3,1.527161949E-4,6.108647794E-4
4.131510901E2,-0.000000000E0,-6.108647794E-4,1.679878100E-3
4.136552372E2,-7.635809598E-4,1.679878100E-3,1.221729559E-3
4.141593843E2,-1.527161920E-3,-3.054323897E-4,-1.069013379E-3
4.146635314E2,-1.374445739E-3,-4.581485991E-4,-4.581485991E-4
4.151676783E2,-9.162971983E-4,1.527161949E-4,0.000000000E0
4.156718251E2,-1.374445739E-3,7.635809598E-4,-3.054323897E-4
4.161759719E2,-1.069013379E-3,-0.000000000E0,4.581485991E-4
4.166801184E2,-2.748891478E-3,4.428769462E-3,-1.069013379E-3
4.171842650E2,-6.261364091E-3,4.886918236E-3,2.901607659E-3
4.176884114E2,-6.459894776E-2,9.162971377E-2,-1.985310577E-3
4.181925578E2,5.100720748E-2,-4.642572254E-2,-3.512472380E-3
4.186967040E2,2.565632015E-2,-2.565632015E-2,3.665188793E-3
4.192008502E2,3.054323897E-4,1.527161920E-3,-6.108647794E-4
4.197049962E2,-2.138026757E-3,3.970621154E-3,1.527161949E-4
4.202091421E2,-3.054323897E-4,-3.054323897E-4,-1.527161949E-4
4.207132880E2,2.138026757E-3,-1.649334840E-2,4.581485991E-4
4.212174339E2,-1.588248461E-2,3.863719851E-2,-1.053741761E-2
4.217215798E2,5.039634649E-3,-3.008509055E-2,9.162971750E-3
4.222257255E2,2.443459118E-3,-9.010255337E-3,3.054323839E-3
4.227298713E2,9.162971983E-4,-9.162971983E-4,6.108647794E-4
4.232340169E2,0.000000000E0,-0.000000000E0,-3.054323897E-4
4.237381626E2,-7.635809598E-4,-1.069013379E-3,-2.138026757E-3
4.242423082E2,1.527161949E-4,-1.221729559E-3,-9.162971983E-4
4.247464540E2,-1.527161949E-4,-6.108647794E-4,-4.581485991E-4
4.252505997E2,0.000000000E0,-3.054323897E-4,0.000000000E0
4.257547454E2,6.108647794E-4,7.635809598E-4,1.832594397E-3
4.262588911E2,-4.581485991E-4,6.108647794E-4,-6.108647794E-4
4.267630367E2,-6.108647794E-4,-7.635809598E-4,-1.527161920E-3
4.272671823E2,1.527161949E-4,-1.069013379E-3,-3.054323897E-4
4.277713279E2,-3.054323897E-4,1.527161949E-4,-0.000000000E0
4.282754734E2,4.581485991E-4,1.221729559E-3,1.374445739E-3
4.287796190E2,-1.527161949E-4,-0.000000000E0,-3.054323897E-4
4.292837645E2,-6.108647794E-4,-7.635809598E-4,-1.374445739E-3
4.297879100E2,-4.581485991E-4,-0.000000000E0,-4.581485991E-4
4.302920554E2,-3.054323897E-4,-0.000000000E0,-1.527161949E-4
4.307962007E2,7.635809598E-4,6.108647794E-4,1.374445739E-3
4.313003461E2,-3.054323897E-4,1.374445739E-3,6.108647794E-4
4.318044915E2,-4.581485991E-4,-1.985310577E-3,-2.290742937E-3
4.323086369E2,3.054323897E-4,-6.108647794E-4,0.000000000E0
4.328127823E2,-1.527161949E-4,9.162971983E-4,-1.527161949E-4
4.333169276E2,-4.581485991E-4,1.527161949E-4,-3.054323897E-4
4.338210730E2,6.108647794E-4,7.635809598E-4,1.679878100E-3
4.343252184E2,-6.108647794E-4,-1.527161949E-4,-1.069013379E-3
4.348293638E2,-6.108647794E-4,-1.527161949E-4,-1.069013379E-3
4.353335091E2,1.527161949E-4,-1.527161949E-4,-1.527161949E-4
4.358376544E2,-3.054323897E-4,1.527161949E-4,-1.527161949E-4
4.363417996E2,-6.108647794E-4,-1.527161949E-4,-7.635809598E-4
4.368459448E2,-3.054323897E-4,-4.581485991E-4,-4.581485991E-4
4.373500900E2,-1.527161949E-4,4.581485991E-4,1.527161949E-4
4.378542351E2,7.635809598E-4,7.635809598E-4,1.832594397E-3
4.383583801E2,-3.054323897E-4,1.527161949E-4,-4.581485991E-4
4.388625251E2,-9.162971983E-4,-7.635809598E-4,-1.832594397E-3
4.393666700E2,-0.000000000E0,-4.581485991E-4,-3.054323897E-4
4.398708145E2,-3.054323897E-4,1.527161949E-4,-3.054323897E-4
4.403749592E2,-3.054323897E-4,3.054323897E-4,-4.581485991E-4
4.408791037E2,-3.054323897E-4,-3.054323897E-4,-0.000000000E0
4.413832484E2,6.108647794E-4,1.069013379E-3,1.221729559E-3
4.418873930E2,-5.955931731E-3,1.023198478E-2,-2.443459118E-3
4.423915377E2,-1.542433538E-2,2.428187430E-2,-3.054323839E-3
4.428956824E2,-2.244928107E-2,2.947422490E-2,-5.955931731E-3
4.433998273E2,-6.566796452E-3,6.261364091E-3,-1.527161920E-3
4.439039722E2,-4.581485875E-3,3.359756200E-3,-7.635809598E-4
4.444081173E2,-4.123337101E-3,1.985310577E-3,9.162971983E-4
4.449122624E2,-4.581485875E-3,1.679878100E-3,7.635809598E-4
4.454164077E2,-3.054323839E-3,1.221729559E-3,1.221729559E-3
4.459205531E2,-3.054323839E-3,1.832594397E-3,2.596175298E-3
4.464246985E2,-4.428769462E-3,1.527161920E-3,1.221729559E-3
4.469288439E2,-6.108647678E-3,1.527161920E-3,3.054323897E-4
4.474329893E2,-5.650499370E-3,2.138026757E-3,7.635809598E-4
4.479371346E2,-5.803215317E-3,2.138026757E-3,1.374445739E-3
4.484412798E2,-5.192350596E-3,1.679878100E-3,2.748891478E-3
4.489454250E2,-5.497782957E-3,1.527161920E-3,1.221729559E-3
4.494495701E2,-9.926552884E-3,7.483093534E-3,9.162971983E-4
4.499537153E2,-4.123337101E-3,-9.162971983E-4,4.886918236E-3
4.504578604E2,-5.803215317E-3,-7.635809598E-4,2.138026757E-3
4.509620054E2,-4.123337101E-3,-2.138026757E-3,5.039634649E-3
4.514661501E2,-4.886918236E-3,-3.817904973E-3,4.581485991E-4
4.519702949E2,-2.138026757E-3,-1.221729559E-3,5.192350596E-3
4.524744397E2,-3.665188793E-3,-2.596175298E-3,-6.108647678E-3
4.529785845E2,3.207040019E-3,-1.221729559E-3,3.970621154E-3
4.534827292E2,-1.527161920E-3,-1.374445739E-3,-0.000000000E0
4.539868738E2,5.803215317E-3,-3.359756200E-3,4.886918236E-3
4.544910185E2,-7.330377586E-3,4.581485991E-4,-1.007926930E-2
4.549951631E2,1.221729559E-3,-1.985310577E-3,1.099556591E-2
4.554993076E2,-1.374445762E-2,-7.483093534E-3,-3.970621154E-3
4.560034521E2,-5.497782957E-3,-7.635809947E-3,1.389717404E-2
4.565075966E2,-1.053741761E-2,-9.468403645E-3,-6.108647794E-4
4.570117409E2,-1.527161949E-4,-9.162971983E-4,1.282816008E-2
4.575158854E2,2.596175298E-3,-3.512472380E-3,-3.207040019E-3
4.580200297E2,-1.069013379E-3,1.069013379E-3,-3.665188793E-3
4.585241740E2,4.581485991E-4,-6.108647794E-4,6.261364091E-3
4.590283182E2,-1.527161949E-4,-2.748891478E-3,-4.123337101E-3
4.595324624E2,-0.000000000E0,4.886918236E-3,3.054323839E-3
4.600366068E2,-1.527161920E-3,-6.414080039E-3,-1.679878100E-3
4.605407520E2,3.817904973E-3,-1.985310577E-2,2.443459118E-3
4.610448981E2,1.817322709E-2,-3.970621154E-2,1.252272818E-2
4.615490447E2,6.566796452E-3,-4.749473557E-2,3.054323897E-4
4.620531914E2,3.512472380E-3,2.138026757E-3,5.345067009E-3
4.625573382E2,-6.108647794E-4,3.054323897E-4,-4.886918236E-3
4.630614851E2,1.267544460E-2,1.527161920E-3,-3.054323839E-3
4.635656321E2,1.328630932E-2,-1.069013379E-3,-9.010255337E-3
4.640697791E2,1.252272818E-2,-0.000000000E0,-8.857538924E-3
4.645739260E2,1.695149764E-2,-3.054323897E-4,-7.483093534E-3
4.650780730E2,1.328630932E-2,4.276053514E-3,-8.857538924E-3
4.655822199E2,6.414080039E-3,4.886918236E-3,-7.483093534E-3
4.660863668E2,4.886918236E-3,3.665188793E-3,-8.093958721E-3
4.665905135E2,6.108647794E-4,7.024944760E-3,-2.138026757E-3
4.670946602E2,1.374445739E-3,7.330377586E-3,-1.527161949E-4
4.675988069E2,7.635809598E-4,6.414080039E-3,-3.054323839E-3
4.681029536E2,1.679878100E-3,8.246674202E-3,2.596175298E-3
4.686071002E2,-1.374445739E-3,6.108647678E-3,-5.803215317E-3
4.691112467E2,-1.221729559E-3,5.803215317E-3,1.069013379E-3
4.696153931E2,-3.054323897E-4,6.261364091E-3,-2.748891478E-3
4.701195394E2,2.443459118E-3,-1.069013379E-3,2.901607659E-3
4.706236856E2,4.428769462E-3,-6.566796452E-3,3.359756200E-3
4.711278319E2,3.512472380E-3,-9.315688163E-3,-1.527161949E-4
4.716319782E2,-1.374445739E-3,4.581485991E-4,-1.679878100E-3
4.721361244E2,3.054323897E-4,-1.221729559E-3,9.162971983E-4
4.726402706E2,-9.162971983E-4,-1.527161949E-4,-2.748891478E-3
4.731444167E2,3.359756200E-3,1.985310577E-3,4.886918236E-3
4.736485626E2,7.177661173E-3,-1.007926930E-2,-3.054323839E-3
4.741527146E2,-1.527161949E-4,-6.566796452E-3,-8.246674202E-3
4.746568545E2,3.817904973E-3,-8.399390616E-3,1.221729559E-3
4.751610004E2,1.221729559E-3,-4.581485991E-4,-2.290742937E-3
4.756651463E2,-0.000000000E0,2.596175298E-3,3.054323839E-3
4.761692922E2,-1.527161920E-3,9.162971983E-4,3.054323897E-4
4.766734382E2,1.221729559E-3,-2.748891478E-3,-1.527161949E-4
4.771775840E2,-2.290742937E-3,1.527161920E-3,-2.290742937E-3
4.776817298E2,-2.138026757E-3,3.817904973E-3,-2.138026757E-3
4.781858757E2,-3.054323897E-4,3.817904973E-3,1.985310577E-3
4.786900216E2,-4.886918142E-2,3.222311661E-2,2.443459118E-3
4.791941676E2,-4.581485991E-4,1.053741761E-2,-9.162971983E-4
4.796983135E2,3.207040206E-2,4.123337194E-2,9.468403645E-3
4.802024593E2,2.229656465E-2,5.879573524E-2,1.970038936E-2
4.807066050E2,2.657261863E-2,-5.742128938E-2,-6.566796452E-3
4.812107508E2,4.734201822E-3,-4.581485991E-4,-3.054323839E-3
4.817148966E2,-6.261364091E-3,4.123337101E-3,-1.679878100E-3
4.822190425E2,-1.221729559E-3,-1.679878100E-3,-3.665188793E-3
4.827231885E2,3.817904973E-3,1.374445739E-3,2.138026757E-3
4.832273345E2,3.970621154E-3,-4.581485875E-3,-9.926552884E-3
4.837314807E2,7.635809947E-3,-2.901607659E-3,-2.596175298E-3
4.842356269E2,4.734201822E-3,-1.527161920E-3,-7.024944760E-3
4.847397733E2,6.566796452E-3,-3.207040019E-3,-3.359756200E-3
4.852439198E2,6.414080039E-3,-1.527161920E-3,-1.985310577E-3
4.857480664E2,5.192350596E-3,-6.108647794E-4,-5.345067009E-3
4.862522133E2,6.872228812E-3,-1.527161920E-3,-1.069013379E-3
4.867563604E2,5.497782957E-3,-3.665188793E-3,-7.788525894E-3
4.872605076E2,6.261364091E-3,-1.374445739E-3,-1.374445739E-3
4.877646547E2,5.803215317E-3,-4.123337101E-3,-6.566796452E-3
4.882688018E2,5.039634649E-3,1.832594397E-3,-1.832594397E-3
4.887729489E2,4.581485875E-3,-5.497782957E-3,-4.886918236E-3
4.892770961E2,6.261364091E-3,4.581485991E-4,-1.527161920E-3
4.897812438E2,6.261364091E-3,-6.566796452E-3,-7.788525894E-3
4.902853921E2,6.566796452E-3,-9.162971983E-4,-1.832594397E-3
4.907895409E2,1.985310577E-3,3.512472380E-3,-3.207040019E-3
4.912936901E2,-3.817904973E-3,8.093958721E-3,-6.872228812E-3
4.917978398E2,2.748891478E-3,7.635809598E-4,1.832594397E-3
4.923019896E2,-4.734201822E-3,1.374445739E-3,-1.435532235E-2
4.928061398E2,1.221729559E-3,1.023198478E-2,-1.145371422E-2
4.933102904E2,3.359756200E-3,3.054323897E-4,-3.695731983E-2
4.938144412E2,1.832594350E-2,-3.359756200E-3,-2.672533318E-2
4.943185927E2,2.199113183E-2,-5.497782957E-3,-3.894263133E-2
4.948227449E2,3.359756246E-2,-5.039634649E-3,-3.649916872E-2
4.953268979E2,4.413498193E-2,-1.084284950E-2,-4.520399496E-2
4.958310513E2,5.375609919E-2,-9.468403645E-3,-4.474584386E-2
4.963352050E2,6.108647957E-2,-7.330377586E-3,-3.711003438E-2
4.968393591E2,6.322450191E-2,-7.941242307E-3,-3.665188700E-2
4.973435132E2,6.643154472E-2,-9.926552884E-3,-3.145953640E-2
4.978476676E2,6.368265301E-2,-1.404988952E-2,-3.543015569E-2
4.983518219E2,6.658425927E-2,-1.603520103E-2,-2.871064469E-2
4.988559762E2,6.566796452E-2,-1.679878123E-2,-3.298669681E-2
4.993601305E2,6.398808211E-2,-1.298087649E-2,-3.222311661E-2
4.998642847E2,6.704241037E-2,-1.466075517E-2,-2.977965772E-2
5.003684388E2,6.902772188E-2,-1.374445762E-2,-1.756236330E-2
5.008725927E2,5.849030241E-2,-1.221729536E-2,-1.466075517E-2
5.013767466E2,5.864302069E-2,-1.481347065E-2,-1.985310577E-3
5.018809007E2,4.337139800E-2,-8.399390616E-3,-9.010255337E-3
5.023850548E2,3.680460155E-2,-8.552107029E-3,8.552107029E-3
5.028892089E2,2.947422490E-2,-1.069013402E-2,2.443459118E-3
5.033933630E2,2.565632015E-2,-2.290742937E-3,1.756236330E-2
5.038975170E2,1.175914705E-2,-2.596175298E-3,5.955931731E-3
5.044016710E2,9.468403645E-3,-5.039634649E-3,2.199113183E-2
5.049058249E2,-5.497782957E-3,6.414080039E-3,2.000582218E-2
5.054099787E2,-8.093958721E-3,2.443459118E-3,2.672533318E-2
5.059141325E2,-1.832594350E-2,9.621120058E-3,2.901607752E-2
5.064182861E2,-2.397644334E-2,9.468403645E-3,3.558287397E-2
5.069224397E2,-3.466657549E-2,1.527161989E-2,3.878991306E-2
5.074265932E2,-4.199695215E-2,1.832594350E-2,4.260781780E-2
5.079307466E2,-4.657844082E-2,1.404988952E-2,4.260781780E-2
5.084348999E2,-5.314523727E-2,1.252272818E-2,4.306596518E-2
5.089390530E2,-5.910116807E-2,1.908952370E-2,3.619373962E-2
5.094432060E2,-6.093376130E-2,2.565632015E-2,3.115410358E-2
5.099473589E2,-5.757400393E-2,2.290742844E-2,3.375028074E-2
5.104515116E2,-5.955931544E-2,2.550360374E-2,2.947422490E-2
5.109556643E2,-5.222893879E-2,1.740964688E-2,3.787361458E-2
5.114598169E2,-5.849030241E-2,2.229656465E-2,2.504545636E-2
5.119639694E2,-5.436696485E-2,2.031125315E-2,2.962694131E-2
5.124681218E2,-5.772672221E-2,1.664606482E-2,1.954767294E-2
5.129722741E2,-5.543597788E-2,1.282816008E-2,1.649334840E-2
5.134764264E2,-4.993819445E-2,9.162971750E-3,1.099556591E-2
5.139805786E2,-4.474584386E-2,3.970621154E-3,6.261364091E-3
5.144847307E2,-3.558287397E-2,1.374445739E-3,8.093958721E-3
5.149888826E2,-3.329212964E-2,-2.443459118E-3,-1.069013379E-3
5.154930344E2,-2.855792828E-2,1.527161920E-3,-2.138026757E-3
5.159971862E2,-2.046396956E-2,-4.123337101E-3,3.054323897E-4
5.165013377E2,-1.802051067E-2,-2.901607659E-3,-4.734201822E-3
5.170054894E2,-1.206457894E-2,-8.093958721E-3,-3.512472380E-3
5.175096411E2,-7.788525894E-3,-5.803215317E-3,-4.734201822E-3
5.180137927E2,-3.817904973E-3,-9.010255337E-3,-3.207040019E-3
5.185179442E2,-4.581485875E-3,-8.704823442E-3,-7.635809947E-3
5.190220955E2,3.359756200E-3,-6.872228812E-3,3.054323839E-3
5.195262467E2,-1.069013379E-3,-3.817904973E-3,-3.665188793E-3
5.200303978E2,3.054323897E-4,1.527161920E-3,3.817904973E-3
5.205345488E2,-1.069013379E-3,-1.985310577E-3,-2.443459118E-3
5.210386999E2,1.527161949E-4,0.000000000E0,0.000000000E0
5.215428509E2,6.108647794E-4,-1.221729559E-3,0.000000000E0
5.220470020E2,-1.374445739E-3,0.000000000E0,-2.290742937E-3
5.225511531E2,7.635809598E-4,-1.527161949E-4,9.162971983E-4
5.230553042E2,-1.527161949E-4,1.221729559E-3,-1.527161949E-4
5.235594555E2,7.635809598E-4,1.374445739E-3,7.635809598E-4
5.240636069E2,-6.108647794E-4,-6.108647794E-4,-1.679878100E-3
5.245677584E2,-9.162971983E-4,9.162971983E-4,-1.679878100E-3
5.250719099E2,-1.527161949E-4,0.000000000E0,-3.054323897E-4
5.255760614E2,-3.054323897E-4,1.069013379E-3,-6.108647794E-4
5.260802130E2,1.069013379E-3,-1.985310577E-3,-1.221729559E-3
5.265843644E2,1.374445739E-3,-3.054323897E-4,-3.054323897E-4
5.270885159E2,1.832594397E-3,-1.221729559E-3,-9.162971983E-4
5.275926673E2,1.527161920E-3,-6.108647794E-4,-1.221729559E-3
5.280968187E2,1.221729559E-3,-1.221729559E-3,-1.985310577E-3
5.286009699E2,1.527161920E-3,-7.635809598E-4,-1.069013379E-3
5.291051210E2,1.374445739E-3,-7.635809598E-4,-6.108647794E-4
5.296092722E2,6.108647794E-4,-3.054323897E-4,-1.527161920E-3
5.301134233E2,1.221729559E-3,-7.635809598E-4,-1.527161949E-4
5.306175743E2,2.138026757E-3,-2.596175298E-3,-3.054323897E-4
5.311217254E2,6.108647794E-4,1.527161920E-3,1.527161949E-4
5.316258764E2,1.527161920E-3,-7.635809598E-4,0.000000000E0
5.321300276E2,-1.527161949E-4,-1.527161949E-4,-1.069013379E-3
5.326341788E2,-1.832594397E-3,2.748891478E-3,-1.527161920E-3
5.331383303E2,-1.145371422E-2,2.901607752E-2,-1.221729559E-3
5.336424819E2,-7.635809598E-4,-6.566796452E-3,1.252272818E-2
5.341466337E2,-7.788525894E-3,1.237001177E-2,-5.345067009E-3
5.346507857E2,-1.527161949E-4,4.581485991E-4,-1.527161949E-4
5.351549377E2,4.581485991E-4,7.635809598E-4,1.069013379E-3
5.356590898E2,-3.054323897E-4,0.000000000E0,-6.108647794E-4
5.361632419E2,-9.162971983E-4,1.527161949E-4,-1.374445739E-3
5.366673942E2,-0.000000000E0,-7.635809598E-4,-3.054323897E-4
5.371715464E2,-4.581485991E-4,4.581485991E-4,-3.054323897E-4
5.376756987E2,-0.000000000E0,-4.581485991E-4,-6.108647794E-4
5.381798509E2,4.581485991E-4,1.069013379E-3,9.162971983E-4
5.386840029E2,3.054323897E-4,1.527161949E-4,0.000000000E0
5.391881549E2,-9.162971983E-4,-4.581485991E-4,-1.374445739E-3
5.396923066E2,-0.000000000E0,-1.527161949E-4,-3.054323897E-4
5.401964585E2,-1.527161949E-4,-3.054323897E-4,-0.000000000E0
5.407006101E2,3.054323897E-4,1.527161949E-4,6.108647794E-4
5.412047617E2,7.635809598E-4,1.527161949E-4,1.069013379E-3
5.417089132E2,3.054323897E-4,3.054323897E-4,4.581485991E-4
5.422130646E2,-1.069013379E-3,-4.581485991E-4,-1.832594397E-3
5.427172160E2,-3.054323897E-4,-3.054323897E-4,-3.054323897E-4
5.432213675E2,-1.527161949E-4,3.054323897E-4,-1.527161949E-4
5.437255196E2,3.054323897E-4,1.527161949E-4,4.581485991E-4
5.442296724E2,9.162971983E-4,7.635809598E-4,1.374445739E-3
5.447338257E2,-1.527161949E-4,-9.162971983E-4,-1.527161949E-4
5.452379793E2,-4.581485991E-4,-3.054323897E-4,-1.069013379E-3
5.457421332E2,-3.054323897E-4,-1.527161949E-4,-3.054323897E-4
5.462462873E2,-4.581485991E-4,-3.665188793E-3,-1.069013379E-3
5.467504415E2,3.512472380E-3,-1.069013379E-3,-6.108647794E-4
5.472545957E2,1.527161949E-4,1.221729559E-3,1.069013379E-3
5.477587499E2,4.581485991E-4,9.162971983E-4,6.108647794E-4
5.482629040E2,-9.162971983E-4,-3.054323897E-4,-1.069013379E-3
5.487670578E2,-4.581485991E-4,-1.527161949E-4,-1.069013379E-3
5.492712115E2,-0.000000000E0,-0.000000000E0,-1.527161949E-4
5.497753650E2,-1.069013379E-3,2.290742937E-3,-6.108647794E-4
5.502795184E2,4.734201822E-3,6.872228812E-3,3.512472380E-3
5.507836716E2,1.221729536E-2,9.621120058E-3,1.588248461E-2
5.512878248E2,1.343902480E-2,1.450803876E-2,2.458730713E-2
5.517919778E2,1.145371422E-2,1.939495653E-2,1.572976820E-2
5.522961307E2,5.894844979E-2,4.230238497E-2,3.375028074E-2
5.528002835E2,-4.382954910E-2,-4.123337194E-2,7.330377586E-3
5.533044362E2,2.825249545E-2,-5.253437161E-2,-2.168569900E-2
5.538085888E2,1.618791744E-2,4.581485991E-4,-1.038470119E-2
5.543127412E2,-6.872228812E-3,5.192350596E-3,-3.054323897E-4
5.548168935E2,-1.069013379E-3,-1.069013379E-3,-2.290742937E-3
5.553210456E2,-2.138026757E-3,4.581485991E-4,-1.069013379E-3
5.558251976E2,-2.596175298E-3,9.162971983E-4,-6.108647794E-4
5.563293493E2,-5.039634649E-3,3.359756200E-3,1.527161949E-4
5.568335010E2,-7.635809598E-4,1.221729559E-3,7.635809598E-4
5.573376526E2,-1.221729559E-3,-6.108647794E-4,-1.069013379E-3
5.578418043E2,-2.443459118E-3,-1.527161949E-4,-1.374445739E-3
5.583459559E2,-2.596175298E-3,4.581485991E-4,-6.108647794E-4
5.588501075E2,-1.985310577E-3,-0.000000000E0,-6.108647794E-4
5.593542589E2,-7.635809598E-4,4.581485991E-4,9.162971983E-4
5.598584098E2,7.635809598E-4,-4.581485991E-4,1.527161949E-4
5.603625612E2,-7.635809598E-4,-1.221729559E-3,-1.832594397E-3
5.608667127E2,0.000000000E0,-1.374445739E-3,-9.162971983E-4
5.613708640E2,-0.000000000E0,-9.162971983E-4,-4.581485991E-4
5.618750153E2,-6.108647794E-4,-1.527161949E-4,-6.108647794E-4
5.623791665E2,3.054323897E-4,-1.527161949E-4,3.054323897E-4
5.628833176E2,0.000000000E0,6.108647794E-4,6.108647794E-4
5.633874689E2,-1.527161949E-4,-6.108647794E-4,-1.374445739E-3
5.638916203E2,-0.000000000E0,-1.221729559E-3,-1.221729559E-3
5.643957718E2,-7.635809598E-4,-1.527161949E-4,-4.581485991E-4
5.648999233E2,1.527161949E-4,-7.635809598E-4,-1.527161949E-4
5.654040749E2,-3.054323897E-4,4.581485991E-4,-0.000000000E0
5.659082265E2,3.054323897E-4,4.581485991E-4,7.635809598E-4
5.664123780E2,-3.054323897E-4,-1.527161949E-4,-9.162971983E-4
5.669165294E2,-4.581485991E-4,-6.108647794E-4,-1.374445739E-3
5.674206808E2,-1.527161949E-4,-7.635809598E-4,-3.054323897E-4
5.679248322E2,-1.527161949E-4,-4.581485991E-4,-4.581485991E-4
5.684289836E2,1.527161949E-4,-7.635809598E-4,-0.000000000E0
5.689331347E2,-5.803215317E-3,3.512472380E-3,-3.054323839E-3
5.694372858E2,-8.093958721E-3,-1.832594397E-3,-7.483093534E-3
5.699414368E2,-2.641990222E-2,2.061668597E-2,-4.581485875E-3
5.704455875E2,-9.621120058E-3,8.093958721E-3,-2.138026757E-3
5.709497381E2,-4.276053514E-3,2.901607659E-3,-3.054323897E-4
5.714538887E2,-9.621120058E-3,8.246674202E-3,-4.581485991E-4
5.719580395E2,-3.817904973E-3,2.901607659E-3,1.527161949E-4
5.724621903E2,1.374445739E-3,-0.000000000E0,-1.069013379E-3
5.729663410E2,2.596175298E-3,-1.221729559E-3,-1.374445739E-3
5.734704917E2,2.748891478E-3,0.000000000E0,-1.374445739E-3
5.739746422E2,9.162971983E-4,1.527161920E-3,-1.527161920E-3
5.744787927E2,2.596175298E-3,-7.635809598E-4,-2.596175298E-3
5.749829432E2,2.596175298E-3,-7.635809598E-4,-4.428769462E-3
5.754870936E2,6.719512399E-3,-2.290742937E-3,-2.138026757E-3
5.759912440E2,6.719512399E-3,-1.679878100E-3,-5.497782957E-3
5.764953943E2,5.650499370E-3,-1.527161949E-4,-3.054323839E-3
5.769995445E2,2.901607659E-3,-6.108647794E-4,-5.039634649E-3
5.775036946E2,1.099556591E-2,-3.207040019E-3,-3.359756200E-3
5.780078446E2,1.084284950E-2,-4.428769462E-3,-6.719512399E-3
5.785119945E2,1.175914705E-2,-5.039634649E-3,-4.581485875E-3
5.790161445E2,1.175914705E-2,-9.010255337E-3,-6.261364091E-3
5.795202952E2,1.343902480E-2,-9.773836471E-3,-3.665188793E-3
5.800244465E2,9.621120058E-3,-1.160643063E-2,-7.788525894E-3
5.805285986E2,1.435532235E-2,-1.099556591E-2,-3.817904973E-3
5.810327518E2,1.481347065E-2,-1.359174121E-2,-3.207040019E-3
5.815369062E2,1.130099874E-2,-1.160643063E-2,-8.857538924E-3
5.820410624E2,1.374445762E-2,-1.298087649E-2,-4.276053514E-3
5.825452205E2,9.773836471E-3,-1.175914705E-2,-7.177661173E-3
5.830493807E2,8.246674202E-3,-1.267544460E-2,-4.581485875E-3
5.835535428E2,7.177661173E-3,-1.343902480E-2,-5.803215317E-3
5.840577070E2,5.345067009E-3,-1.114828233E-2,-3.054323897E-4
5.845618734E2,3.512472380E-3,-7.024944760E-3,-3.359756200E-3
5.850660422E2,1.069013379E-3,-1.069013379E-3,3.359756200E-3
5.855702132E2,2.138026757E-3,-1.679878100E-3,4.276053514E-3
5.860743865E2,6.261364091E-3,9.162971983E-4,1.924224012E-2
5.865785626E2,1.832594397E-3,9.162971750E-3,2.932151034E-2
5.870827419E2,-6.566796452E-3,1.328630932E-2,2.855792828E-2
5.875869244E2,-9.010255337E-3,4.428769462E-3,4.153880477E-2
5.880911095E2,-9.010255337E-3,9.162971983E-4,5.329795182E-2
5.885952971E2,-2.764163166E-2,1.160643063E-2,4.153880477E-2
5.890994870E2,-3.833176568E-2,3.634645417E-2,5.345066637E-2
5.896036793E2,-5.329795182E-2,3.802633286E-2,4.062250629E-2
5.901078738E2,-5.528326333E-2,3.512472659E-2,3.985892609E-2
5.906120708E2,-6.246092543E-2,2.779434808E-2,3.283398226E-2
5.911162700E2,-5.803215504E-2,2.855792828E-2,3.863719851E-2
5.916204715E2,-6.215549260E-2,3.054323979E-2,3.481929377E-2
5.921246751E2,-5.711585656E-2,2.779434808E-2,4.031707719E-2
5.926288808E2,-6.200277433E-2,2.871064469E-2,3.283398226E-2
5.931330884E2,-6.123919412E-2,3.420842811E-2,3.527744114E-2
5.936372980E2,-6.200277433E-2,2.779434808E-2,3.207040206E-2
5.941415092E2,-5.604684353E-2,2.550360374E-2,4.474584386E-2
5.946457216E2,-6.704241037E-2,2.993237413E-2,1.725693047E-2
5.951499350E2,-6.108647957E-2,3.390299529E-2,1.664606482E-2
5.956541494E2,-5.772672221E-2,1.527161989E-2,-2.748891478E-3
5.961583649E2,-4.612028971E-2,1.527161989E-2,1.527161949E-4
5.966625812E2,-4.138609022E-2,1.450803876E-2,-1.847865991E-2
5.971667983E2,-2.626718581E-2,1.221729536E-2,-5.497782957E-3
5.976710160E2,-1.679878123E-2,-6.108647678E-3,-2.153298259E-2
5.981752342E2,4.581485991E-4,6.108647794E-4,2.748891478E-3
5.986794523E2,-2.748891478E-3,9.162971983E-4,-6.414080039E-3
5.991836704E2,9.162971983E-4,3.054323839E-3,4.123337101E-3
5.996878882E2,-1.374445739E-3,-6.719512399E-3,-5.650499370E-3
6.001921055E2,3.054323839E-3,2.443459118E-3,5.650499370E-3
6.006963223E2,-3.970621154E-3,-2.748891478E-3,-5.955931731E-3
6.012005387E2,4.123337101E-3,2.748891478E-3,3.817904973E-3
6.017047544E2,-4.581485991E-4,4.123337101E-3,-7.635809598E-4
6.022089692E2,-6.108647794E-4,7.635809598E-4,-3.359756200E-3
6.027131831E2,2.443459118E-3,1.527161920E-3,1.985310577E-3
6.032173960E2,-2.748891478E-3,1.221729559E-3,-3.512472380E-3
6.037216079E2,-1.221729559E-3,4.734201822E-3,-1.069013379E-3
6.042258187E2,1.679878100E-3,-6.108647794E-4,2.596175298E-3
6.047300284E2,-4.581485991E-4,-3.665188793E-3,-1.832594397E-3
6.052342369E2,2.290742937E-3,1.679878100E-3,5.345067009E-3
6.057384443E2,-4.123337101E-3,2.290742937E-3,-5.192350596E-3
6.062426505E2,3.970621154E-3,-1.832594397E-3,5.345067009E-3
6.067468556E2,-6.108647794E-4,-1.832594397E-3,-1.527161920E-3
6.072510596E2,-2.596175298E-3,2.443459118E-3,-5.039634649E-3
6.077552627E2,1.221729559E-3,4.734201822E-3,5.803215317E-3
6.082594647E2,-3.665188793E-3,-7.330377586E-3,-8.552107029E-3
6.087636657E2,5.955931731E-3,2.138026757E-3,1.038470119E-2
6.092678657E2,-5.650499370E-3,1.069013379E-3,-9.926552884E-3
6.097720647E2,6.566796452E-3,-1.374445739E-3,1.206457894E-2
6.102762628E2,2.901607659E-3,6.108647794E-4,1.328630932E-2
6.107804600E2,-1.374445739E-3,1.481347065E-2,2.871064469E-2
6.112846563E2,-8.552107029E-3,1.374445762E-2,2.901607752E-2
6.117888518E2,-1.588248461E-2,1.832594350E-2,3.451386094E-2
6.122930465E2,-2.290742844E-2,2.199113183E-2,3.695731983E-2
6.127972404E2,-3.298669681E-2,2.107483521E-2,3.497200832E-2
6.133014333E2,-4.444041103E-2,3.191768378E-2,2.611446939E-2
6.138056255E2,-4.489856213E-2,2.626718581E-2,2.000582218E-2
6.143098169E2,-4.413498193E-2,3.069595434E-2,2.351829410E-2
6.148140076E2,-4.734202102E-2,2.138026804E-2,6.719512399E-3
6.153181975E2,-4.718930274E-2,2.687804960E-2,-2.901607659E-3
6.158223869E2,-3.695731983E-2,1.618791744E-2,-4.581485875E-3
6.163265756E2,-2.901607752E-2,1.038470119E-2,-5.192350596E-3
6.168307637E2,-2.290742844E-2,4.428769462E-3,-1.450803876E-2
6.173349513E2,-1.191186346E-2,6.108647794E-4,-1.634063199E-2
6.178391383E2,-6.108647678E-3,1.527161949E-4,-1.878409274E-2
6.183433249E2,1.679878100E-3,-3.359756200E-3,-2.901607752E-2
6.188475116E2,1.084284950E-2,-3.817904973E-3,-2.535088919E-2
6.193516987E2,1.878409274E-2,-7.330377586E-3,-3.527744114E-2
6.198558861E2,2.748891525E-2,-9.315688163E-3,-3.665188700E-2
6.203600731E2,3.451386094E-2,-1.343902480E-2,-3.940077871E-2
6.208642598E2,4.993819445E-2,-1.557705179E-2,-2.565632015E-2
6.213684460E2,5.268708616E-2,-2.199113183E-2,-2.351829410E-2
6.218726318E2,5.146535859E-2,-2.168569900E-2,-2.474002354E-2
6.223768175E2,4.749473557E-2,-1.389717404E-2,-2.474002354E-2
6.228810030E2,4.871646687E-2,-1.863137633E-2,-2.443459071E-2
6.233851881E2,4.718930274E-2,-1.435532235E-2,-2.412915789E-2
6.238893730E2,4.657844082E-2,-1.450803876E-2,-2.794706449E-2
6.243935575E2,4.932733253E-2,-1.175914705E-2,-1.114828233E-2
6.248977416E2,4.306596518E-2,-1.374445762E-2,-8.246674202E-3
6.254019253E2,4.214967042E-2,-1.802051067E-2,8.704823442E-3
6.259061088E2,2.809977904E-2,-1.771507785E-2,2.290742937E-3
6.264102918E2,2.428187430E-2,-2.092211880E-2,1.053741761E-2
6.269144745E2,1.618791744E-2,-1.389717404E-2,1.481347065E-2
6.274186567E2,5.345067009E-3,-1.298087649E-2,2.290742937E-3
6.279228384E2,4.734201822E-3,-8.093958721E-3,1.099556591E-2
6.284270199E2,-1.832594397E-3,-1.771507785E-2,-1.221729559E-3
6.289312008E2,3.970621154E-3,-1.679878123E-2,7.635809598E-4
6.294353813E2,3.665188793E-3,-1.343902480E-2,-1.069013379E-3
6.299395616E2,-1.985310577E-3,-1.298087649E-2,-6.872228812E-3
6.304437415E2,3.817904973E-3,-2.138026757E-3,7.330377586E-3
6.309479211E2,-2.138026757E-3,-1.527161920E-3,-5.497782957E-3
6.314521003E2,3.512472380E-3,1.679878100E-3,8.093958721E-3
6.319562791E2,-2.901607659E-3,2.290742937E-3,-4.276053514E-3
6.324604576E2,9.162971983E-4,1.832594397E-3,3.054323839E-3
6.329646359E2,-1.374445739E-3,-3.207040019E-3,-4.734201822E-3
6.334688139E2,3.359756200E-3,-2.596175298E-3,5.039634649E-3
6.339729915E2,-1.832594397E-3,3.207040019E-3,-1.679878100E-3
6.344771687E2,-3.054323897E-4,4.581485991E-4,-1.221729559E-3
6.349813455E2,3.054323839E-3,1.374445739E-3,5.192350596E-3
6.354855222E2,-4.734201822E-3,-3.207040019E-3,-5.803215317E-3
6.359896986E2,7.635809598E-4,3.054323897E-4,1.527161920E-3
6.364938746E2,1.527161949E-4,-1.374445739E-3,4.581485991E-4
6.369980503E2,-2.138026757E-3,-2.901607659E-3,-1.832594397E-3
6.375022256E2,1.069013379E-3,7.635809598E-4,1.832594397E-3
6.380064008E2,6.108647794E-4,-4.581485991E-4,-1.527161949E-4
6.385105755E2,-1.374445739E-3,3.207040019E-3,-1.069013379E-3
6.390147501E2,-3.054323897E-4,-1.374445739E-3,-3.054323897E-4
6.395189245E2,-6.108647794E-4,6.108647794E-4,-0.000000000E0
6.400230986E2,3.054323897E-4,7.635809598E-4,1.069013379E-3
6.405272724E2,2.596175298E-3,-1.374445739E-3,1.527161920E-3
6.410314459E2,-1.374445739E-3,-3.054323897E-4,-1.679878100E-3
6.415356191E2,-0.000000000E0,-1.221729559E-3,4.581485991E-4
6.420397924E2,-6.108647794E-4,-4.581485991E-4,-9.162971983E-4
6.425439656E2,3.054323897E-4,-1.527161949E-4,3.054323897E-4
6.430481391E2,1.221729559E-3,1.527161949E-4,2.138026757E-3
6.435523133E2,1.069013379E-3,-0.000000000E0,1.832594397E-3
6.440564881E2,-1.221729559E-3,-1.069013379E-3,-1.374445739E-3
6.445606637E2,-1.527161949E-4,1.527161949E-4,-1.527161949E-4
6.450648396E2,-1.527161949E-4,-1.527161949E-4,-6.108647794E-4
6.455690156E2,6.108647794E-4,-6.108647794E-4,3.054323897E-4
6.460731918E2,4.581485991E-4,4.581485991E-4,7.635809598E-4
6.465773678E2,2.138026757E-3,9.162971983E-4,2.290742937E-3
6.470815437E2,-1.374445739E-3,-2.138026757E-3,-1.221729559E-3
6.475857196E2,0.000000000E0,-1.374445739E-3,-3.054323897E-4
6.480898951E2,1.527161949E-4,-6.108647794E-4,4.581485991E-4
6.485940704E2,4.581485991E-4,-6.108647794E-4,7.635809598E-4
6.490982455E2,1.527161949E-4,-1.221729559E-3,1.527161949E-4
6.496024203E2,-1.527161949E-4,0.000000000E0,-1.527161949E-4
6.501065949E2,9.162971983E-4,-4.581485991E-4,1.374445739E-3
6.506107692E2,3.054323897E-4,-3.054323897E-4,4.581485991E-4
6.511149433E2,-3.054323897E-4,-1.069013379E-3,-1.069013379E-3
6.516191173E2,-9.162971983E-4,-0.000000000E0,-6.108647794E-4
6.521232910E2,-3.054323897E-4,0.000000000E0,-3.054323897E-4
6.526274645E2,9.162971983E-4,-1.527161920E-3,6.108647794E-4
6.531316377E2,0.000000000E0,-7.635809598E-4,-0.000000000E0
6.536358105E2,6.108647794E-4,1.527161949E-4,1.374445739E-3
6.541399831E2,-6.108647794E-4,3.207040019E-3,-3.054323897E-4
6.546441554E2,-1.237001177E-2,3.680460155E-2,4.581485991E-4
6.551483275E2,-3.359756200E-3,-1.832594397E-3,-9.162971983E-4
6.556524995E2,-1.527161949E-4,-1.221729559E-3,-7.635809598E-4
6.561566713E2,-1.527161949E-4,-1.527161949E-4,1.527161949E-4
6.566608428E2,1.527161949E-4,4.581485991E-4,6.108647794E-4
6.571650142E2,6.108647794E-4,4.581485991E-4,1.527161920E-3
6.576691855E2,-1.527161949E-4,1.527161949E-4,-1.527161949E-4
6.581733565E2,-7.635809598E-4,-3.054323897E-4,-9.162971983E-4
6.586775273E2,4.581485991E-4,-3.054323897E-4,4.581485991E-4
6.591816979E2,-3.054323897E-4,3.054323897E-4,3.054323897E-4
6.596858684E2,-3.207040019E-3,-4.581485991E-4,-2.290742937E-3
6.601900386E2,-1.527161949E-4,9.162971983E-4,4.581485991E-4
6.606942085E2,1.527161920E-3,4.581485991E-4,2.138026757E-3
6.611983783E2,7.635809598E-4,9.162971983E-4,1.679878100E-3
6.617025477E2,-1.527161920E-3,-7.635809598E-4,-2.596175298E-3
6.622067170E2,-4.581485991E-4,-1.527161949E-4,-3.054323897E-4
6.627108862E2,3.054323897E-4,1.527161949E-4,6.108647794E-4
6.632150553E2,-3.054323897E-4,-3.054323897E-4,-1.527161949E-4
6.637192244E2,4.581485991E-4,1.221729559E-3,1.374445739E-3
6.642233934E2,3.054323897E-4,-1.679878100E-3,-3.054323897E-4
6.647275624E2,1.252272818E-2,-1.130099874E-2,-6.108647678E-3
6.652317312E2,1.175914705E-2,-1.832594397E-3,-1.985310577E-3
6.657359000E2,-3.207040019E-3,1.527161920E-3,-3.054323897E-4
6.662400686E2,6.108647678E-3,-3.054323839E-3,-7.635809598E-4
6.667442371E2,-4.581485991E-4,2.138026757E-3,1.527161949E-4
6.672484054E2,-6.108647794E-4,1.221729559E-3,7.635809598E-4
6.677525736E2,-4.428769462E-3,2.443459118E-3,-1.985310577E-3
6.682567416E2,-7.605266571E-2,3.726275265E-2,5.955931731E-3
6.687609093E2,6.185005978E-2,-3.161225095E-2,-1.069013379E-3
6.692650768E2,1.374445762E-2,-2.489273995E-2,-3.970621154E-3
6.697692441E2,5.039634649E-3,6.108647794E-4,3.817904973E-3
6.702734112E2,-1.221729559E-3,8.552107029E-3,-3.359756200E-3
6.707775783E2,-2.138026757E-3,1.527161920E-3,-9.162971983E-4
6.712817451E2,-1.221729559E-3,-3.054323897E-4,-3.054323897E-4
6.717859116E2,-1.985310577E-3,3.359756200E-3,0.000000000E0
6.722900780E2,-1.527161920E-3,2.290742937E-3,1.221729559E-3
6.727942441E2,-3.054323839E-3,2.290742937E-3,-1.527161949E-4
6.732984100E2,-2.138026757E-3,6.108647794E-4,-7.635809598E-4
6.738025756E2,-9.162971983E-4,-4.581485991E-4,3.054323897E-4
6.743067411E2,-3.817904973E-3,2.138026757E-3,-1.527161949E-4
6.748109065E2,-2.748891478E-3,1.679878100E-3,4.581485991E-4
6.753150717E2,-1.374445739E-3,4.581485991E-4,4.581485991E-4
6.758192368E2,-7.635809598E-4,4.581485991E-4,1.679878100E-3
6.763234016E2,-1.527161949E-4,1.069013379E-3,7.635809598E-4
6.768275664E2,-1.527161920E-3,-1.527161949E-4,-1.069013379E-3
6.773317310E2,-7.635809598E-4,-3.054323897E-4,1.527161949E-4
6.778358954E2,-4.581485991E-4,6.108647794E-4,1.527161949E-4
6.783400598E2,1.527161949E-4,1.527161949E-4,3.054323897E-4
6.788442241E2,-6.108647794E-4,1.527161949E-4,-1.527161949E-4
6.793483883E2,-1.527161949E-4,3.054323897E-4,9.162971983E-4
6.798525522E2,1.527161949E-4,7.635809598E-4,9.162971983E-4
6.803567160E2,-4.581485991E-4,-1.527161949E-4,-7.635809598E-4
6.808608797E2,-4.581485991E-4,-6.108647794E-4,-6.108647794E-4
6.813650433E2,-0.000000000E0,-1.527161949E-4,-0.000000000E0
6.818692069E2,-0.000000000E0,-3.054323897E-4,3.054323897E-4
6.823733705E2,4.581485991E-4,4.581485991E-4,1.374445739E-3
6.828775341E2,6.108647794E-4,1.527161949E-4,4.581485991E-4
6.833816977E2,-4.581485991E-4,-6.108647794E-4,-1.374445739E-3
6.838858613E2,3.054323897E-4,-6.108647794E-4,-1.527161949E-4
6.843900252E2,-7.024944760E-3,1.069013402E-2,-2.443459118E-3
6.848941894E2,-2.336557768E-2,2.367101051E-2,-4.276053514E-3
6.853983544E2,-3.543015569E-2,3.008509055E-2,-2.901607659E-3
6.859025202E2,-8.399390616E-3,6.261364091E-3,4.581485991E-4
6.864066868E2,-3.970621154E-3,3.054323839E-3,1.679878100E-3
6.869108544E2,-2.748891478E-3,7.635809598E-4,-6.108647794E-4
6.874150229E2,-1.527161920E-3,6.108647794E-4,-4.581485991E-4
6.879191921E2,-3.054323897E-4,-3.054323897E-4,3.054323897E-4
6.884233620E2,3.054323897E-4,-0.000000000E0,3.054323897E-4
6.889275325E2,-7.635809598E-4,6.108647794E-4,-0.000000000E0
6.894317034E2,-9.162971983E-4,1.374445739E-3,1.527161949E-4
6.899358746E2,-9.162971983E-4,1.374445739E-3,9.162971983E-4
6.904400461E2,-7.635809598E-4,6.108647794E-4,-7.635809598E-4
6.909442177E2,-1.679878100E-3,1.679878100E-3,-7.635809598E-4
6.914483894E2,-7.635809598E-4,7.635809598E-4,1.679878100E-3
6.919525611E2,-3.054323839E-3,5.039634649E-3,9.162971983E-4
6.924567330E2,-4.581485991E-4,-7.635809598E-4,4.123337101E-3
6.929609048E2,1.832594397E-3,-1.985310577E-3,6.261364091E-3
6.934650768E2,1.832594397E-3,-2.901607659E-3,1.053741761E-2
6.939692487E2,-1.374445739E-3,-3.665188793E-3,9.162971750E-3
6.944734206E2,-4.581485875E-3,-4.428769462E-3,7.635809947E-3
6.949775924E2,-6.108647678E-3,-3.054323839E-3,1.023198478E-2
6.954817642E2,-8.399390616E-3,-5.192350596E-3,7.330377586E-3
6.959859357E2,-9.621120058E-3,-5.650499370E-3,5.955931731E-3
6.964901070E2,-8.857538924E-3,-5.497782957E-3,8.552107029E-3
6.969942781E2,-1.084284950E-2,-3.970621154E-3,7.024944760E-3
6.974984491E2,-9.621120058E-3,-4.886918236E-3,9.315688163E-3
6.980026199E2,-9.773836471E-3,-3.665188793E-3,8.246674202E-3
6.985067906E2,-1.145371422E-2,-6.108647678E-3,6.566796452E-3
6.990109611E2,-1.313359290E-2,-3.207040019E-3,6.872228812E-3
6.995151316E2,-1.038470119E-2,-2.290742937E-3,6.261364091E-3
7.000193020E2,-7.024944760E-3,1.832594397E-3,9.010255337E-3
7.005234723E2,-9.621120058E-3,8.093958721E-3,2.901607659E-3
7.010276431E2,-5.955931731E-3,1.145371422E-2,8.857538924E-3
7.015318150E2,-6.872228812E-3,1.191186346E-2,7.024944760E-3
7.020359877E2,-8.704823442E-3,1.252272818E-2,5.955931731E-3
7.025401615E2,-9.315688163E-3,1.282816008E-2,4.276053514E-3
7.030443364E2,-8.246674202E-3,1.252272818E-2,7.177661173E-3
7.035485122E2,-9.773836471E-3,1.328630932E-2,6.414080039E-3
7.040526890E2,-1.038470119E-2,1.496618707E-2,8.552107029E-3
7.045568665E2,-1.175914705E-2,1.328630932E-2,3.970621154E-3
7.050610449E2,-8.399390616E-3,1.221729559E-3,1.160643063E-2
7.055652232E2,-1.618791744E-2,7.941242307E-3,5.955931731E-3
7.060694021E2,-1.007926930E-2,-1.069013379E-3,1.007926930E-2
7.065735811E2,-1.649334840E-2,7.483093534E-3,5.345067009E-3
7.070777600E2,-1.099556591E-2,3.970621154E-3,9.010255337E-3
7.075819386E2,-1.328630932E-2,3.817904973E-3,6.108647678E-3
7.080861168E2,-1.313359290E-2,5.192350596E-3,9.773836471E-3
7.085902948E2,-9.773836471E-3,1.343902480E-2,8.246674202E-3
7.090944724E2,-9.162971750E-3,1.557705179E-2,9.162971750E-3
7.095986497E2,-1.359174121E-2,1.649334840E-2,4.428769462E-3
7.101028266E2,-9.468403645E-3,1.359174121E-2,6.719512399E-3
7.106070031E2,-1.237001177E-2,1.649334840E-2,7.941242307E-3
7.111111792E2,-1.069013402E-2,1.664606482E-2,6.108647678E-3
7.116153550E2,-1.343902480E-2,1.557705179E-2,8.246674202E-3
7.121195305E2,-1.328630932E-2,5.192350596E-3,6.108647678E-3
7.126237057E2,-1.038470119E-2,2.138026757E-3,1.084284950E-2
7.131278807E2,-1.527161989E-2,8.857538924E-3,9.926552884E-3
7.136320554E2,-1.282816008E-2,2.443459118E-3,5.345067009E-3
7.141362297E2,-1.649334840E-2,5.039634649E-3,7.024944760E-3
7.146404039E2,-1.359174121E-2,4.581485875E-3,1.175914705E-2
7.151445776E2,-1.832594350E-2,8.246674202E-3,1.069013379E-3
7.156487510E2,-1.359174121E-2,4.886918236E-3,1.099556591E-2
7.161529242E2,-1.557705179E-2,6.261364091E-3,8.704823442E-3
7.166570970E2,-1.099556591E-2,2.443459118E-3,1.114828233E-2
7.171612695E2,-1.924224012E-2,7.177661173E-3,1.985310577E-3
7.176654417E2,-1.893680729E-2,-7.024944760E-3,3.054323839E-3
7.181696135E2,-1.298087649E-2,-9.926552884E-3,9.162971983E-4
7.186737852E2,-7.635809947E-3,-6.566796452E-3,-7.941242307E-3
7.191779567E2,-3.512472380E-3,3.665188793E-3,-5.345067009E-3
7.196821281E2,8.246674202E-3,-7.177661173E-3,7.788525894E-3
7.201862992E2,-3.207040019E-3,-1.832594397E-3,-1.985310577E-3
7.206904701E2,-6.108647794E-4,5.039634649E-3,-1.832594397E-3
7.211946406E2,1.221729559E-3,2.596175298E-3,-3.665188793E-3
7.216988107E2,1.527161949E-4,-5.803215317E-3,2.443459118E-3
7.222029807E2,1.374445739E-3,-1.664606482E-2,6.108647678E-3
7.227071507E2,-4.123337101E-3,-9.621120058E-3,-2.138026757E-3
7.232113206E2,2.290742937E-3,-9.926552884E-3,2.901607659E-3
7.237154906E2,1.527161949E-4,0.000000000E0,2.748891478E-3
7.242196605E2,4.123337101E-3,-1.527161949E-4,2.748891478E-3
7.247238304E2,-5.039634649E-3,7.635809598E-4,-1.267544460E-2
7.252280007E2,6.108647794E-4,-2.748891478E-3,3.054323897E-4
7.257321714E2,4.734201822E-3,-9.926552884E-3,9.162971750E-3
7.262363424E2,-6.261364091E-3,-8.552107029E-3,-6.414080039E-3
7.267405136E2,5.345067009E-3,-1.389717404E-2,7.941242307E-3
7.272446848E2,7.941242307E-3,-2.138026757E-3,4.581485875E-3
7.277488561E2,-4.886918236E-3,6.719512399E-3,-4.276053514E-3
7.282530272E2,-4.734201822E-3,8.399390616E-3,2.901607659E-3
7.287571982E2,5.650499370E-3,-1.450803876E-2,-2.596175298E-3
7.292613690E2,2.901607659E-3,1.679878100E-3,3.207040019E-3
7.297655397E2,-6.108647794E-4,-1.374445739E-3,-7.635809598E-4
7.302697103E2,7.635809598E-4,1.221729559E-3,-9.162971983E-4
7.307738808E2,9.162971983E-4,-1.527161920E-3,3.054323897E-4
7.312780511E2,6.108647794E-4,2.443459118E-3,9.162971983E-4
7.317822213E2,-1.374445739E-3,2.290742937E-3,-2.443459118E-3
7.322863912E2,1.679878100E-3,-1.832594397E-3,1.832594397E-3
7.327905608E2,5.192350596E-3,-4.734201822E-3,2.443459118E-3
7.332947302E2,-3.817904973E-3,4.734201822E-3,-4.428769462E-3
7.337988994E2,-2.596175298E-3,3.817904973E-3,-7.635809598E-4
7.343030684E2,3.054323839E-3,-6.414080039E-3,1.679878100E-3
7.348072373E2,9.315688163E-3,-2.748891478E-3,5.650499370E-3
7.353114059E2,2.443459118E-3,4.123337101E-3,-1.603520103E-2
7.358155744E2,7.483093534E-3,1.282816008E-2,-4.581485991E-4
7.363197428E2,1.069013402E-2,7.330377586E-3,-4.123337101E-3
7.368239110E2,3.665188793E-3,1.038470119E-2,-1.053741761E-2
7.373280792E2,4.123337101E-3,-9.468403645E-3,-1.527161949E-4
7.378322471E2,3.512472380E-3,-1.603520103E-2,-1.985310577E-3
7.383364151E2,7.483093534E-3,-1.634063199E-2,3.207040019E-3
7.388405829E2,2.138026757E-3,-3.359756200E-3,-8.246674202E-3
7.393447505E2,9.010255337E-3,-7.788525894E-3,-4.428769462E-3
7.398489178E2,4.581485875E-3,-2.443459118E-3,-3.665188793E-3
7.403530851E2,-3.054323839E-3,3.665188793E-3,-1.221729559E-3
7.408572524E2,-3.054323839E-3,-7.635809598E-4,-3.207040019E-3
7.413614195E2,4.734201822E-3,-1.985310577E-3,5.192350596E-3
7.418655865E2,-4.276053514E-3,3.970621154E-3,-5.650499370E-3
7.423697537E2,-7.635809598E-4,3.817904973E-3,6.108647794E-4
7.428739207E2,3.207040019E-3,-7.635809947E-3,1.069013379E-3
7.433780878E2,1.527161949E-4,-1.527161949E-4,4.581485991E-4
7.438822550E2,-6.108647794E-4,-9.162971983E-4,-2.138026757E-3
7.443864223E2,1.527161920E-3,1.374445739E-3,1.527161920E-3
7.448905895E2,-4.581485991E-4,3.054323897E-4,-1.069013379E-3
7.453947567E2,9.162971983E-4,-3.054323897E-4,1.679878100E-3
7.458989239E2,1.069013379E-3,-3.512472380E-3,-0.000000000E0
7.464030911E2,1.985310577E-3,6.108647794E-4,2.138026757E-3
7.469072582E2,-2.901607659E-3,9.162971983E-4,-3.512472380E-3
7.474114251E2,7.635809598E-4,2.596175298E-3,2.596175298E-3
7.479155921E2,9.162971983E-4,-3.359756200E-3,-1.374445739E-3
7.484197589E2,5.497782957E-3,-7.330377586E-3,4.123337101E-3
7.489239257E2,-0.000000000E0,-2.596175298E-3,-2.901607659E-3
7.494280922E2,1.069013379E-3,6.108647794E-4,1.527161949E-4
7.499322586E2,3.665188793E-3,-4.276053514E-3,2.596175298E-3
7.504364251E2,1.832594397E-3,-4.276053514E-3,6.108647794E-4
7.509405919E2,2.748891478E-3,-9.162971983E-4,2.290742937E-3
7.514447594E2,-3.054323897E-4,-1.069013379E-3,-1.069013379E-3
7.519489276E2,5.497782957E-3,-5.345067009E-3,2.901607659E-3
7.524530961E2,3.054323839E-3,-5.345067009E-3,-4.581485991E-4
7.529572648E2,1.374445739E-3,-1.985310577E-3,-1.221729559E-3
7.534614338E2,3.512472380E-3,-3.512472380E-3,1.527161949E-4
7.539656028E2,9.162971983E-4,-2.596175298E-3,1.527161949E-4
7.544697721E2,4.581485991E-4,7.635809598E-4,-2.901607659E-3
7.549739413E2,3.207040019E-3,9.162971983E-4,6.719512399E-3
7.554781106E2,-2.748891478E-3,-5.955931731E-3,-8.399390616E-3
7.559822799E2,4.123337101E-3,3.054323897E-4,5.345067009E-3
7.564864490E2,-3.207040019E-3,1.527161949E-4,-3.817904973E-3
7.569906178E2,1.985310577E-3,-1.832594397E-3,1.069013379E-3
7.574947866E2,1.069013379E-3,-4.428769462E-3,-1.221729559E-3
7.579989552E2,1.374445739E-3,2.138026757E-3,2.748891478E-3
7.585031237E2,1.527161920E-3,8.552107029E-3,-1.374445739E-3
7.590072920E2,4.428769462E-3,5.345067009E-3,-4.734201822E-3
7.595114601E2,1.527161920E-3,1.175914705E-2,1.374445739E-3
7.600156281E2,9.162971983E-4,9.773836471E-3,-4.886918236E-3
7.605197961E2,4.734201822E-3,1.114828233E-2,4.428769462E-3
7.610239639E2,1.069013379E-3,9.315688163E-3,-4.581485875E-3
7.615281316E2,6.872228812E-3,1.328630932E-2,5.345067009E-3
7.620322994E2,-3.512472380E-3,7.330377586E-3,-6.566796452E-3
7.625364669E2,1.527161949E-4,7.635809598E-4,1.221729559E-3
7.630406344E2,-3.512472380E-3,-1.527161920E-3,-4.581485875E-3
7.635448017E2,1.069013379E-3,-6.108647794E-4,1.832594397E-3
7.640489691E2,-1.527161949E-4,-1.221729559E-3,-4.581485991E-4
7.645531363E2,-2.901607659E-3,2.443459118E-3,3.970621154E-3
7.650573034E2,-5.039634649E-3,1.527161920E-3,1.527161920E-3
7.655614704E2,-3.207040019E-3,3.207040019E-3,5.650499370E-3
7.660656373E2,-8.246674202E-3,-1.221729559E-3,-3.970621154E-3
7.665698041E2,4.581485991E-4,4.581485875E-3,1.099556591E-2
7.670739710E2,-8.704823442E-3,7.635809598E-4,-5.803215317E-3
7.675781379E2,-9.162971983E-4,-9.162971983E-4,7.483093534E-3
7.680823049E2,-4.123337101E-3,-1.374445739E-3,3.817904973E-3
7.685864721E2,-5.650499370E-3,-5.039634649E-3,2.748891478E-3
7.690906395E2,-3.207040019E-3,-7.330377586E-3,2.596175298E-3
7.695948070E2,-5.955931731E-3,-5.955931731E-3,2.596175298E-3
7.700989746E2,-9.162971983E-4,-6.414080039E-3,3.665188793E-3
7.706031423E2,-2.443459118E-3,-6.872228812E-3,-9.162971983E-4
7.711073102E2,1.985310577E-3,-7.483093534E-3,3.359756200E-3
7.716114784E2,7.635809598E-4,-1.099556591E-2,-3.512472380E-3
7.721156467E2,1.695149764E-2,-4.535670951E-2,4.276053514E-3
7.726198151E2,8.093958721E-3,-3.023780696E-2,-7.024944760E-3
7.731239836E2,-1.221729559E-3,6.108647678E-3,-6.108647678E-3
7.736281521E2,8.704823442E-3,-8.552107029E-3,1.527161949E-4
7.741323208E2,3.512472380E-3,-1.985310577E-3,-5.955931731E-3
7.746364902E2,7.788525894E-3,-4.581485991E-4,7.635809598E-4
7.751406605E2,4.428769462E-3,9.162971983E-4,-3.207040019E-3
7.756448315E2,1.985310577E-3,7.635809598E-4,-6.566796452E-3
7.761490030E2,6.414080039E-3,-2.748891478E-3,-2.290742937E-3
7.766531748E2,5.650499370E-3,-9.162971983E-4,-2.290742937E-3
7.771573466E2,4.581485875E-3,-1.374445739E-3,-2.901607659E-3
7.776615184E2,3.512472380E-3,-3.054323897E-4,-3.054323839E-3
7.781656902E2,4.886918236E-3,-2.290742937E-3,-2.748891478E-3
7.786698623E2,5.192350596E-3,-1.374445739E-3,-2.443459118E-3
7.791740346E2,3.665188793E-3,7.635809598E-4,-1.985310577E-3
7.796782072E2,4.276053514E-3,-9.162971983E-4,-1.985310577E-3
7.801823801E2,3.207040019E-3,-1.069013379E-3,-2.596175298E-3
7.806865532E2,2.138026757E-3,-1.069013379E-3,-2.901607659E-3
7.811907262E2,2.901607659E-3,-4.581485991E-4,-2.748891478E-3
7.816948993E2,3.817904973E-3,-2.748891478E-3,-1.527161920E-3
7.821990723E2,2.290742937E-3,-7.635809598E-4,-1.985310577E-3
7.827032452E2,3.359756200E-3,-2.138026757E-3,-2.748891478E-3
7.832074178E2,2.290742937E-3,-3.359756200E-3,-3.207040019E-3
7.837115900E2,1.832594397E-3,1.221729559E-3,-1.832594397E-3
7.842157620E2,2.443459118E-3,-9.162971983E-4,-1.679878100E-3
7.847199341E2,2.290742937E-3,-3.054323897E-4,-6.108647794E-4
7.852241069E2,2.138026757E-3,-1.374445739E-3,-1.527161920E-3
7.857282803E2,9.162971983E-4,-1.374445739E-3,-2.290742937E-3
7.862324542E2,1.679878100E-3,-1.069013379E-3,-1.832594397E-3
7.867366282E2,2.138026757E-3,-1.527161920E-3,-1.069013379E-3
7.872408021E2,7.635809598E-4,3.054323897E-4,-1.679878100E-3
7.877449759E2,1.679878100E-3,9.162971983E-4,1.527161949E-4
7.882491497E2,2.138026757E-3,-2.596175298E-3,-1.221729559E-3
7.887533233E2,-3.054323897E-4,3.054323897E-4,-2.290742937E-3
7.892574967E2,1.679878100E-3,-1.679878100E-3,-3.054323897E-4
7.897616698E2,1.374445739E-3,-1.832594397E-3,1.527161949E-4
7.902658426E2,6.108647794E-4,-4.581485991E-4,-1.527161949E-4
7.907700157E2,-1.527161949E-4,2.901607659E-3,1.527161949E-4
7.912741898E2,-1.527161920E-3,5.955931731E-3,-9.162971983E-4
7.917783648E2,-1.970038936E-2,3.955349326E-2,-2.596175298E-3
7.922825407E2,8.704823442E-3,-1.527161989E-2,4.734201822E-3
7.927867170E2,-1.069013379E-3,1.679878100E-3,-1.221729559E-3
7.932908935E2,-0.000000000E0,-3.054323897E-4,-4.581485991E-4
7.937950701E2,-1.527161949E-4,1.527161949E-4,-4.581485991E-4
7.942992470E2,7.635809598E-4,-3.054323897E-4,7.635809598E-4
7.948034248E2,3.054323897E-4,6.108647794E-4,4.581485991E-4
7.953076032E2,-0.000000000E0,-6.108647794E-4,-9.162971983E-4
7.958117820E2,4.581485991E-4,-4.581485991E-4,4.581485991E-4
7.963159607E2,-1.069013379E-3,-4.581485991E-4,-2.138026757E-3
7.968201401E2,1.221729559E-3,1.527161949E-4,1.374445739E-3
7.973243206E2,1.527161949E-4,1.527161949E-4,-1.527161949E-4
7.978285020E2,3.054323897E-4,-6.108647794E-4,1.679878100E-3
7.983326843E2,3.054323897E-4,4.581485991E-4,-1.221729559E-3
7.988368675E2,9.162971983E-4,-1.527161949E-4,1.527161949E-4
7.993410511E2,-1.527161949E-4,-0.000000000E0,-1.221729559E-3
7.998452350E2,4.581485991E-4,1.527161949E-4,1.527161949E-4
8.003494192E2,-0.000000000E0,-6.108647794E-4,-3.054323897E-4
8.008536039E2,-1.527161949E-4,4.581485991E-4,7.635809598E-4
8.013577887E2,4.581485991E-4,0.000000000E0,-1.527161949E-4
8.018619734E2,-3.054323897E-4,-1.069013379E-3,-1.221729559E-3
8.023661578E2,3.054323897E-4,-0.000000000E0,-1.527161949E-4
8.028703418E2,3.054323897E-4,-0.000000000E0,-4.581485991E-4
8.033745252E2,9.162971983E-4,-3.054323897E-4,6.108647794E-4
8.038787083E2,1.527161920E-3,4.581485991E-4,1.069013379E-3
8.043828910E2,-1.527161949E-4,-6.108647794E-4,-6.108647794E-4
8.048870735E2,-1.527161949E-4,-6.108647794E-4,-3.054323897E-4
8.053912559E2,4.581485991E-4,-3.054323897E-4,-0.000000000E0
8.058954381E2,6.108647794E-4,3.054323897E-4,-3.054323897E-4
8.063996200E2,3.054323897E-4,0.000000000E0,-1.527161949E-4
8.069038015E2,-7.635809598E-4,-4.581485991E-4,1.527161949E-4
8.074079825E2,-3.054323897E-4,1.527161949E-4,4.581485991E-4
8.079121631E2,-0.000000000E0,3.054323897E-4,-6.108647794E-4
8.084163433E2,-7.635809598E-4,-1.527161949E-4,-1.679878100E-3
8.089205230E2,-0.000000000E0,-7.635809598E-4,-4.581485991E-4
8.094247020E2,1.527161949E-4,-1.527161949E-4,-3.054323897E-4
8.099288805E2,3.054323897E-4,-1.527161949E-4,-1.527161949E-4
8.104330584E2,6.108647794E-4,4.581485991E-4,7.635809598E-4
8.109372358E2,9.162971983E-4,-0.000000000E0,1.069013379E-3
8.114414126E2,-3.054323897E-4,-0.000000000E0,-1.221729559E-3
8.119455885E2,3.054323897E-4,-9.162971983E-4,-7.635809598E-4
8.124497639E2,1.527161949E-4,-0.000000000E0,-4.581485991E-4
8.129539385E2,3.054323897E-4,-0.000000000E0,-1.527161949E-4
8.134581127E2,3.054323897E-4,-4.581485991E-4,6.108647794E-4
8.139622864E2,7.635809598E-4,4.581485991E-4,7.635809598E-4
8.144664596E2,-1.527161949E-4,-3.054323897E-4,-7.635809598E-4
8.149706326E2,0.000000000E0,-6.108647794E-4,-7.635809598E-4
8.154748052E2,6.108647794E-4,-6.108647794E-4,0.000000000E0
8.159789773E2,1.527161949E-4,1.527161949E-4,-3.054323897E-4
8.164831488E2,-0.000000000E0,-1.527161949E-4,-0.000000000E0
8.169873197E2,3.054323897E-4,1.527161949E-4,9.162971983E-4
8.174914900E2,9.162971983E-4,4.581485991E-4,7.635809598E-4
8.179956597E2,-1.527161949E-4,-4.581485991E-4,-9.162971983E-4
8.184998288E2,-1.221729559E-3,3.970621154E-3,-1.679878100E-3
8.190039973E2,-8.704823442E-3,1.191186346E-2,-2.443459118E-3
8.195081652E2,-2.199113183E-2,2.336557768E-2,-1.832594397E-3
8.200123326E2,-3.512472380E-3,3.207040019E-3,-1.069013379E-3
8.205164998E2,3.054323897E-4,1.527161949E-4,3.054323897E-4
8.210206668E2,7.635809598E-4,6.108647794E-4,4.581485991E-4
8.215248338E2,3.054323897E-4,-0.000000000E0,-9.162971983E-4
8.220290007E2,6.108647794E-4,1.527161949E-4,-1.527161920E-3
8.225331675E2,4.123337101E-3,-2.290742937E-3,-1.527161949E-4
8.230373340E2,7.635809598E-4,2.596175298E-3,7.635809598E-4
8.235415004E2,1.832594397E-3,-6.108647794E-4,-4.581485991E-4
8.240456666E2,1.985310577E-3,-4.581485991E-4,-9.162971983E-4
8.245498327E2,2.443459118E-3,1.527161949E-4,-3.054323897E-4
8.250539985E2,3.359756200E-3,-1.221729559E-3,-1.832594397E-3
8.255581642E2,2.443459118E-3,-1.985310577E-3,-3.207040019E-3
8.260623296E2,3.207040019E-3,-1.679878100E-3,-2.138026757E-3
8.265664947E2,4.123337101E-3,-1.374445739E-3,-1.374445739E-3
8.270706595E2,4.734201822E-3,-1.221729559E-3,-7.635809598E-4
8.275748241E2,3.512472380E-3,-1.832594397E-3,-3.359756200E-3
8.280789884E2,3.970621154E-3,-1.069013379E-3,-1.679878100E-3
8.285831527E2,4.886918236E-3,-1.221729559E-3,-1.679878100E-3
8.290873168E2,4.886918236E-3,-1.679878100E-3,-2.443459118E-3
8.295914809E2,5.039634649E-3,-1.832594397E-3,-2.901607659E-3
8.300956451E2,5.650499370E-3,-1.221729559E-3,-1.374445739E-3
8.305998093E2,3.970621154E-3,-1.527161920E-3,-3.817904973E-3
8.311039732E2,2.901607659E-3,-1.221729559E-3,-4.428769462E-3
8.316081371E2,5.803215317E-3,-1.374445739E-3,-3.207040019E-3
8.321123008E2,5.650499370E-3,-1.221729559E-3,-2.443459118E-3
8.326164646E2,7.024944760E-3,-2.290742937E-3,-2.596175298E-3
8.331206283E2,5.650499370E-3,-2.748891478E-3,-5.497782957E-3
8.336247921E2,7.330377586E-3,-2.290742937E-3,-2.748891478E-3
8.341289558E2,7.635809947E-3,-3.207040019E-3,-6.566796452E-3
8.346331194E2,9.162971750E-3,-3.359756200E-3,-3.359756200E-3
8.351372830E2,8.704823442E-3,-3.512472380E-3,-6.566796452E-3
8.356414469E2,1.221729536E-2,-5.192350596E-3,-6.414080039E-3
8.361456114E2,1.099556591E-2,-3.665188793E-3,-5.497782957E-3
8.366497764E2,1.145371422E-2,-4.428769462E-3,-3.359756200E-3
8.371539420E2,1.175914705E-2,-3.359756200E-3,-5.497782957E-3
8.376581080E2,1.007926930E-2,-2.901607659E-3,-9.315688163E-3
8.381622745E2,1.267544460E-2,-4.123337101E-3,-6.414080039E-3
8.386664411E2,1.145371422E-2,-6.566796452E-3,-7.788525894E-3
8.391706079E2,1.588248461E-2,-1.175914705E-2,-4.581485991E-4
8.396747746E2,9.926552884E-3,-1.527161920E-3,-1.939495653E-2
8.401789411E2,1.863137633E-2,1.832594397E-3,2.596175298E-3
8.406831073E2,8.246674202E-3,-5.345067009E-3,-1.756236330E-2
8.411872732E2,1.802051067E-2,-3.512472380E-3,1.374445739E-3
8.416914388E2,1.221729536E-2,-7.635809947E-3,-1.420260593E-2
8.421956041E2,1.435532235E-2,-7.177661173E-3,-7.024944760E-3
8.426997691E2,1.527161989E-2,-6.414080039E-3,-6.872228812E-3
8.432039339E2,1.466075517E-2,-7.330377586E-3,-1.099556591E-2
8.437080985E2,1.618791744E-2,-1.832594397E-3,-3.817904973E-3
8.442122629E2,1.557705179E-2,-8.552107029E-3,-1.099556591E-2
8.447164271E2,1.481347065E-2,-4.123337101E-3,-5.955931731E-3
8.452205912E2,1.618791744E-2,-8.704823442E-3,-1.450803876E-2
8.457247552E2,1.710421406E-2,-4.276053514E-3,-1.007926930E-2
8.462289196E2,1.710421406E-2,-5.497782957E-3,-9.315688163E-3
8.467330846E2,1.634063199E-2,-7.788525894E-3,-9.468403645E-3
8.472372499E2,1.771507785E-2,-6.414080039E-3,-9.621120058E-3
8.477414155E2,1.970038936E-2,-7.788525894E-3,-8.093958721E-3
8.482455812E2,1.786779426E-2,-1.038470119E-2,-1.114828233E-2
8.487497469E2,1.603520103E-2,-1.832594397E-3,-1.114828233E-2
8.492539128E2,1.786779426E-2,-5.955931731E-3,-1.206457894E-2
8.497580785E2,1.786779426E-2,-6.719512399E-3,-8.399390616E-3
8.502622445E2,2.138026804E-2,-9.468403645E-3,-5.650499370E-3
8.507664104E2,1.970038936E-2,-7.483093534E-3,-1.389717404E-2
8.512705765E2,1.985310577E-2,-6.872228812E-3,-9.621120058E-3
8.517747426E2,1.817322709E-2,-6.261364091E-3,-1.404988952E-2
8.522789087E2,1.970038936E-2,-7.177661173E-3,-1.069013402E-2
8.527830747E2,1.802051067E-2,-8.246674202E-3,-1.466075517E-2
8.532872411E2,2.550360374E-2,-1.145371422E-2,-4.581485875E-3
8.537914076E2,2.977965772E-2,-1.985310577E-2,-1.069013402E-2
8.542955740E2,2.076940238E-2,-9.773836471E-3,-1.404988952E-2
8.547997404E2,1.450803876E-2,-1.130099874E-2,-1.069013402E-2
8.553039067E2,5.192350596E-3,-7.635809598E-4,-1.206457894E-2
8.558080731E2,1.404988952E-2,-1.893680729E-2,3.665188793E-3
8.563122392E2,-2.748891478E-3,4.734201822E-3,-5.803215317E-3
8.568164052E2,2.290742937E-3,-3.512472380E-3,1.221729559E-3
8.573205709E2,-3.512472380E-3,1.374445739E-3,-2.901607659E-3
8.578247363E2,2.748891478E-3,-1.069013379E-3,3.817904973E-3
8.583289014E2,-1.069013379E-3,4.581485991E-4,-1.527161920E-3
8.588330662E2,3.054323897E-4,-2.443459118E-3,2.901607659E-3
8.593372308E2,-2.443459118E-3,-4.581485991E-4,-5.345067009E-3
8.598413954E2,7.483093534E-3,3.207040019E-3,9.010255337E-3
8.603455600E2,-2.596175298E-3,2.596175298E-3,-3.817904973E-3
8.608497250E2,-1.679878100E-3,4.276053514E-3,-1.221729559E-3
8.613538907E2,4.581485991E-4,-1.160643063E-2,-1.527161920E-3
8.618580570E2,4.276053514E-3,3.817904973E-3,3.512472380E-3
8.623622239E2,-1.985310577E-3,2.138026757E-3,-1.832594397E-3
8.628663914E2,-1.221729559E-3,-1.985310577E-3,-1.374445739E-3
8.633705593E2,-6.108647794E-4,-4.581485875E-3,-1.374445739E-3
8.638747274E2,2.138026757E-3,1.832594397E-3,4.276053514E-3
8.643788961E2,-1.985310577E-3,4.581485991E-4,-3.817904973E-3
8.648830656E2,2.290742937E-3,6.108647794E-4,3.665188793E-3
8.653872353E2,-2.443459118E-3,3.207040019E-3,-4.581485991E-4
8.658914053E2,-2.290742937E-3,-4.734201822E-3,-0.000000000E0
8.663955755E2,-1.175914705E-2,7.483093534E-3,-3.207040019E-3
8.668997457E2,-1.069013402E-2,2.748891478E-3,6.261364091E-3
8.674039162E2,-8.704823442E-3,4.428769462E-3,2.748891478E-3
8.679080868E2,-3.207040019E-3,2.443459118E-3,1.221729536E-2
8.684122575E2,-1.374445762E-2,1.679878123E-2,-1.374445739E-3
8.689164285E2,-7.330377586E-3,1.389717404E-2,1.023198478E-2
8.694205994E2,-4.734201822E-3,-3.054323897E-4,4.734201822E-3
8.699247703E2,-1.634063199E-2,1.084284950E-2,-7.941242307E-3
8.704289411E2,-3.207040019E-3,7.024944760E-3,1.191186346E-2
8.709331118E2,-9.621120058E-3,3.817904973E-3,6.108647794E-4
8.714372822E2,-2.596175298E-3,6.108647678E-3,1.099556591E-2
8.719414524E2,-8.246674202E-3,7.330377586E-3,3.817904973E-3
8.724456225E2,-5.192350596E-3,1.298087649E-2,8.246674202E-3
8.729497923E2,-9.468403645E-3,7.635809947E-3,1.527161949E-4
8.734539621E2,-1.191186346E-2,1.237001177E-2,1.053741761E-2
8.739581320E2,-1.389717404E-2,9.621120058E-3,-5.955931731E-3
8.744623022E2,-7.177661173E-3,1.374445739E-3,1.007926930E-2
8.749664724E2,-8.552107029E-3,-0.000000000E0,3.359756200E-3
8.754706426E2,-6.414080039E-3,8.399390616E-3,8.552107029E-3
8.759748130E2,-1.252272818E-2,1.130099874E-2,8.552107029E-3
8.764789831E2,-4.581485875E-3,-7.941242307E-3,5.650499370E-3
8.769831529E2,-8.399390616E-3,6.108647678E-3,3.054323839E-3
8.774873225E2,-1.160643063E-2,5.955931731E-3,2.596175298E-3
8.779914923E2,-9.926552884E-3,-2.290742937E-3,4.734201822E-3
8.784956626E2,-6.414080039E-3,2.138026757E-3,7.788525894E-3
8.789998333E2,-1.038470119E-2,2.596175298E-3,1.527161920E-3
8.795040045E2,-7.635809947E-3,3.207040019E-3,8.704823442E-3
8.800081761E2,-1.069013402E-2,1.221729559E-3,2.290742937E-3
8.805123477E2,-6.719512399E-3,2.748891478E-3,8.399390616E-3
8.810165195E2,-8.704823442E-3,-5.345067009E-3,5.955931731E-3
8.815206910E2,-3.817904973E-3,-9.621120058E-3,8.704823442E-3
8.820248626E2,-7.788525894E-3,-6.872228812E-3,5.039634649E-3
8.825290343E2,-6.566796452E-3,-4.886918236E-3,7.177661173E-3
8.830332057E2,-3.665188793E-3,-1.221729536E-2,7.788525894E-3
8.835373771E2,-1.099556591E-2,1.679878100E-3,4.123337101E-3
8.840415483E2,-6.566796452E-3,-3.665188793E-3,7.788525894E-3
8.845457196E2,-9.162971750E-3,-4.734201822E-3,4.123337101E-3
8.850498907E2,-1.069013402E-2,-3.207040019E-3,3.970621154E-3
8.855540617E2,-6.566796452E-3,-1.007926930E-2,3.054323839E-3
8.860582325E2,-6.261364091E-3,-4.734201822E-3,8.093958721E-3
8.865624032E2,-6.261364091E-3,-3.359756200E-3,9.162971750E-3
8.870665739E2,-7.483093534E-3,-7.941242307E-3,5.039634649E-3
8.875707445E2,-1.053741761E-2,-1.832594397E-3,4.123337101E-3
8.880749152E2,-8.552107029E-3,2.901607659E-3,4.734201822E-3
8.885790859E2,-8.399390616E-3,7.330377586E-3,2.443459118E-3
8.890832569E2,-4.886918236E-3,1.099556591E-2,7.483093534E-3
8.895874278E2,-8.857538924E-3,8.093958721E-3,1.832594397E-3
8.900915989E2,-7.788525894E-3,1.221729536E-2,5.650499370E-3
8.905957700E2,-7.941242307E-3,1.252272818E-2,3.817904973E-3
8.910999412E2,-9.010255337E-3,3.665188793E-3,1.985310577E-3
8.916041123E2,-8.704823442E-3,2.596175298E-3,4.276053514E-3
8.921082836E2,-4.581485875E-3,-2.290742937E-3,7.788525894E-3
8.926124550E2,-9.621120058E-3,5.497782957E-3,1.832594397E-3
8.931166268E2,-6.108647678E-3,2.748891478E-3,6.719512399E-3
8.936207987E2,-9.315688163E-3,3.817904973E-3,2.290742937E-3
8.941249707E2,-4.734201822E-3,2.748891478E-3,1.053741761E-2
8.946291428E2,-6.108647678E-3,3.207040019E-3,3.817904973E-3
8.951333150E2,-7.635809598E-4,-3.054323897E-4,1.374445739E-3
8.956374873E2,1.679878100E-3,1.679878100E-3,2.138026757E-3
8.961416598E2,-3.054323897E-4,-4.581485991E-4,-1.069013379E-3
8.966458323E2,3.054323897E-4,-2.290742937E-3,-2.901607659E-3
8.971500049E2,1.832594397E-3,1.069013379E-3,4.734201822E-3
8.976541774E2,-4.123337101E-3,1.679878100E-3,-2.290742937E-3
8.981583499E2,3.817904973E-3,-7.024944760E-3,6.108647794E-4
8.986625222E2,3.970621154E-3,2.748891478E-3,9.315688163E-3
8.991666946E2,1.679878100E-3,-6.108647678E-3,-1.114828233E-2
8.996708664E2,-1.221729559E-3,2.748891478E-3,6.719512399E-3
9.001750384E2,4.734201822E-3,-8.704823442E-3,1.221729559E-3
9.006792102E2,9.162971983E-4,-4.276053514E-3,6.719512399E-3
9.011833819E2,1.069013379E-3,5.039634649E-3,-4.276053514E-3
9.016875534E2,2.290742844E-2,-1.496618707E-2,-9.162971750E-3
9.021917247E2,2.519817278E-2,-1.267544460E-2,2.596175298E-3
9.026958957E2,1.664606482E-2,-1.847865991E-2,-2.092211880E-2
9.032000665E2,1.847865991E-2,-9.926552884E-3,-7.483093534E-3
9.037042373E2,2.046396956E-2,-7.635809947E-3,-3.970621154E-3
9.042084080E2,1.313359290E-2,-1.237001177E-2,-2.626718581E-2
9.047125786E2,2.596175298E-2,-2.443459118E-3,3.970621154E-3
9.052167492E2,1.069013402E-2,9.162971983E-4,-2.794706449E-2
9.057209200E2,2.275471389E-2,2.596175298E-3,-1.069013379E-3
9.062250910E2,1.175914705E-2,-5.345067009E-3,-2.122755162E-2
9.067292622E2,1.893680729E-2,3.054323839E-3,3.054323839E-3
9.072334338E2,7.177661173E-3,-4.581485875E-3,-8.399390616E-3
9.077376057E2,2.901607659E-3,-1.435532235E-2,-3.665188793E-3
9.082417779E2,-5.803215317E-3,1.374445739E-3,-1.817322709E-2
9.087459504E2,-3.207040019E-3,1.023198478E-2,8.552107029E-3
9.092501232E2,-6.414080039E-3,-7.635809947E-3,6.108647794E-4
9.097542963E2,-7.941242307E-3,1.527161949E-4,8.093958721E-3
9.102584695E2,-1.007926930E-2,-3.054323897E-4,6.566796452E-3
9.107626426E2,-1.313359290E-2,8.399390616E-3,5.497782957E-3
9.112668158E2,-1.527161989E-2,5.192350596E-3,5.955931731E-3
9.117709890E2,-1.023198478E-2,8.093958721E-3,1.985310577E-2
9.122751622E2,-1.404988952E-2,1.527161949E-4,1.679878100E-3
9.127793351E2,-8.093958721E-3,8.857538924E-3,1.069013402E-2
9.132835077E2,-1.359174121E-2,1.191186346E-2,6.414080039E-3
9.137876802E2,-1.527161989E-2,1.985310577E-3,3.054323897E-4
9.142918525E2,-1.038470119E-2,3.970621154E-3,8.246674202E-3
9.147960247E2,-2.138026804E-2,2.168569900E-2,-6.108647794E-4
9.153001969E2,-7.330377586E-3,6.108647794E-4,1.710421406E-2
9.158043693E2,-4.428769462E-3,-1.374445739E-3,6.719512399E-3
9.163085417E2,-5.650499370E-3,1.527161920E-3,-3.359756200E-3
9.168127139E2,1.679878100E-3,-6.108647794E-4,1.084284950E-2
9.173168863E2,-6.414080039E-3,-4.734201822E-3,-0.000000000E0
9.178210586E2,-1.527161920E-3,-7.635809598E-4,4.734201822E-3
9.183252307E2,-3.359756200E-3,-6.719512399E-3,-3.207040019E-3
9.188294029E2,3.665188793E-3,-4.276053514E-3,5.650499370E-3
9.193335759E2,-2.290742937E-3,-3.817904973E-3,-3.512472380E-3
9.198377504E2,2.596175298E-3,-2.290742937E-3,3.207040019E-3
9.203419264E2,-1.679878100E-3,-9.162971983E-4,-2.901607659E-3
9.208461037E2,1.221729559E-3,-1.527161949E-4,1.832594397E-3
9.213502820E2,-6.108647794E-4,-6.108647794E-4,-4.581485991E-4
9.218544610E2,1.527161949E-4,-1.985310577E-3,1.527161949E-4
9.223586403E2,-1.374445739E-3,7.635809598E-4,-2.596175298E-3
9.228628200E2,7.635809598E-4,-2.443459118E-3,-1.221729559E-3
9.233670000E2,1.221729559E-3,4.581485991E-4,1.527161920E-3
9.238711802E2,-0.000000000E0,4.581485991E-4,-6.108647794E-4
9.243753605E2,-1.527161949E-4,4.428769462E-3,3.054323897E-4
9.248795411E2,1.527161949E-4,1.069013379E-3,7.635809598E-4
9.253837216E2,-4.734201822E-3,9.315688163E-3,-3.207040019E-3
9.258879024E2,-2.782489061E-1,1.847866029E-1,5.604684353E-2
9.263920832E2,-3.872882724E-1,1.219438791E0,-1.310610414E0
9.268962642E2,1.050687432E-1,2.249509573E0,-3.790415823E-1
9.274004454E2,-1.102610901E-1,6.009382010E-1,2.347247899E-1
9.279046271E2,1.093447953E-1,-5.543597788E-2,5.849030241E-2
9.284088092E2,6.276635826E-2,-6.032289565E-2,6.475166976E-2
