"Time (s)","Linear Acceleration x (m/s^2)","Linear Acceleration y (m/s^2)","Linear Acceleration z (m/s^2)"
0.000000000E0,8.792597055E-2,-1.324672699E-1,9.140396118E-2
1.424459530E-1,5.366242528E-1,1.816830635E-1,1.650395393E-1
6.424459530E-1,1.866786480E-1,1.497616768E-1,-2.492341995E-1
1.142445953E0,4.207390547E-1,8.979654312E-2,-2.113046646E-1
1.642445953E0,-2.925433815E-1,-9.340286255E-3,-6.649017334E-2
2.142445953E0,-1.623373479E-1,-2.197651863E-1,9.574031830E-2
2.642445953E0,-1.817336679E-2,1.130013466E-1,-2.311992645E-2
3.142445953E0,-3.386753798E-2,-3.401517868E-2,-3.449010849E-2
3.642445953E0,8.469432592E-3,5.153226852E-2,-2.500247955E-2
4.142445953E0,1.729956269E-2,8.323812485E-2,7.577419281E-3
4.642445953E0,8.154273033E-3,2.243232727E-2,5.887317657E-2
5.142445953E0,-2.548807859E-2,-1.337814331E-2,-1.780891418E-2
5.642445953E0,2.304080129E-2,-5.117368698E-2,4.081964493E-2
6.142445953E0,-6.164312363E-3,6.382703781E-2,-1.578760147E-2
6.642445953E0,1.390874386E-4,-5.452680588E-2,3.376054764E-2
7.142445953E0,1.720224321E-2,7.808685303E-2,7.498264313E-2
7.642445953E0,1.785099506E-2,3.293180466E-2,-2.043724060E-3
8.142445953E0,4.843629897E-3,-5.665731430E-2,1.884937286E-3
8.642445953E0,4.751853645E-3,2.515172958E-2,2.343654633E-3
9.142445953E0,-1.916786283E-2,-2.383661270E-2,-3.255939484E-2
9.642445953E0,-1.169230789E-2,5.640506744E-3,-2.544116974E-2
1.014244595E1,-8.998273313E-2,-3.046226501E-2,3.312110901E-3
1.064244595E1,-7.106333971E-3,1.991653442E-2,-5.598306656E-2
1.114244595E1,-1.423874497E-2,-1.831054688E-2,4.360675812E-3
1.164244595E1,-8.368688822E-2,-6.030082703E-3,-3.926944733E-2
1.214244595E1,-1.796126366E-3,-7.905483246E-3,1.794672012E-2
1.264244595E1,9.585261345E-3,2.995443344E-2,-5.141115189E-2
1.314244595E1,2.731174231E-3,-3.819084167E-2,3.323745728E-2
1.364244595E1,9.160250425E-3,-3.309726715E-3,6.093931198E-2
1.414244595E1,-2.442267537E-2,-1.187133789E-2,-2.138519287E-2
1.464244595E1,-1.344999671E-2,-2.609968185E-2,-8.911609650E-3
1.514244595E1,-1.193791628E-3,-2.847909927E-2,1.725339890E-2
1.564244595E1,-2.366513014E-3,1.621246338E-5,1.500129700E-2
1.614244595E1,4.458010197E-3,-4.328250885E-3,9.260177612E-3
1.664244595E1,-1.131477952E-2,9.209489822E-2,4.609441757E-2
1.714244595E1,-2.283781767E-3,-2.340888977E-2,2.936410904E-2
1.764244595E1,-2.809375525E-3,6.839752197E-2,-7.719516754E-3
1.814244595E1,-2.931807041E-1,-2.852735519E-1,3.490481377E-1
1.864244595E1,-5.547590554E-3,4.583091736E-1,-3.932709694E-1
1.914244595E1,-5.372509956E-1,2.054452896E-2,-2.795314789E-1
1.964244595E1,3.212813437E-1,-9.680414200E-2,1.610250473E-1
2.014244595E1,5.519267917E-1,-1.362347603E-1,3.000707626E-1
2.064244595E1,-1.190420866E0,-2.046653748E0,1.321855545E0
2.114244595E1,2.568686008E-1,9.384322166E-1,-7.044425011E-1
2.164244595E1,-1.518380880E0,-1.954340935E-1,-2.472209930E-2
2.214244595E1,-1.852303445E-1,4.442963600E-1,-1.801118851E-1
2.264244595E1,-4.253133535E-1,-3.384253979E-1,1.544904709E-1
2.314244595E1,1.291900873E-2,-1.518225670E-2,5.282688141E-2
2.364244595E1,-1.594100446E-1,-1.762168407E-1,8.527469635E-2
2.414244595E1,3.124013543E-3,5.446934700E-2,2.501773834E-2
2.464244595E1,4.601721466E-2,-1.079189777E-1,2.145767212E-4
2.514244595E1,7.266531885E-2,4.968523979E-2,-7.234573364E-3
2.564244595E1,-1.805241406E-2,6.333351135E-3,5.137348175E-2
2.614244595E1,-1.806275174E-2,1.615715027E-2,2.928733826E-3
2.664244595E1,-2.385487780E-2,-5.721473694E-2,-2.423954010E-2
2.714244595E1,-7.514001802E-3,-9.494066238E-3,-6.513595581E-4
2.764244595E1,9.216170758E-3,3.905367851E-2,-1.966857910E-2
2.814244595E1,1.395723224E-2,3.253078461E-2,-1.374053955E-2
2.864244595E1,-1.784204692E-2,-7.958030701E-2,4.991436005E-2
2.914244595E1,5.624219775E-4,4.525780678E-2,-2.771759033E-2
2.964244595E1,1.139119267E-4,3.614187241E-3,1.204395294E-2
3.014244595E1,4.370808601E-3,1.015305519E-2,-9.004592896E-3
3.064244595E1,1.235565543E-2,5.147433281E-2,-1.710796356E-2
3.114244595E1,2.081384510E-2,2.209663391E-3,2.126502991E-2
3.164244595E1,-9.620882571E-3,-1.256322861E-2,1.312732697E-2
3.214244595E1,1.714894176E-2,3.008532524E-2,1.246452332E-2
3.264244595E1,-1.925811172E-3,9.443283081E-3,1.543045044E-3
3.314244595E1,6.994158030E-3,-5.415439606E-3,3.761291504E-3
3.364244595E1,-9.283378720E-3,8.259534836E-3,8.329391479E-3
3.414244595E1,2.048462629E-4,1.288962364E-2,1.191425323E-2
3.464244595E1,-3.249943256E-5,-2.900075912E-2,2.246475220E-2
3.514244595E1,-1.341569424E-2,-6.794691086E-3,-8.467674255E-3
3.564244595E1,6.735725701E-2,4.344201088E-2,1.517295837E-3
3.614244595E1,1.303495467E-2,2.980828285E-2,1.000213623E-2
3.664244595E1,9.140068293E-2,-4.135346413E-2,-8.726119995E-4
3.714244595E1,2.832379937E-2,4.055047035E-2,-1.236438751E-2
3.764244595E1,-2.462089062E-3,3.444314003E-2,3.787040710E-3
3.814244595E1,-1.341311634E-2,1.324033737E-2,-8.887100220E-2
3.864244595E1,-2.073822916E-2,-1.499485970E-2,-4.255390167E-2
3.914244595E1,3.350272775E-3,3.433942795E-3,-8.495330811E-3
3.964244595E1,1.049309969E-2,-1.618742943E-2,-2.166748047E-3
4.014244595E1,-6.637202203E-2,-5.212974548E-2,9.275722504E-2
4.064244595E1,7.097021490E-2,-1.136302948E-2,2.399444580E-2
4.114244595E1,3.356351703E-2,5.304813385E-4,6.953239441E-3
4.164244595E1,-2.382311970E-2,-8.068799973E-3,-3.720474243E-2
4.214244595E1,-1.665804908E-2,7.853746414E-3,3.580093384E-3
4.264244595E1,-3.048820980E-2,-2.541208267E-2,-4.105567932E-3
4.314244595E1,2.316410840E-2,1.910829544E-2,-2.442169189E-2
4.364244595E1,-2.115000039E-3,-4.682993889E-2,-1.780509949E-2
4.414244595E1,-8.410387486E-2,-4.858732224E-3,5.700302124E-2
4.464244595E1,2.597442269E-2,-3.309257030E-1,2.066965103E-1
4.514244595E1,1.937795877E-1,4.282815456E-1,-1.332063675E-1
4.564244595E1,6.181740761E-2,1.823358536E-1,-1.975774765E-1
4.614244595E1,1.675915122E-1,1.488027573E-1,1.029682159E-2
4.664244595E1,8.979552984E-2,7.757425308E-3,2.148246765E-2
4.714244595E1,9.491086006E-3,5.814123154E-2,-8.844470978E-2
4.764244595E1,2.413511276E-2,1.111936569E-2,-2.436542511E-2
4.814244595E1,4.346996546E-2,3.147363663E-3,3.775215149E-2
4.864244595E1,-3.199750185E-2,2.962350845E-2,-3.044795990E-2
4.914244595E1,1.785761118E-2,7.842135429E-2,-4.333686829E-2
4.964244595E1,3.967106342E-3,-6.581735611E-2,4.784107208E-2
5.014244595E1,-2.224403620E-2,-2.145504951E-2,2.507495880E-2
5.064244595E1,-6.570160389E-3,5.456447601E-3,8.246421814E-3
5.114244595E1,-3.216660023E-2,-7.340621948E-2,2.861118317E-2
5.164244595E1,2.272868156E-2,4.282712936E-3,-3.940391541E-2
5.214244595E1,-2.136254311E-2,-2.445983887E-2,1.591682434E-2
5.264244595E1,-2.258211374E-2,-1.857352257E-2,-1.073455811E-2
5.314244595E1,5.064010620E-4,7.414817810E-4,-6.074619293E-2
5.364244595E1,-5.620718002E-5,1.706457138E-2,9.978294373E-3
5.414244595E1,-9.147524834E-3,-8.582830429E-3,1.853370667E-2
5.464244595E1,6.423282623E-2,1.280784607E-3,-1.056575775E-2
5.514244595E1,2.381747961E-2,-8.970499039E-3,-6.174564362E-2
5.564244595E1,-5.670309067E-3,4.016518593E-2,-8.497238159E-4
5.614244595E1,-5.988657475E-3,7.350444794E-4,-6.942081451E-2
5.664244595E1,4.146212339E-2,1.363444328E-2,1.080617905E-1
5.714244595E1,4.759955406E-2,-6.022405624E-2,8.448696136E-2
5.764244595E1,2.258622646E-2,-2.269041538E-1,7.247447968E-2
5.814244595E1,-2.383041382E-2,-1.911110878E-1,1.030759811E-1
5.864244595E1,-8.598858118E-2,3.994750977E-1,-1.437129974E-1
5.914244595E1,2.089118958E-2,2.010588646E-1,-5.838298798E-2
5.964244595E1,-2.045750618E-3,1.104021072E-1,-4.404544830E-2
6.014244595E1,-3.374779224E-2,-1.832914352E-2,2.393245697E-2
6.064244595E1,-3.199219704E-3,-4.423952103E-2,1.881885529E-2
6.114244595E1,-2.744710445E-2,-1.865243912E-2,-1.300048828E-2
6.164244595E1,-2.890062332E-2,6.438732147E-3,-4.460334778E-3
6.214244595E1,5.842447281E-4,9.566783905E-3,-1.771640778E-2
6.264244595E1,-1.619136333E-2,2.005290985E-2,-5.278491974E-2
6.314244595E1,-1.896905899E-2,3.347396851E-3,-9.800910950E-3
6.364244595E1,-4.947066307E-3,-5.169391632E-3,8.519172668E-3
6.414244595E1,1.097166538E-2,-1.312112808E-2,1.591873169E-2
6.464244595E1,1.102375984E-2,6.239414215E-3,2.447414398E-2
6.514244595E1,-7.481467724E-2,6.919384003E-3,6.894111633E-3
6.564244595E1,3.759098053E-2,2.591323853E-2,-8.915805817E-2
6.614244595E1,-2.087748051E-2,-1.547765732E-2,7.727622986E-3
6.664244595E1,7.787346840E-3,1.362323761E-2,-1.485157013E-2
6.714244595E1,2.321231365E-2,8.195400238E-3,3.913593292E-2
6.764244595E1,2.371561527E-2,8.269786835E-3,7.524490356E-4
6.814244595E1,2.116084099E-3,2.338886261E-3,-2.663612366E-2
6.864244595E1,1.346147060E-2,4.050779343E-2,9.114265442E-3
6.914244595E1,-1.183903217E-2,-1.247549057E-2,2.586174011E-2
6.964244595E1,1.063287258E-2,-2.127170563E-2,-1.275539398E-2
7.014244595E1,-3.709912300E-3,1.965284348E-2,1.293277740E-2
7.064244595E1,-3.577053547E-2,8.208751678E-3,-3.061580658E-2
7.114244595E1,2.719998360E-3,1.942682266E-2,4.540443420E-3
7.164244595E1,5.564808846E-3,-3.307104111E-2,3.903579712E-2
7.214244595E1,-2.554321289E-2,2.168607712E-2,1.967334747E-2
7.264244595E1,7.321476936E-3,1.441621780E-2,-2.220058441E-2
7.314244595E1,1.260602474E-2,2.205514908E-2,-9.240150452E-3
7.364244595E1,5.747199059E-3,-1.922941208E-2,1.000690460E-2
7.414244595E1,-1.670122147E-2,8.394241333E-3,2.356529236E-3
7.464244595E1,2.938985825E-3,2.237129211E-2,1.121425629E-2
7.514244595E1,4.860997200E-3,-4.895210266E-3,1.952171326E-3
7.564244595E1,-3.877794743E-2,-8.532238007E-2,4.262924194E-2
7.614244595E1,3.495335579E-2,-1.891994476E-2,2.638339996E-2
7.664244595E1,2.148151398E-3,-6.488800049E-3,-4.307746887E-3
7.714244595E1,1.793706417E-2,-6.353378296E-3,-6.636619568E-3
7.764244595E1,9.853839874E-4,-1.274442673E-2,3.685379028E-2
7.814244595E1,1.044392586E-3,3.644943237E-3,2.254009247E-2
7.864244595E1,-3.725528717E-3,1.341342926E-3,-1.089382172E-2
7.914244595E1,1.030409336E-2,-1.450824738E-2,2.348327637E-2
7.964244595E1,1.511192322E-2,1.115417480E-2,7.271766663E-3
8.014244595E1,-7.511734962E-3,-2.219104767E-2,8.993148804E-4
8.064244595E1,6.690025330E-3,3.831148148E-2,-3.173923492E-2
8.114244595E1,-2.211296558E-2,8.889675140E-3,-2.693939209E-2
8.164244595E1,-6.046378613E-2,2.796769142E-2,-1.540088654E-2
8.214244595E1,-2.166112661E-1,9.198164940E-2,5.014324188E-2
8.264244595E1,-1.840424538E-2,-1.535553932E-1,3.296947479E-2
8.314244595E1,-1.209839582E0,-1.152871609E0,1.476321220E0
8.364244595E1,-3.405928135E0,3.205620527E0,6.158699036E0
8.414244595E1,2.371403694E0,-5.345982313E-1,-2.062536955E0
8.464244595E1,-1.798982620E-1,-9.033465385E-2,-6.938636303E-1
8.514244595E1,1.961727142E-1,7.148075104E-2,-3.695049286E-1
8.564244595E1,-1.468095779E-1,-1.401650906E-1,-3.177518845E-1
8.614244595E1,-1.513671875E-1,-2.300233841E-1,-4.414637089E-1
8.664244595E1,-2.740392685E-1,-5.544192791E-1,-5.008664131E-1
8.714244595E1,-3.778028488E-1,8.406513929E-1,1.073910236E0
8.764244595E1,6.703729630E-1,6.856379509E-1,3.256976604E-1
8.814244595E1,1.921558380E-1,4.721014500E-1,4.045259953E-1
8.864244595E1,-5.365753174E-2,-2.229001522E-1,1.529974937E-1
8.914244595E1,1.148700714E-2,-3.495569229E-1,6.143093109E-2
8.964244595E1,-1.100950241E-1,3.067848682E-1,-2.582936287E-1
9.014244595E1,1.381435394E-1,9.484696388E-2,1.850552559E-1
9.064244595E1,1.149616241E-1,3.463523388E-1,-1.166322231E-1
9.114244595E1,-2.837371826E-2,-1.197023392E-1,4.396128654E-2
9.164244595E1,-1.996707916E-2,-8.607673645E-2,-4.997754097E-2
9.214244595E1,1.912879944E-2,-2.373147011E-2,2.549076080E-2
9.264244595E1,4.130935669E-2,-3.229451180E-2,1.174354553E-2
9.314244595E1,-1.524066925E-2,3.225803375E-3,-2.087688446E-2
9.364244595E1,-1.313591003E-2,-1.661992073E-2,-4.640579224E-3
9.414244595E1,-7.773399353E-3,-1.985144615E-2,-2.032756805E-3
9.464244595E1,2.406120300E-2,4.230833054E-2,-2.243685722E-2
9.514244595E1,-1.398563385E-2,-2.143788338E-2,5.123615265E-4
9.564244595E1,-1.877021790E-2,-1.036047935E-2,-8.480072021E-3
9.614244595E1,5.750656128E-3,-3.325223923E-3,8.425235748E-3
9.664244595E1,-1.578330994E-3,-2.282023430E-2,-2.427816391E-3
9.714244595E1,-5.102252960E-2,3.309464455E-2,1.108717918E-2
9.764244595E1,-5.453109741E-3,1.758646965E-2,-1.379323006E-2
9.814244595E1,-1.122760773E-2,-1.015472412E-2,2.260279655E-2
9.864244595E1,-2.078914642E-2,-2.947592735E-2,9.362459183E-3
9.914244595E1,-1.519775391E-2,1.282763481E-2,-1.214027405E-2
9.964244595E1,-7.260322571E-3,-9.532690048E-3,1.649856567E-3
1.001424460E2,-1.705646515E-2,3.562450409E-3,-3.945589066E-3
1.006424460E2,-2.770709991E-2,-1.660799980E-2,1.507377625E-2
1.011424460E2,4.393005371E-2,-1.685619354E-2,-2.852201462E-2
1.016424460E2,-5.198764801E-2,-1.149868965E-2,1.612019539E-2
1.021424460E2,-7.683753967E-3,-3.892636299E-2,-8.303165436E-3
1.026424460E2,9.415626526E-3,-4.073858261E-3,-3.376960754E-3
1.031424460E2,2.006816864E-2,-2.497506142E-2,1.556968689E-2
1.036424460E2,6.217956543E-4,1.304149628E-4,1.111292839E-2
1.041424460E2,2.816677094E-2,-3.157544136E-2,-2.410101891E-2
1.046424460E2,7.336616516E-3,1.607060432E-2,-1.858854294E-2
1.051424460E2,6.314277649E-3,-5.693888664E-2,-1.201844215E-2
1.056424460E2,-8.535385132E-4,2.077841759E-2,-8.608818054E-3
1.061424460E2,-1.592159271E-2,-1.545453072E-2,1.208710670E-2
1.066424460E2,1.630878448E-2,-1.112699509E-3,-4.621982574E-3
1.071424460E2,-8.619308472E-3,-2.125668526E-2,5.784034729E-4
1.076424460E2,3.793716431E-3,9.793281555E-3,-9.736299515E-3
1.081424460E2,-8.059883118E-2,-1.046862602E-1,-5.253815651E-2
1.086424460E2,1.573143005E-1,1.565253735E-2,3.372225761E-1
1.091424460E2,-8.793067932E-2,4.662311077E-2,-2.619855404E-1
1.096424460E2,3.012561798E-2,1.222646236E-2,6.239128113E-2
1.101424460E2,8.258819580E-3,3.778922558E-2,8.031320572E-2
1.106424460E2,-2.604579926E-2,1.360976696E-2,-4.877114296E-2
1.111424460E2,-9.932518005E-3,5.274689198E-2,1.003575325E-2
1.116424460E2,-3.666877747E-3,-1.269936562E-2,2.340364456E-2
1.121424460E2,-1.641559601E-2,-5.394411087E-2,2.840852737E-2
1.126424460E2,4.162788391E-2,-1.340126991E-2,-6.066083908E-3
1.131424460E2,-5.900192261E-2,-4.533481598E-2,1.085877419E-2
1.136424460E2,3.551006317E-2,3.854572773E-2,-1.409006119E-2
1.141424460E2,-5.893802643E-2,-9.216105938E-2,1.974749565E-2
1.146424460E2,2.852344513E-2,1.522922516E-2,-7.336139679E-4
1.151424460E2,-2.748394012E-2,-4.263448715E-2,2.928972244E-3
1.156424460E2,6.753921509E-3,5.027318001E-2,-2.605986595E-2
1.161424460E2,4.212379456E-3,-1.849174500E-3,2.236866951E-2
1.166424460E2,1.241111755E-2,4.217910767E-2,1.461625099E-2
1.171424460E2,-1.558303833E-3,-5.749821663E-3,-1.746797562E-2
1.176424460E2,9.384155273E-4,2.926468849E-3,-2.679967880E-2
1.181424460E2,4.342079163E-3,-5.183100700E-3,6.961655617E-2
1.186424460E2,3.954792023E-2,4.385709763E-3,-6.994700432E-2
1.191424460E2,-5.225753784E-2,-2.604389191E-2,-7.821798325E-3
1.196424460E2,5.547046661E-2,3.621816635E-3,3.551793098E-2
1.201424460E2,-5.824756622E-2,-3.030288219E-2,5.510520935E-2
1.206424460E2,-1.150321960E-2,1.246207952E-1,-2.283740044E-2
1.211424460E2,-3.437519073E-2,-5.964159966E-2,1.852726936E-2
1.216424460E2,2.155208588E-2,2.679300308E-2,-8.575677872E-3
1.221424460E2,4.070281982E-3,-1.062941551E-2,1.594257355E-2
1.226424460E2,-1.867008209E-2,4.504501820E-2,-7.606720924E-2
1.231424460E2,-4.433345795E-2,-2.404928207E-2,-1.343107224E-2
1.236424460E2,1.497745514E-2,1.204943657E-2,1.395940781E-3
1.241424460E2,-1.834964752E-2,-2.324283123E-2,8.866548538E-3
1.246424460E2,7.820129395E-3,-2.562129498E-2,-5.896091461E-3
1.251424460E2,2.011203766E-2,2.934753895E-2,-1.626992226E-2
1.256424460E2,-3.415679932E-2,-4.145526886E-2,7.924795151E-3
1.261424460E2,-1.009464264E-2,1.696074009E-2,-2.285957336E-3
1.266424460E2,-1.581287384E-2,6.502389908E-3,7.871627808E-3
1.271424460E2,-5.778312683E-3,1.307272911E-2,-5.352973938E-3
1.276424460E2,8.725166321E-3,5.631351471E-2,-3.236532211E-3
1.281424460E2,-6.964683533E-3,4.167950153E-2,-1.768302917E-2
1.286424460E2,2.369976044E-2,-2.225685120E-2,-2.579998970E-2
1.291424460E2,2.798271179E-2,2.379250526E-2,-8.347988129E-3
1.296424460E2,-4.862499237E-2,-5.222594738E-2,-2.194690704E-2
1.301424460E2,1.503944397E-3,-4.232811928E-2,7.464098930E-2
1.306424460E2,3.759956360E-2,2.214801311E-2,7.893800735E-3
1.311424460E2,5.227756500E-2,5.675184727E-2,-4.062461853E-2
1.316424460E2,9.955406189E-3,-4.021358490E-2,8.696293831E-2
1.321424460E2,3.097724915E-2,3.904926777E-2,3.754782677E-2
1.326424460E2,-4.617977142E-2,-2.801680565E-2,4.487681389E-2
1.331424460E2,-1.318168640E-2,1.977920532E-3,-3.453612328E-2
1.336424460E2,-3.826236725E-2,1.213884354E-2,-4.286360741E-2
1.341424460E2,1.107215881E-3,2.870583534E-2,5.014538765E-2
1.346424460E2,1.830101013E-3,-5.285847187E-2,3.725171089E-2
1.351424460E2,1.010227203E-2,-5.798697472E-3,-1.728606224E-2
1.356424460E2,-1.984405518E-2,-4.564189911E-2,-7.712459564E-2
1.361424460E2,2.019023895E-2,3.357994556E-2,7.480382919E-2
1.366424460E2,-1.103401184E-3,-3.962063789E-2,-6.264686584E-3
1.371424460E2,1.678276062E-2,-4.247426987E-4,-6.014823914E-2
1.376424460E2,4.113483429E-2,1.403880119E-2,6.257653236E-2
1.381424460E2,2.092075348E-2,1.748692989E-2,3.363251686E-2
1.386424460E2,-3.389072418E-2,-3.681898117E-3,-7.235288620E-3
1.391424460E2,-1.264286041E-2,-3.020644188E-3,-2.470564842E-2
1.396424460E2,-8.644104004E-3,-2.583658695E-2,8.812141418E-2
1.401424460E2,1.376628876E-2,3.866457939E-2,4.097914696E-2
1.406424460E2,-2.076816559E-2,5.824601650E-2,-8.862471581E-2
1.411424460E2,-9.490013123E-3,-4.113912582E-3,-2.108597755E-2
1.416424460E2,4.243850708E-3,3.862905502E-2,-3.056859970E-2
1.421424460E2,-1.144409180E-4,-3.236258030E-2,-1.871585846E-3
1.426424460E2,8.744239807E-3,-1.469814777E-2,-1.164388657E-2
1.431424460E2,8.859634399E-4,1.523077488E-2,7.760763168E-3
1.436424460E2,-9.940147400E-3,3.062415123E-2,1.365089417E-2
1.441424460E2,3.131389618E-2,1.285064220E-2,6.855940819E-2
1.446424460E2,1.263809204E-2,-3.245437145E-2,6.650042534E-2
1.451424460E2,-7.230758667E-3,1.280426979E-2,-6.272125244E-2
1.456424460E2,-2.714061737E-2,-1.886963844E-2,-2.513456345E-2
1.461424460E2,3.959369659E-2,7.783532143E-3,4.895925522E-3
1.466424460E2,2.694606781E-2,-1.775741577E-3,3.331518173E-2
1.471424460E2,-2.338409424E-2,-7.081747055E-3,-5.268526077E-2
1.476424460E2,-5.431175232E-3,6.174921989E-3,-7.907629013E-3
1.481424460E2,-1.758193970E-2,-2.841854095E-2,5.011320114E-3
1.486424460E2,1.734447479E-2,1.503431797E-2,-1.435518265E-3
1.491424460E2,-4.752159119E-3,-3.941893578E-3,1.304197311E-2
1.496424460E2,2.412128448E-2,2.582728863E-2,-2.137422562E-3
1.501424460E2,-9.036064148E-3,4.029393196E-3,1.053452492E-2
1.506424460E2,-6.581306458E-3,-9.959340096E-3,-5.662512779E-2
1.511424460E2,-4.180431366E-2,-4.315924644E-2,-5.695295334E-2
1.516424460E2,1.581287384E-2,2.821552753E-2,-2.274799347E-2
1.521424460E2,-2.677631378E-2,-5.897939205E-2,3.188395500E-2
1.526424460E2,-2.206420898E-2,1.944124699E-2,-5.439257622E-2
1.531424460E2,-1.718044281E-2,-1.542949677E-2,-4.871344566E-2
1.536424460E2,3.335475922E-2,1.209044456E-2,3.288340569E-2
1.541424460E2,-3.161430359E-3,-7.422709465E-2,-3.017210960E-2
1.546424460E2,-2.210998535E-2,2.262580395E-2,-3.486394882E-2
1.551424460E2,-2.206707001E-2,-3.112614155E-2,-3.744363785E-3
1.556424460E2,7.791519165E-4,2.722764015E-2,-1.370906830E-3
1.561424460E2,-9.849548340E-3,4.081845284E-3,1.102375984E-2
1.566424460E2,7.810592651E-4,5.560278893E-3,4.261255264E-3
1.571424460E2,3.401756287E-3,-9.199023247E-3,1.332473755E-2
1.576424460E2,3.226280212E-3,8.671879768E-3,-8.367776871E-3
1.581424460E2,-6.268501282E-3,-1.535248756E-2,-6.834030151E-3
1.586424460E2,4.906654358E-3,1.116585732E-2,-1.442313194E-2
1.591424460E2,-4.818916321E-3,-9.191036224E-4,-5.958795547E-3
1.596424460E2,-7.251739502E-3,-7.825970650E-3,-3.930091858E-3
1.601424460E2,-8.063316345E-3,1.260638237E-3,-1.222586632E-2
1.606424460E2,-1.422405243E-2,1.083815098E-2,-1.474881172E-2
1.611424460E2,4.743576050E-3,4.440188408E-3,1.117992401E-2
1.616424460E2,9.789466858E-3,1.254582405E-2,-1.065492630E-2
1.621424460E2,-4.550933838E-3,2.024412155E-3,-5.437850952E-3
1.626424460E2,-1.311206818E-2,-1.779127121E-2,8.183479309E-3
1.631424460E2,-6.924629211E-3,1.024746895E-2,-4.546713829E-2
1.636424460E2,1.858806610E-2,6.736278534E-3,2.458119392E-2
1.641424460E2,5.123138428E-3,-5.228519440E-4,2.261447906E-2
1.646424460E2,-1.178359985E-2,1.092028618E-2,1.235485077E-3
1.651424460E2,1.692771912E-3,3.075599670E-4,-1.511096954E-3
1.656424460E2,1.497650146E-2,-3.628730774E-3,8.816957474E-2
1.661424460E2,9.002685547E-3,2.463936806E-2,-3.664731979E-3
1.666424460E2,-2.056026459E-2,-1.550006866E-2,-1.585388184E-2
1.671424460E2,1.364612579E-2,2.372050285E-2,-3.126859665E-3
1.676424460E2,-1.813888550E-3,-1.078128815E-2,4.591703415E-3
1.681424460E2,-6.771087646E-3,1.991391182E-2,-6.294250488E-5
1.686424460E2,-1.640319824E-2,-1.425600052E-2,1.641273499E-3
1.691424460E2,1.489925385E-2,1.535773277E-2,1.017284393E-2
1.696424460E2,8.049964905E-3,6.995677948E-3,3.077220917E-2
1.701424460E2,-8.881568909E-3,-5.066156387E-3,-3.403115273E-2
1.706424460E2,-1.837635040E-2,-3.008341789E-2,1.060318947E-2
1.711424460E2,1.203060150E-2,1.221060753E-2,5.602836609E-3
1.716424460E2,9.593963623E-4,-3.308534622E-3,2.318358421E-2
1.721424460E2,-2.453517914E-2,4.589319229E-3,-2.267742157E-2
1.726424460E2,1.007080078E-3,3.063678741E-3,6.803274155E-3
1.731424460E2,5.178451538E-4,-4.079341888E-4,1.593089104E-2
1.736424460E2,1.953601837E-2,-8.766651154E-4,1.760792732E-2
1.741424460E2,1.314067841E-2,1.243257523E-2,2.023744583E-2
1.746424460E2,-2.394390106E-2,-1.192617416E-2,-4.022765160E-2
1.751424460E2,-9.380340576E-3,-1.734900475E-2,7.442712784E-3
1.756424460E2,1.159954071E-2,5.724668503E-3,1.915764809E-2
1.761424460E2,3.406524658E-3,-8.626222610E-3,2.251219749E-2
1.766424460E2,-1.910686493E-2,-9.915113449E-3,-6.083035469E-2
1.771424460E2,-1.494121552E-2,1.165008545E-2,-5.283856392E-2
1.776424460E2,-1.699733734E-2,-1.380825043E-2,-3.888511658E-2
1.781424460E2,-1.544952393E-3,-2.154588699E-3,-2.442097664E-2
1.786424460E2,-1.573467255E-2,4.632472992E-4,-1.590657234E-2
1.791424460E2,2.935409546E-3,5.737304688E-3,-2.395319939E-2
1.796424460E2,-1.336479187E-2,-6.976366043E-3,-2.771425247E-2
1.801424460E2,-3.043174744E-3,-3.265619278E-3,-1.686596870E-2
1.806424460E2,-6.978034973E-3,-2.157211304E-3,-1.281166077E-2
1.811424460E2,1.276969910E-3,2.815961838E-3,-1.648163795E-2
1.816424460E2,-4.293441772E-3,-2.449035645E-3,-2.784967422E-2
1.821424460E2,-1.666069031E-3,7.755756378E-4,1.632213593E-3
1.826424460E2,-4.897117615E-3,5.178689957E-3,-1.696920395E-2
1.831424460E2,5.352973938E-3,3.623962402E-4,1.710343361E-2
1.836424460E2,8.786201477E-3,-5.985498428E-3,1.078963280E-2
1.841424460E2,-5.622863770E-3,-1.375913620E-3,-8.590459824E-3
1.846424460E2,-5.429267883E-3,-1.468420029E-3,-1.293230057E-2
1.851424460E2,-5.693435669E-4,-5.388975143E-3,-1.041221619E-2
1.856424460E2,4.477500916E-3,-2.801418304E-4,6.870985031E-3
1.861424460E2,-3.001213074E-3,6.357908249E-3,-2.880096436E-3
1.866424460E2,-2.999305725E-3,5.778789520E-3,-6.069421768E-3
1.871424460E2,9.123802185E-3,-1.160717010E-2,1.419758797E-2
1.876424460E2,2.377510071E-3,-1.854896545E-3,-4.923343658E-4
1.881424460E2,-1.990318298E-3,-1.370906830E-4,-4.364728928E-3
1.886424460E2,-1.546859741E-3,-4.262685776E-3,-9.946584702E-3
1.891424460E2,3.978729248E-3,2.328634262E-3,1.074647903E-2
1.896424460E2,2.285957336E-3,3.216981888E-3,6.995916367E-3
1.901424460E2,-1.608562469E-2,-6.292104721E-3,-1.881074905E-2
1.906424460E2,-3.079414368E-3,-3.404378891E-3,-3.853321075E-3
1.911424460E2,5.938529968E-3,1.208424568E-2,1.696467400E-2
1.916424460E2,1.786613464E-2,-2.263808250E-2,1.675965786E-1
1.921424460E2,3.672313690E-2,-2.368474007E-2,9.609937668E-3
1.926424460E2,4.596710205E-3,2.729892731E-3,2.765274048E-2
1.931424460E2,4.046440125E-3,-5.129814148E-3,1.008176804E-2
1.936424460E2,2.644538879E-3,2.110004425E-4,3.560781479E-3
1.941424460E2,-5.998611450E-4,2.193212509E-3,4.028797150E-3
1.946424460E2,1.511573792E-3,9.498596191E-4,-2.138614655E-3
1.951424460E2,4.944801331E-3,8.425951004E-3,-6.287097931E-3
1.956424460E2,4.167556763E-3,-2.731561661E-3,-4.294633865E-3
1.961424460E2,2.888679504E-3,-4.881858826E-3,4.839897156E-4
1.966424460E2,6.232261658E-3,-9.269714355E-4,-2.041339874E-3
1.971424460E2,6.529808044E-3,5.722522736E-3,2.436637878E-4
1.976424460E2,-2.425193787E-3,1.421213150E-3,7.805824280E-4
1.981424460E2,-6.531715393E-3,2.736330032E-3,2.975940704E-3
1.986424460E2,7.731437683E-3,-3.565073013E-3,-7.604360580E-3
1.991424460E2,-4.198074341E-3,-4.075288773E-3,-1.559257507E-4
1.996424460E2,-2.263069153E-3,3.977775574E-3,3.939628601E-3
2.001424460E2,-4.234313965E-3,-7.713317871E-3,3.484725952E-3
2.006424460E2,4.975318909E-3,-4.101991653E-3,-1.660585403E-3
2.011424460E2,-1.173019409E-3,8.203268051E-3,-2.337455750E-3
2.016424460E2,-6.475448608E-4,1.666307449E-3,-7.722377777E-4
2.021424460E2,-7.848739624E-4,-6.109476089E-3,-1.556873322E-4
2.026424460E2,2.822875977E-4,1.061677933E-3,3.606081009E-3
2.031424460E2,3.046989441E-3,-1.013278961E-4,2.992868423E-3
2.036424460E2,2.333641052E-3,1.034021378E-3,1.526355743E-3
2.041424460E2,-1.772880554E-3,4.622936249E-4,1.558065414E-3
2.046424460E2,-4.776954651E-3,-7.116079330E-3,-2.616167068E-3
2.051424460E2,9.698867798E-4,1.528263092E-3,3.170251846E-3
2.056424460E2,-2.670288086E-4,1.794338226E-3,7.107257843E-4
2.061424460E2,-2.140998840E-3,-6.030321121E-3,3.921747208E-3
2.066424460E2,4.069328308E-3,3.496408463E-3,-1.566648483E-3
2.071424460E2,-5.557060242E-3,-6.879568100E-3,-1.165151596E-3
2.076424460E2,-2.181053162E-3,-9.673118591E-3,2.327442169E-3
2.081424460E2,1.325607300E-4,6.063222885E-3,-1.662254333E-3
2.086424460E2,2.394676208E-3,1.198291779E-3,2.737045288E-4
2.091424460E2,5.645751953E-4,3.664493561E-4,-5.437374115E-3
2.096424460E2,-2.894401550E-3,-5.442380905E-3,5.390644073E-4
2.101424460E2,-9.536743164E-4,-2.965211868E-3,1.251697540E-4
2.106424460E2,1.382827759E-3,-1.399517059E-4,2.384901047E-3
2.111424460E2,-1.526832581E-3,-2.356529236E-3,2.118587494E-3
2.116424460E2,9.431838989E-4,4.447698593E-3,-1.520156860E-3
2.121424460E2,-2.311706543E-3,-4.451751709E-3,-9.148120880E-4
2.126424460E2,-5.290031433E-3,-9.708404541E-3,-1.610040665E-3
2.131424460E2,-2.190589905E-3,-2.373933792E-3,5.094289780E-3
2.136424460E2,-3.881454468E-4,1.814126968E-3,1.375913620E-3
2.141424460E2,-3.242492676E-5,3.755331039E-3,8.122920990E-4
2.146424460E2,2.118110657E-3,1.348972321E-3,3.924369812E-4
2.151424460E2,-2.565383911E-4,-6.302595139E-3,7.581710815E-5
2.156424460E2,-1.482009888E-3,-3.346920013E-3,1.438379288E-3
2.161424460E2,-1.482963562E-3,-1.319646835E-3,2.653598785E-3
2.166424460E2,1.456260681E-3,-1.537799835E-4,4.024505615E-4
2.171424460E2,-3.437995911E-3,-3.031969070E-3,-8.088827133E-3
2.176424460E2,-1.525783539E-2,-2.997851372E-2,2.378082275E-2
2.181424460E2,8.616542816E-2,-9.068965912E-3,1.823341846E-1
2.186424460E2,6.108570099E-2,-4.627943039E-3,1.512324810E-1
2.191424460E2,1.820278168E-2,7.493972778E-3,4.208946228E-2
2.196424460E2,4.719734192E-3,-2.313852310E-3,3.483080864E-2
2.201424460E2,-5.712509155E-4,-5.719661713E-4,8.630990982E-3
2.206424460E2,-4.271507263E-3,-2.209186554E-3,7.961988449E-3
2.211424460E2,-3.472328186E-3,-2.508878708E-3,2.718687057E-3
2.216424460E2,-3.909111023E-3,1.824378967E-3,-8.973121643E-3
2.221424460E2,-1.351356506E-3,3.001689911E-4,-8.456945419E-3
2.226424460E2,2.842903137E-3,2.377748489E-3,-7.783174515E-3
2.231424460E2,-5.316734314E-3,-8.921623230E-4,-3.177404404E-3
2.236424460E2,-4.878997803E-3,-5.482196808E-3,-1.278162003E-3
2.241424460E2,-7.123947144E-4,-1.508951187E-3,-1.570940018E-3
2.246424460E2,-3.377914429E-3,-5.353689194E-3,-1.383829117E-2
2.251424460E2,-2.173423767E-3,-2.106904984E-3,-1.513123512E-2
2.256424460E2,-6.008148193E-5,-1.019239426E-3,4.625320435E-5
2.261424460E2,4.689216614E-3,-7.486343384E-5,6.088018417E-3
2.266424460E2,-6.358146667E-3,-1.504659653E-3,1.187348366E-2
2.271424460E2,5.000114441E-3,1.720666885E-3,8.573293686E-3
2.276424460E2,-8.211135864E-4,5.165338516E-3,8.596658707E-3
2.281424460E2,8.585929871E-3,-3.417730331E-3,2.406120300E-3
2.286424460E2,9.547233582E-3,3.429174423E-3,-2.823352814E-3
2.291424460E2,-4.716873169E-3,-2.697706223E-3,8.194446564E-3
2.296424460E2,-7.095336914E-4,-4.005193710E-3,1.902461052E-2
2.301424460E2,9.034156799E-3,1.099443436E-2,8.126974106E-3
2.306424460E2,-2.436637878E-3,-2.590179443E-2,1.087117195E-2
2.311424460E2,8.679389954E-3,2.200365067E-3,3.162622452E-3
2.316424460E2,-7.254600525E-3,1.013278961E-4,1.314091682E-2
2.321424460E2,2.412796021E-4,2.338266373E-2,6.853580475E-3
2.326424460E2,-1.571750641E-2,-4.461860657E-2,1.759076118E-2
2.331424460E2,1.791477203E-2,5.745291710E-2,-8.327960968E-4
2.336424460E2,4.198074341E-3,-2.664065361E-2,1.259636879E-2
2.341424460E2,2.286911011E-3,1.335859299E-2,1.318764687E-2
2.346424460E2,-1.206111908E-2,-3.915548325E-3,4.942178726E-3
2.351424460E2,2.206134796E-2,1.587080956E-2,2.100706100E-3
2.356424460E2,-2.130794525E-2,-6.524085999E-3,-7.035732269E-4
2.361424460E2,7.606792450E-2,-6.317019463E-2,-5.459713936E-2
2.366424460E2,6.363773346E-2,3.940129280E-2,-2.344298363E-2
2.371424460E2,6.796264648E-2,2.424001694E-3,-2.922534943E-3
2.376424460E2,1.030664444E-1,4.527330399E-3,-2.965474129E-2
2.381424460E2,1.988983154E-2,-1.797437668E-3,-1.618170738E-2
2.386424460E2,-2.937889099E-2,3.302001953E-2,3.891444206E-2
2.391424460E2,5.712127686E-2,9.920239449E-2,-1.977801323E-2
2.396424460E2,2.003097534E-2,-1.419246197E-1,-1.791048050E-2
2.401424460E2,2.272720337E-1,-7.303953171E-3,-1.247489452E-1
2.406424460E2,-1.050529480E-1,1.481461525E-2,3.706192970E-2
2.411424460E2,-1.605577469E-1,-1.810145378E-2,-1.580364704E-1
2.416424460E2,-6.255149841E-2,1.017117500E-2,-2.007992268E-1
2.421424460E2,-3.290843964E-2,-7.911682129E-3,-8.821725845E-3
2.426424460E2,-3.348731995E-2,6.138253212E-2,-7.308697701E-2
2.431424460E2,2.520847321E-2,5.450773239E-2,2.368569374E-2
2.436424460E2,1.184272766E-2,1.086132526E-1,-2.641677856E-2
2.441424460E2,-1.016712189E-2,1.439025402E-1,-5.547451973E-2
2.446424460E2,-1.092977524E-1,1.001317501E-1,-1.846604347E-1
2.451424460E2,-3.127193451E-2,1.209950447E-1,-3.166508675E-2
2.456424460E2,4.422187805E-2,1.865355968E-1,-7.274961472E-2
2.461424460E2,6.742382050E-2,9.430336952E-2,-1.500654221E-2
2.466424460E2,-2.627563477E-2,-3.522753716E-2,8.631658554E-2
2.471424460E2,3.420734406E-2,2.504324913E-2,-8.980512619E-2
2.476424460E2,3.541851044E-2,-1.420156956E-1,-1.738739014E-2
2.481424460E2,-4.756069183E-2,-8.135747910E-2,-2.616262436E-2
2.486424460E2,-2.763843536E-2,-3.531479836E-2,2.928495407E-2
2.491424460E2,-6.832122803E-2,-1.344044209E-1,5.244493484E-2
2.496424460E2,-4.463291168E-2,-1.148524284E-1,-2.689599991E-2
2.501424460E2,-8.454418182E-2,-2.440402508E-1,-2.609825134E-2
2.506424460E2,5.037307739E-3,5.942010880E-2,1.421165466E-2
2.511424460E2,-5.003738403E-2,-1.803572178E-1,1.130628586E-2
2.516424460E2,-2.325439453E-2,-7.162976265E-2,1.212978363E-2
2.521424460E2,-1.277351379E-2,-9.233951569E-4,4.317092896E-2
2.526424460E2,6.827449799E-2,2.187943459E-2,-6.280183792E-2
2.531424460E2,6.242752075E-3,-6.137108803E-2,-1.626634598E-2
2.536424460E2,4.341602325E-2,7.350683212E-3,-4.684305191E-2
2.541424460E2,-1.902008057E-2,-5.863189697E-2,3.403425217E-2
2.546424460E2,-1.094722748E-2,3.567433357E-2,-1.259279251E-2
2.551424460E2,7.867813110E-3,-7.901048660E-2,1.740598679E-2
2.556424460E2,1.808452606E-2,9.069085121E-2,-1.667976379E-2
2.561424460E2,-6.963729858E-3,-2.889776230E-2,2.447462082E-2
2.566424460E2,-2.766323090E-2,-3.312563896E-2,1.109004021E-2
2.571424460E2,-4.019546509E-2,1.454346180E-1,2.438521385E-2
2.576424460E2,-6.562995911E-2,-1.201951504E-1,1.607894897E-3
2.581424460E2,-1.059532166E-3,2.453327179E-4,-2.632212639E-2
2.586424460E2,-5.292892456E-4,-6.766676903E-2,-9.978055954E-3
2.591424460E2,-3.271102905E-2,-1.380896568E-2,7.378578186E-3
2.596424460E2,-5.692481995E-3,-2.638792992E-2,-6.092309952E-3
2.601424460E2,1.506137848E-2,-5.139732361E-2,-2.465724945E-2
2.606424460E2,4.228591919E-2,5.352497101E-3,5.178785324E-2
2.611424460E2,2.032947540E-2,-5.792498589E-2,3.727412224E-2
2.616424460E2,-1.489639282E-2,7.965946198E-2,-4.685616493E-2
2.621424460E2,-3.246784210E-2,-3.292775154E-2,-5.316734314E-5
2.626424460E2,2.631282806E-2,-5.689454079E-2,1.035969257E-1
2.631424460E2,-5.515098572E-3,-6.802201271E-2,6.028699875E-2
2.636424460E2,-1.816749573E-3,3.090739250E-2,-2.722883224E-2
2.641424460E2,1.495361328E-3,8.848142624E-2,-4.476547241E-2
2.646424460E2,-1.248836517E-2,-9.228467941E-2,9.637284279E-2
2.651424460E2,2.837371826E-2,2.767062187E-2,8.130788803E-3
2.656424460E2,-5.364513397E-2,-1.285302639E-1,2.587580681E-2
2.661424460E2,1.476573944E-2,-2.850770950E-3,-3.531384468E-2
2.666424460E2,-7.792472839E-3,-7.121562958E-2,-9.098291397E-3
2.671424460E2,-1.505565643E-2,8.044195175E-2,6.190061569E-3
2.676424460E2,-1.912307739E-2,-1.298904419E-3,1.961159706E-2
2.681424460E2,1.125526428E-2,2.330493927E-2,1.654362679E-2
2.686424460E2,-8.378028870E-3,-2.602171898E-2,1.200914383E-3
2.691424460E2,7.800102234E-3,-7.339835167E-2,5.151844025E-2
2.696424460E2,4.594326019E-2,9.266304970E-2,1.328525543E-1
2.701424460E2,4.669666290E-2,-7.600021362E-2,4.464745522E-2
2.706424460E2,-1.436138153E-2,-2.150464058E-2,-5.626487732E-2
2.711424460E2,3.825187683E-3,-3.072977066E-3,-6.129622459E-2
2.716424460E2,-1.272201538E-3,-2.068591118E-2,7.067871094E-2
2.721424460E2,2.217006683E-2,7.379770279E-3,9.731364250E-2
2.726424460E2,-3.168392181E-2,-4.869389534E-2,-5.659818649E-3
2.731424460E2,1.992321014E-2,3.150177002E-2,-2.341294289E-2
2.736424460E2,2.832412720E-4,-3.596472740E-2,-1.685357094E-2
2.741424460E2,1.282882690E-2,4.390954971E-3,-2.281308174E-2
2.746424460E2,4.345512390E-2,-4.451012611E-2,-6.577014923E-3
2.751424460E2,4.877090454E-2,6.515479088E-2,2.416753769E-2
2.756424460E2,-5.466079712E-2,-3.274559975E-2,-4.002761841E-2
2.761424460E2,1.309871674E-2,-4.779815674E-2,-4.925608635E-2
2.766424460E2,3.074359894E-2,-8.680391312E-2,5.872774124E-2
2.771424460E2,3.116416931E-2,-6.620144844E-2,1.443493366E-1
2.776424460E2,-5.169200897E-2,-8.652186394E-2,-5.389308929E-2
2.781424460E2,-1.643276215E-2,-1.863551140E-2,-4.703569412E-2
2.786424460E2,8.725166321E-3,-7.826256752E-2,3.832006454E-2
2.791424460E2,4.460048676E-2,-4.104018211E-2,4.749107361E-2
2.796424460E2,-2.810573578E-2,-7.228589058E-2,-1.071188450E-1
2.801424460E2,-3.350925446E-2,2.514839172E-3,-5.697083473E-2
2.806424460E2,2.182292938E-2,-3.359484673E-2,2.393770218E-2
2.811424460E2,-1.998615265E-2,7.632780075E-2,1.348783970E-1
2.816424460E2,1.037883759E-2,7.059597969E-2,2.753043175E-2
2.821424460E2,-3.076076508E-2,8.821129799E-2,-1.728987694E-2
2.826424460E2,8.590793610E-2,1.327910423E-1,4.659008980E-2
2.831424460E2,3.845787048E-2,4.003071785E-2,2.151012421E-2
2.836424460E2,5.809688568E-2,5.180907249E-2,-1.883387566E-2
2.841424460E2,-1.994323730E-2,-4.013562202E-2,-8.216381073E-2
2.846424460E2,-1.772594452E-2,-7.711815834E-2,-5.554962158E-2
2.851424460E2,5.002403259E-2,-5.453038216E-2,6.076335907E-2
2.856424460E2,2.374744415E-2,5.890560150E-2,5.831384659E-2
2.861424460E2,7.775306702E-3,1.393024921E-1,4.498314857E-2
2.866424460E2,-5.082607269E-2,1.129484177E-2,1.639842987E-2
2.871424460E2,-2.150535583E-3,2.173042297E-2,1.202583313E-2
2.876424460E2,-3.642654419E-2,-1.995015144E-2,-1.950120926E-2
2.881424460E2,-1.448440552E-2,-5.845522881E-2,-5.913734436E-3
2.886424460E2,-1.496219635E-2,1.238179207E-2,-5.358934402E-2
2.891424460E2,-1.533222198E-2,-5.429196358E-2,2.126884460E-2
2.896424460E2,1.374340057E-2,1.578671932E-1,1.401996613E-2
2.901424460E2,-2.576732635E-2,-2.746176720E-2,-1.572275162E-2
2.906424460E2,-5.298614502E-3,7.839202881E-3,-2.236795425E-2
2.911424460E2,-3.162384033E-3,5.605721474E-2,-6.235122681E-3
2.916424460E2,-2.007675171E-2,-7.110261917E-2,-2.687454224E-2
2.921424460E2,6.718635559E-3,-2.289795876E-2,-1.823186874E-2
2.926424460E2,-2.701187134E-2,-3.189706802E-2,-1.405858994E-2
2.931424460E2,-4.189682007E-2,-5.606055260E-2,-1.056814194E-2
2.936424460E2,-2.406024933E-2,-6.299281120E-2,-1.360988617E-2
2.941424460E2,-2.483367920E-2,7.119178772E-4,9.975910187E-3
2.946424460E2,-1.114845276E-3,-1.919388771E-2,9.932994843E-3
2.951424460E2,6.608009338E-3,-1.226282120E-2,7.324218750E-4
2.956424460E2,-2.572822571E-2,-2.410483360E-2,-8.365631104E-3
2.961424460E2,-1.428318024E-2,5.521893501E-2,-4.589080811E-3
2.966424460E2,1.577091217E-2,-3.239607811E-2,-3.501892090E-3
2.971424460E2,1.240539551E-2,2.926087379E-2,-1.998186111E-2
2.976424460E2,-3.495788574E-2,3.989696503E-3,3.878831863E-2
2.981424460E2,1.069545746E-2,2.202057838E-2,6.569385529E-3
2.986424460E2,1.047897339E-2,8.576226234E-2,-2.596664429E-2
2.991424460E2,3.733634949E-3,-3.589391708E-3,2.952337265E-2
2.996424460E2,1.738643646E-2,7.542157173E-2,-3.595209122E-2
3.001424460E2,-2.094841003E-2,-3.879857063E-2,5.180835724E-3
3.006424460E2,1.758670807E-2,5.275869370E-2,-1.617956161E-2
3.011424460E2,7.644653320E-3,-4.435801506E-2,8.473396301E-4
3.016424460E2,4.708957672E-2,6.279969215E-2,-3.437089920E-2
3.021424460E2,-6.614685059E-3,-4.899239540E-2,-9.587764740E-3
3.026424460E2,1.929092407E-2,4.660558701E-2,8.667945862E-3
3.031424460E2,1.959133148E-2,6.890201569E-2,1.864004135E-2
3.036424460E2,1.421260834E-2,-1.838636398E-2,8.430004120E-3
3.041424460E2,4.040718079E-3,3.334569931E-2,1.464223862E-2
3.046424460E2,-2.397918701E-2,-1.502037048E-3,1.304054260E-2
3.051424460E2,8.744239807E-3,-5.778551102E-3,-8.647441864E-3
3.056424460E2,2.079963684E-3,-1.728582382E-2,-4.453182220E-3
3.061424460E2,-1.789093018E-2,-7.251501083E-3,9.860992432E-3
3.066424460E2,3.149032593E-3,3.197669983E-3,3.462314606E-3
3.071424460E2,7.242202759E-3,1.865506172E-2,-2.053737640E-3
3.076424460E2,-4.250526428E-3,-1.524114609E-2,3.328323364E-3
3.081424460E2,3.204345703E-3,2.901339531E-2,-2.222537994E-2
3.086424460E2,-6.741523743E-3,-2.729296684E-2,6.028652191E-3
3.091424460E2,1.706600189E-2,3.091788292E-2,-5.377769470E-3
3.096424460E2,-3.084182739E-3,1.194548607E-2,-5.416870117E-3
3.101424460E2,-1.281833649E-2,-1.355195045E-2,-4.580020905E-3
3.106424460E2,4.511833191E-3,2.919435501E-3,-2.327489853E-2
3.111424460E2,-3.650665283E-3,1.807928085E-2,-6.043910980E-3
3.116424460E2,-2.259254456E-3,-6.500959396E-3,-1.543998718E-3
3.121424460E2,5.919456482E-3,5.396127701E-3,-5.584716797E-3
3.126424460E2,-1.238346100E-2,-1.449537277E-2,4.510402679E-3
3.131424460E2,6.170272827E-4,-2.462625504E-3,-6.153583527E-3
3.136424460E2,-9.601593018E-3,-9.012460709E-3,-9.978771210E-3
3.141424460E2,3.810882568E-3,4.158258438E-3,1.073789597E-2
3.146424460E2,-3.022193909E-3,-3.237724304E-3,-6.129741669E-3
3.151424460E2,-1.584053040E-3,1.776456833E-3,-1.170969009E-2
3.156424460E2,-5.230903625E-3,-9.757757187E-3,-1.076841354E-2
3.161424460E2,-1.713752747E-3,4.005908966E-3,-1.101541519E-2
3.166424460E2,-1.988887787E-2,-1.904249191E-3,-1.100587845E-2
3.171424460E2,-7.009506226E-4,1.113414764E-4,-1.356506348E-2
3.176424460E2,4.010200500E-3,3.257036209E-3,-3.464221954E-3
3.181424460E2,-4.141807556E-3,3.557205200E-3,5.812644958E-4
3.186424460E2,-4.321098328E-3,-4.223823547E-3,-1.140785217E-2
3.191424460E2,-5.884170532E-4,-4.865407944E-3,-7.311344147E-3
3.196424460E2,-7.751464844E-3,2.644062042E-4,-1.168584824E-2
3.201424460E2,1.551532745E-2,2.743959427E-3,4.460811615E-3
3.206424460E2,7.099151611E-3,1.381397247E-3,2.436304092E-2
3.211424460E2,-8.792877197E-3,-4.930496216E-3,-4.973411560E-4
3.216424460E2,1.424312592E-2,3.507137299E-4,3.104686737E-3
3.221424460E2,6.781578064E-3,-2.943277359E-3,-4.631519318E-3
3.226424460E2,-5.101203918E-3,-5.013942719E-4,9.077072144E-3
3.231424460E2,1.242923737E-2,8.365869522E-3,3.591823578E-2
3.236424460E2,6.178188324E-2,-2.120971680E-2,2.083745003E-1
3.241424460E2,6.182384491E-2,-1.473116875E-2,1.258387566E-1
3.246424460E2,1.430702209E-2,-3.116130829E-4,3.902530670E-2
3.251424460E2,5.257606506E-3,-5.164861679E-3,1.924800873E-2
3.256424460E2,1.634597778E-3,5.271434784E-4,1.086378098E-2
3.261424460E2,3.779411316E-3,3.766298294E-3,1.557826996E-3
3.266424460E2,5.925178528E-3,-3.225088120E-3,3.221511841E-3
3.271424460E2,1.101493835E-3,3.157615662E-3,2.810001373E-3
3.276424460E2,-1.288890839E-2,-5.908250809E-3,3.538608551E-3
3.281424460E2,-2.945899963E-3,9.756565094E-3,-2.871036530E-3
3.286424460E2,2.429008484E-3,1.636147499E-2,-5.104541779E-3
3.291424460E2,-3.895759583E-3,-1.462817192E-2,1.248836517E-2
3.296424460E2,6.689071655E-3,-1.478195190E-5,-5.892276764E-3
3.301424460E2,-2.365112305E-4,-5.232572556E-3,2.461910248E-3
3.306424460E2,-3.891944885E-3,1.413488388E-2,2.047061920E-3
3.311424460E2,-5.282402039E-3,1.873731613E-3,2.275943756E-3
3.316424460E2,-7.331848145E-3,-8.005380630E-3,-7.114410400E-4
3.321424460E2,9.643554688E-3,-3.279447556E-3,-5.335330963E-3
3.326424460E2,-6.095886230E-3,-5.092382431E-3,3.914833069E-3
3.331424460E2,8.833885193E-3,3.321409225E-3,-1.047754288E-2
3.336424460E2,-2.425193787E-3,-8.893728256E-3,2.215385437E-3
3.341424460E2,-1.313209534E-3,-1.077413559E-3,2.927780151E-3
3.346424460E2,-9.889602661E-4,-8.434534073E-3,7.724761963E-5
3.351424460E2,1.261711121E-3,3.444910049E-3,6.328582764E-3
3.356424460E2,7.166862488E-3,-9.021997452E-3,-7.801055908E-3
3.361424460E2,-2.520561218E-3,4.106760025E-3,1.283168793E-3
3.366424460E2,-1.050949097E-3,-5.079746246E-3,-4.258155823E-4
3.371424460E2,-3.537178040E-3,-8.514404297E-3,6.765365601E-3
3.376424460E2,-7.704734802E-3,5.624294281E-3,4.689693451E-3
3.381424460E2,-4.453659058E-4,-7.284879684E-3,-3.981113434E-3
3.386424460E2,2.298355103E-3,4.394054413E-4,-2.187728882E-3
3.391424460E2,-3.991127014E-3,3.504753113E-5,-3.125667572E-3
3.396424460E2,1.835823059E-3,-4.081964493E-3,-4.282951355E-3
3.401424460E2,-1.998901367E-3,-1.521348953E-3,-1.539707184E-3
3.406424460E2,-1.576423645E-3,-3.833770752E-4,3.885269165E-3
3.411424460E2,2.021789551E-4,-3.790855408E-5,-5.183219910E-4
3.416424460E2,-5.973815918E-3,3.360033035E-3,6.464958191E-3
3.421424460E2,-5.974769592E-3,5.774736404E-3,1.063346863E-4
3.426424460E2,-8.418083191E-3,-3.240108490E-4,4.730701447E-3
3.431424460E2,-6.418228149E-4,-8.121252060E-3,-4.143714905E-3
3.436424460E2,4.196166992E-5,-2.338171005E-3,1.529216766E-3
3.441424460E2,2.587318420E-3,-1.331329346E-3,1.616477966E-3
3.446424460E2,3.290176392E-4,-2.912282944E-3,-1.185894012E-3
3.451424460E2,-2.795219421E-3,-2.143144608E-3,8.316040039E-4
3.456424460E2,1.268386841E-4,3.655195236E-3,8.115768433E-4
3.461424460E2,-5.208015442E-3,-4.400253296E-3,-3.652095795E-3
3.466424460E2,9.151077271E-2,-2.461695671E-2,1.162841320E-1
3.471424460E2,7.804393768E-2,-2.992796898E-2,1.436488628E-1
3.476424460E2,1.217126846E-1,1.757144928E-4,2.899558544E-1
3.481424460E2,8.127880096E-2,1.855778694E-2,1.804242134E-1
3.486424460E2,2.903175354E-2,1.008963585E-2,5.731654167E-2
3.491424460E2,1.361274719E-2,5.503416061E-3,2.101612091E-2
3.496424460E2,-2.462387085E-3,-4.378795624E-3,-4.077434540E-3
3.501424460E2,-5.158424377E-3,-2.027988434E-3,-1.778817177E-2
3.506424460E2,-4.612922668E-3,-2.706050873E-4,-1.608490944E-2
3.511424460E2,6.910324097E-3,9.396553040E-3,-1.093411446E-2
3.516424460E2,-1.678466797E-4,4.879713058E-3,-4.949569702E-4
3.521424460E2,1.482963562E-3,-1.394104958E-2,3.311872482E-3
3.526424460E2,6.437301636E-4,1.632165909E-2,1.726269722E-2
3.531424460E2,-1.003265381E-2,-7.141828537E-3,1.027441025E-2
3.536424460E2,1.237583160E-2,1.461625099E-2,1.326084137E-3
3.541424460E2,2.827930450E-2,1.320123672E-3,5.309224129E-2
3.546424460E2,3.437137604E-2,1.685452461E-2,5.540394783E-2
3.551424460E2,2.302646637E-2,7.803130150E-2,-3.934407234E-2
3.556424460E2,-1.008701324E-2,7.167100906E-3,-3.289747238E-2
3.561424460E2,3.521919250E-3,2.509474754E-2,-6.508946419E-2
3.566424460E2,1.783370972E-3,1.105811596E-1,-3.309416771E-2
3.571424460E2,-4.362583160E-2,-3.066563606E-2,-1.154780388E-2
3.576424460E2,1.989555359E-2,8.475589752E-2,-5.436253548E-2
3.581424460E2,-5.225086212E-2,1.513314247E-2,-1.174688339E-3
3.586424460E2,3.617095947E-2,1.104094982E-1,-6.051373482E-2
3.591424460E2,3.695487976E-3,1.122252941E-1,-3.140187263E-2
3.596424460E2,-2.594661713E-2,5.347418785E-2,-3.706693649E-2
3.601424460E2,2.978992462E-2,1.111621857E-1,-4.799652100E-2
3.606424460E2,-3.166198730E-3,-1.946449280E-3,-3.296613693E-2
3.611424460E2,1.408290863E-2,6.078195572E-2,-4.859805107E-2
3.616424460E2,-1.099967957E-2,5.034685135E-3,-2.706956863E-2
3.621424460E2,-2.057838440E-2,1.700472832E-2,-9.440398216E-2
3.626424460E2,-6.717109680E-2,-4.485726357E-2,-1.614801884E-1
3.631424460E2,-1.080884933E-1,-1.336376667E-1,-1.179080009E-1
3.636424460E2,-2.913379669E-2,-1.030638218E-1,-9.675073624E-2
3.641424460E2,-6.202411652E-2,-1.147894859E-1,-6.683874130E-2
3.646424460E2,-3.663253784E-2,-9.012889862E-2,-2.994871140E-2
3.651424460E2,-6.703281403E-2,-1.155693531E-1,-4.966211319E-2
3.656424460E2,8.756542206E-2,-2.479577065E-2,1.799373627E-1
3.661424460E2,-1.165733337E-1,-6.075978279E-2,7.313013077E-2
3.666424460E2,-5.691146851E-2,1.753568649E-3,-7.228136063E-2
3.671424460E2,-5.986213684E-2,2.596402168E-2,-8.244609833E-2
3.676424460E2,-2.178955078E-2,5.820035934E-2,-1.447772980E-2
3.681424460E2,3.158950806E-2,-2.148175240E-2,-4.865312576E-2
3.686424460E2,1.444530487E-2,-1.098942757E-2,-3.460931778E-2
3.691424460E2,4.082775116E-2,-5.191588402E-2,-2.913618088E-2
3.696424460E2,-2.384471893E-2,1.250457764E-2,9.474754333E-4
3.701424460E2,7.654190063E-3,-2.999281883E-2,-4.473876953E-2
3.706424460E2,9.860992432E-4,-9.669208527E-2,-3.302240372E-2
3.711424460E2,3.869342804E-2,6.887483597E-2,1.521110535E-3
3.716424460E2,1.534461975E-3,2.862238884E-2,8.189201355E-3
3.721424460E2,-4.749298096E-4,-1.336741447E-2,3.228187561E-2
3.726424460E2,3.564834595E-3,-5.969977379E-2,1.250934601E-2
3.731424460E2,4.079532623E-2,1.397562027E-2,5.926609039E-3
3.736424460E2,-1.108455658E-2,1.987576485E-2,5.885601044E-3
3.741424460E2,1.709938049E-3,-4.257655144E-2,1.976966858E-3
3.746424460E2,-5.118370056E-3,-1.986145973E-2,-1.975536346E-2
3.751424460E2,-2.754116058E-2,3.020882607E-2,2.339029312E-2
3.756424460E2,4.695034027E-2,3.295826912E-2,-2.351379395E-2
3.761424460E2,3.561115265E-2,-5.159330368E-2,9.685182571E-2
3.766424460E2,5.323791504E-2,4.705166817E-2,7.443666458E-2
3.771424460E2,-4.290580750E-2,-4.179239273E-3,-6.319999695E-2
3.776424460E2,-3.211116791E-2,7.540750504E-2,-6.569004059E-2
3.781424460E2,-3.460407257E-2,-8.214449883E-2,2.358102798E-2
3.786424460E2,-4.561996460E-2,-3.199219704E-2,-2.994060516E-3
3.791424460E2,-2.231597900E-2,-7.184934616E-2,3.280305862E-2
3.796424460E2,-9.905815125E-3,-5.464577675E-2,-5.982494354E-2
3.801424460E2,3.670787811E-2,-6.886434555E-2,-2.266788483E-2
3.806424460E2,-1.284599304E-2,-9.406375885E-2,-2.627182007E-2
3.811424460E2,1.091480255E-2,-5.880188942E-2,-3.227186203E-2
3.816424460E2,-8.614540100E-3,-3.215003014E-2,-5.422449112E-2
3.821424460E2,-1.497554779E-2,5.092406273E-2,-3.130388260E-2
3.826424460E2,-5.396842957E-3,-8.429265022E-2,-8.363246918E-3
3.831424460E2,3.445625305E-2,5.405044556E-2,-2.610445023E-2
3.836424460E2,-5.815887451E-2,-5.123305321E-2,1.325464249E-2
3.841424460E2,1.422309875E-2,6.460690498E-2,1.925230026E-2
3.846424460E2,-1.995849609E-2,3.655934334E-2,2.065181732E-2
3.851424460E2,-2.544689178E-2,8.075237274E-4,1.987648010E-2
3.856424460E2,6.392097473E-2,8.780312538E-2,-3.377008438E-2
3.861424460E2,-1.780509949E-3,3.487610817E-2,-2.367019653E-3
3.866424460E2,4.885768890E-2,9.319257736E-2,-4.707145691E-2
3.871424460E2,6.632804871E-3,8.117604256E-2,1.312685013E-2
3.876424460E2,2.138042450E-2,1.334452629E-2,-4.098558426E-2
3.881424460E2,4.590034485E-3,1.808445454E-1,-1.015090942E-1
3.886424460E2,-6.169986725E-2,-5.169796944E-2,-4.031133652E-2
3.891424460E2,-3.928279877E-2,1.111104488E-1,-1.154999733E-1
3.896424460E2,-3.866863251E-2,-3.357219696E-2,-4.814958572E-2
3.901424460E2,4.144668579E-3,2.163910866E-2,-2.383279800E-2
3.906424460E2,-3.945398331E-2,-8.589649200E-2,-6.608152390E-2
3.911424460E2,-3.056812286E-2,-3.465914726E-2,-5.601501465E-2
3.916424460E2,-6.620883942E-3,3.932452202E-2,-5.403470993E-2
3.921424460E2,-6.343317032E-2,-1.285870075E-1,-6.618976593E-3
3.926424460E2,1.562213898E-2,7.116794586E-4,-5.425643921E-2
3.931424460E2,-7.855653763E-2,-9.140896797E-2,5.890750885E-2
3.936424460E2,2.405452728E-2,5.322289467E-2,-3.328132629E-2
3.941424460E2,-3.489780426E-2,-5.412697792E-2,3.286361694E-3
3.946424460E2,-1.387405396E-2,-1.631093025E-2,-7.062911987E-3
3.951424460E2,-5.646419525E-2,-4.498457909E-2,4.106998444E-3
3.956424460E2,-8.636951447E-3,-1.126599312E-2,-4.045009613E-3
3.961424460E2,-4.385328293E-2,1.504325867E-2,4.032087326E-2
3.966424460E2,-2.042627335E-2,-4.094552994E-2,7.128238678E-3
3.971424460E2,-3.118228912E-2,2.079749107E-2,-2.209711075E-2
3.976424460E2,-1.177072525E-2,-2.418470383E-2,2.582263947E-2
3.981424460E2,2.993011475E-2,4.833245277E-2,-2.626180649E-2
3.986424460E2,1.628971100E-2,-3.206467628E-2,1.018047333E-3
3.991424460E2,-2.292251587E-2,1.288008690E-2,2.092885971E-2
3.996424460E2,-4.076957703E-3,-1.771521568E-2,6.243228912E-3
4.001424460E2,1.694011688E-2,2.363419533E-2,2.681159973E-2
4.006424460E2,-5.391597748E-3,-1.377677917E-2,7.107257843E-3
4.011424460E2,-5.089759827E-3,-4.230737686E-3,-1.134395599E-3
4.016424460E2,9.057521820E-3,6.986379623E-3,-9.350776672E-4
4.021424460E2,1.225471497E-3,3.259897232E-3,-6.305217743E-3
4.026424460E2,-6.297111511E-3,-2.984285355E-3,-5.281925201E-3
4.031424460E2,-4.446029663E-3,1.422405243E-3,5.297660828E-4
4.036424460E2,6.291866302E-3,1.207828522E-3,4.543304443E-3
4.041424460E2,-7.244586945E-3,-1.225733757E-2,-5.837917328E-3
4.046424460E2,1.172304153E-2,-8.205652237E-3,5.617523193E-2
4.051424460E2,4.685926437E-2,2.935886383E-3,7.222700119E-2
4.056424460E2,2.787017822E-2,1.216888428E-3,5.717611313E-2
4.061424460E2,2.584505081E-2,2.597093582E-3,3.811454773E-2
4.066424460E2,2.169227600E-2,-3.167867661E-3,2.842617035E-2
4.071424460E2,7.149696350E-3,2.324342728E-3,2.243995667E-2
4.076424460E2,9.938240051E-3,-3.329277039E-3,2.817487717E-2
4.081424460E2,1.481723785E-2,-1.705646515E-3,2.155351639E-2
4.086424460E2,1.032257080E-2,-3.554821014E-4,2.310228348E-2
4.091424460E2,8.165359497E-3,-3.505229950E-3,1.497220993E-2
4.096424460E2,6.490707397E-3,4.815578461E-3,7.781505585E-3
4.101424460E2,1.540851593E-2,4.904270172E-4,1.221704483E-2
4.106424460E2,1.534461975E-3,9.598731995E-4,1.424360275E-2
4.111424460E2,6.077766418E-3,-5.755424500E-4,1.356744766E-2
4.116424460E2,8.666038513E-3,-2.028226852E-3,8.233547211E-3
4.121424460E2,1.124000549E-2,-3.778696060E-3,-5.907535553E-3
4.126424460E2,8.228302002E-3,-2.507925034E-3,1.038408279E-2
4.131424460E2,-1.432132721E-2,-8.146762848E-4,2.185344696E-3
4.136424460E2,2.482414246E-3,3.240823746E-3,-1.506519318E-2
4.141424460E2,3.836631775E-3,-1.568555832E-3,8.007526398E-3
4.146424460E2,-5.926132202E-3,-7.381439209E-4,8.036136627E-3
4.151424460E2,6.550788879E-3,-1.869916916E-3,-4.577159882E-3
4.156424460E2,3.734588623E-3,1.567602158E-3,4.689216614E-3
4.161424460E2,-2.330780029E-3,2.825975418E-3,1.618862152E-3
4.166424460E2,-1.268291473E-2,-3.071069717E-3,-8.625984192E-4
4.171424460E2,-1.064014435E-2,-5.889177322E-3,-1.771736145E-2
4.176424460E2,-1.136398315E-1,-1.065373421E-1,-1.757597923E-1
4.181424460E2,8.162784576E-2,1.167151928E-1,1.675009727E-1
4.186424460E2,1.543426514E-2,1.679253578E-2,2.533912659E-2
4.191424460E2,-1.156425476E-2,-1.451587677E-2,-1.966810226E-2
4.196424460E2,9.663581848E-3,-9.071111679E-3,1.846647263E-2
4.201424460E2,4.069232941E-2,-4.671335220E-3,8.560609818E-2
4.206424460E2,2.334308624E-2,-2.114534378E-3,4.930830002E-2
4.211424460E2,-4.981994629E-2,3.336906433E-3,-7.597112656E-2
4.216424460E2,2.325334549E-1,9.930419922E-2,4.590067863E-1
4.221424460E2,-6.708431244E-2,-7.705760002E-2,-1.987633705E-1
4.226424460E2,-1.518821716E-2,-5.722284317E-3,-3.072690964E-2
4.231424460E2,-2.397346497E-2,-1.387333870E-2,-6.015872955E-2
4.236424460E2,-7.796287537E-3,-4.696607590E-3,-9.163379669E-3
4.241424460E2,-5.138397217E-3,-5.090475082E-3,-1.268339157E-2
4.246424460E2,2.032279968E-3,-4.420995712E-3,8.397102356E-4
4.251424460E2,1.029014587E-3,9.106397629E-3,-3.881454468E-4
4.256424460E2,4.933357239E-3,3.638982773E-3,-1.799106598E-3
4.261424460E2,2.110481262E-3,-4.975557327E-3,-2.980232239E-3
4.266424460E2,6.589889526E-4,-6.564378738E-3,5.757808685E-3
4.271424460E2,2.112388611E-3,-1.899957657E-3,-3.780841827E-3
4.276424460E2,-5.464553833E-4,-1.893520355E-3,1.634120941E-3
4.281424460E2,-3.363609314E-3,-2.085685730E-3,1.073360443E-3
4.286424460E2,-6.027221680E-4,3.459215164E-3,-3.995418549E-3
4.291424460E2,-1.707077026E-4,-8.075475693E-3,3.812313080E-3
4.296424460E2,-1.868247986E-3,-4.208087921E-4,3.790855408E-4
4.301424460E2,1.748085022E-3,4.792928696E-3,2.880573273E-3
4.306424460E2,-2.687454224E-3,-5.845785141E-3,3.652095795E-3
4.311424460E2,-2.769470215E-3,-2.007961273E-3,3.614425659E-3
4.316424460E2,-1.538276672E-3,2.507686615E-3,-5.131721497E-3
4.321424460E2,6.766319275E-3,-1.882553101E-3,2.285480499E-3
4.326424460E2,-7.084846497E-3,-5.657672882E-4,6.246089935E-3
4.331424460E2,-6.055831909E-4,-1.332044601E-3,7.381439209E-4
4.336424460E2,-2.072334290E-3,-2.553462982E-4,1.197338104E-3
4.341424460E2,-2.745628357E-3,-1.065969467E-3,3.237724304E-4
4.346424460E2,3.275871277E-3,-5.794286728E-3,2.257347107E-3
4.351424460E2,-1.063346863E-3,4.163980484E-3,1.288414001E-3
4.356424460E2,-4.253387451E-4,4.762411118E-3,3.827571869E-3
4.361424460E2,-4.115104675E-3,-1.104116440E-3,-3.164291382E-3
4.366424460E2,5.731582642E-4,-3.393888474E-3,-2.308368683E-3
4.371424460E2,-5.827903748E-3,4.107236862E-3,2.032756805E-3
4.376424460E2,1.183509827E-3,-1.193523407E-3,-1.495838165E-3
4.381424460E2,1.240730286E-3,-1.575231552E-3,-1.781940460E-3
4.386424460E2,7.438659668E-5,-6.515502930E-3,-7.166862488E-4
4.391424460E2,7.343292236E-5,-8.680820465E-4,-1.475811005E-3
4.396424460E2,5.826950073E-4,-1.122236252E-3,1.521110535E-4
4.401424460E2,4.685401917E-3,-6.694793701E-4,4.816055298E-5
4.406424460E2,2.117156982E-4,-9.434223175E-4,-1.569271088E-3
4.411424460E2,-1.263618469E-3,-1.376152039E-3,6.027221680E-4
4.416424460E2,-2.496719360E-3,2.881050110E-3,-4.111766815E-3
4.421424460E2,1.396179199E-2,-8.821487427E-5,4.446172714E-2
4.426424460E2,8.614253998E-2,-8.184671402E-3,1.323704720E-1
4.431424460E2,1.676006317E-1,-2.633428574E-2,3.517017365E-1
4.436424460E2,1.154718399E-1,2.116990089E-2,1.972136497E-1
4.441424460E2,4.828357697E-2,1.875162125E-3,9.452819824E-2
4.446424460E2,1.904773712E-2,3.004550934E-3,3.211116791E-2
4.451424460E2,3.528594971E-4,1.282453537E-3,9.796380997E-3
4.456424460E2,-1.444816589E-2,1.108622551E-2,-1.248264313E-2
4.461424460E2,-1.112651825E-2,-2.360343933E-5,-7.180929184E-3
4.466424460E2,4.673004150E-5,1.820325851E-3,-5.669116974E-3
4.471424460E2,-1.096725464E-4,-7.598400116E-4,1.602172852E-4
4.476424460E2,-9.181022644E-3,-2.762818336E-2,1.531839371E-2
4.481424460E2,1.181602478E-3,-9.130477905E-3,1.128411293E-2
4.486424460E2,2.794265747E-3,7.334232330E-3,4.519224167E-3
4.491424460E2,-5.505561829E-3,-9.731769562E-3,-1.346826553E-3
4.496424460E2,-1.490879059E-2,2.017164230E-2,1.681566238E-3
4.501424460E2,1.840877533E-2,-7.536888123E-3,-1.496052742E-2
4.506424460E2,1.063823700E-2,1.935744286E-2,-3.392696381E-2
4.511424460E2,-2.014446259E-2,1.136374474E-2,-1.344680786E-2
4.516424460E2,-5.513191223E-3,4.215025902E-2,-4.135441780E-2
4.521424460E2,-7.513999939E-3,2.853918076E-2,-1.365613937E-2
4.526424460E2,-1.254940033E-2,-1.082468033E-1,-5.032491684E-2
4.531424460E2,4.420757294E-2,5.745005608E-2,-5.824089050E-2
4.536424460E2,-9.908771515E-2,-1.459622383E-2,4.937005043E-2
4.541424460E2,-5.946636200E-2,7.044434547E-2,-6.259202957E-3
4.546424460E2,-2.399349213E-2,-9.762072563E-2,-2.233147621E-2
4.551424460E2,-1.468944550E-2,1.496427059E-1,-4.295253754E-2
4.556424460E2,-7.786273956E-2,-4.357528687E-2,4.077887535E-2
4.561424460E2,5.809879303E-2,1.201049089E-1,-5.138778687E-2
4.566424460E2,-9.621620178E-3,-2.447009087E-2,-2.541375160E-2
4.571424460E2,1.099424362E-1,-1.586809158E-1,-9.932255745E-2
4.576424460E2,8.147239685E-3,-6.987166405E-2,-2.199745178E-2
4.581424460E2,3.439903259E-3,-6.316637993E-2,6.882429123E-3
4.586424460E2,7.490158081E-3,2.776113749E-1,-1.565575600E-2
4.591424460E2,-2.615928650E-3,-1.059176922E-1,2.873539925E-2
4.596424460E2,8.162212372E-2,4.929852486E-2,-5.275654793E-2
4.601424460E2,-1.141233444E-1,-4.260468483E-2,8.124303818E-2
4.606424460E2,-7.165622711E-2,2.233004570E-2,1.076531410E-2
4.611424460E2,-1.304941177E-1,-8.963751793E-2,-9.941911697E-2
4.616424460E2,-7.942390442E-2,4.041242599E-2,-1.387691498E-1
4.621424460E2,-3.419971466E-2,-3.759360313E-2,-7.647943497E-2
4.626424460E2,-2.323150635E-3,-7.154512405E-2,-1.340842247E-1
4.631424460E2,-6.687402725E-2,-1.085093021E-1,1.688289642E-2
4.636424460E2,2.293491364E-2,-6.498575211E-2,1.598453522E-2
4.641424460E2,8.070945740E-3,-5.393815041E-2,-1.872587204E-2
4.646424460E2,8.213043213E-2,-3.401517868E-3,-1.518106461E-2
4.651424460E2,-4.049873352E-2,-1.330494881E-2,-4.647111893E-2
4.656424460E2,-3.557395935E-2,7.727026939E-2,-2.001047134E-2
4.661424460E2,-2.692127228E-2,1.867675781E-2,-2.081394196E-2
4.666424460E2,1.418495178E-2,9.247040749E-2,-3.517627716E-3
4.671424460E2,1.690006256E-2,-4.348039627E-2,-4.979372025E-2
4.676424460E2,-9.606361389E-3,4.947876930E-2,-1.637697220E-2
4.681424460E2,3.257846832E-2,1.311013699E-1,-1.048135757E-2
4.686424460E2,1.996898651E-2,7.199001312E-2,-9.159564972E-3
4.691424460E2,4.003620148E-2,-2.121925354E-4,-2.803802490E-3
4.696424460E2,-2.975177765E-2,6.793236732E-2,9.181308746E-2
4.701424460E2,1.135921478E-2,1.963329315E-2,3.970289230E-2
4.706424460E2,-1.573657990E-2,5.302906036E-3,6.300449371E-3
4.711424460E2,-9.695339203E-2,-3.133296967E-3,-7.555437088E-2
4.716424460E2,-7.729530334E-2,2.643346786E-3,-1.335816383E-1
4.721424460E2,-4.017543793E-2,-4.895901680E-2,-1.036295891E-1
4.726424460E2,-2.420997620E-2,-5.730867386E-2,-3.921461105E-2
4.731424460E2,-4.373931885E-2,8.903193474E-2,-2.580833435E-2
4.736424460E2,-2.763271332E-2,-1.065731049E-4,6.272792816E-3
4.741424460E2,-3.703117371E-3,-1.619696617E-2,-1.517200470E-2
4.746424460E2,-6.802082062E-3,1.120567322E-3,1.232481003E-2
4.751424460E2,-3.856754303E-2,-4.126667976E-2,-1.654577255E-2
4.756424460E2,-2.632141113E-3,-9.046792984E-3,-3.301572800E-2
4.761424460E2,-2.159070969E-2,-4.725217819E-3,9.437084198E-3
4.766424460E2,3.221178055E-2,-2.585005760E-2,-3.534555435E-2
4.771424460E2,-8.181095123E-3,-2.834391594E-2,8.101463318E-4
4.776424460E2,-2.428293228E-2,4.440712929E-2,3.322029114E-2
4.781424460E2,3.957366943E-2,1.420521736E-2,4.022455215E-2
4.786424460E2,8.370399475E-3,-3.938889503E-2,2.208662033E-2
4.791424460E2,1.387596130E-3,-1.138288975E-1,-2.934503555E-2
4.796424460E2,3.976345062E-2,4.929280281E-2,4.256916046E-2
4.801424460E2,-5.986309052E-2,4.134583473E-2,-1.602444649E-1
4.806424460E2,1.378946304E-1,-9.008979797E-2,2.573657036E-1
4.811424460E2,-1.096343994E-2,5.814528465E-2,-1.674079895E-2
4.816424460E2,5.205249786E-2,-1.461601257E-2,-3.412055969E-2
4.821424460E2,-1.441574097E-2,-3.476071358E-2,1.045131683E-2
4.826424460E2,3.438758850E-2,5.319857597E-2,-3.706550598E-2
4.831424460E2,-1.197719574E-2,-1.001946926E-1,6.887435913E-3
4.836424460E2,-7.470130920E-3,4.768919945E-2,9.288787842E-4
4.841424460E2,-4.405975342E-2,-4.309153557E-2,1.470232010E-2
4.846424460E2,5.548000336E-2,2.390742302E-2,-3.437662125E-2
4.851424460E2,1.305580139E-3,-9.488344193E-3,-9.232044220E-3
4.856424460E2,4.663562775E-2,-2.009701729E-2,-2.647256851E-2
4.861424460E2,3.155517578E-2,4.607176781E-2,-2.726888657E-2
4.866424460E2,-4.169464111E-3,-4.133915901E-2,-3.458976746E-3
4.871424460E2,-1.007652283E-2,5.652427673E-2,4.616737366E-3
4.876424460E2,-3.201961517E-2,9.547710419E-3,1.854944229E-2
4.881424460E2,4.142856598E-2,4.504179955E-2,-1.623106003E-2
4.886424460E2,4.011821747E-2,2.996563911E-2,1.456880569E-2
4.891424460E2,-6.670475006E-2,-6.093645096E-2,2.975940704E-3
4.896424460E2,8.107185364E-3,-1.313257217E-2,8.668899536E-4
4.901424460E2,-1.709556580E-2,-2.846693993E-2,2.209520340E-2
4.906424460E2,-4.744338989E-2,1.587748528E-2,-8.120965958E-2
4.911424460E2,-6.523132324E-4,4.488015175E-2,-5.630397797E-2
4.916424460E2,8.273983002E-2,6.035852432E-2,2.379465103E-2
4.921424460E2,3.253650665E-2,-1.028323174E-2,1.230611801E-1
4.926424460E2,-1.442432404E-2,-2.296876907E-2,-6.835794449E-2
4.931424460E2,-2.826976776E-2,-1.247384548E-1,-4.772758484E-2
4.936424460E2,1.664161682E-2,-7.080340385E-2,4.169416428E-2
4.941424460E2,-5.295181274E-2,-1.121797562E-1,-1.991319656E-2
4.946424460E2,-5.806636810E-2,-9.224176407E-2,-4.152727127E-2
4.951424460E2,-3.004741669E-2,-1.021511555E-1,-9.706020355E-3
4.956424460E2,-1.541233063E-2,-9.487032890E-2,7.117748260E-3
4.961424460E2,-2.077198029E-2,-5.174064636E-2,-1.668596268E-2
4.966424460E2,-1.531410217E-2,-7.149195671E-2,-9.709835052E-3
4.971424460E2,-2.973175049E-2,-1.600384712E-2,-2.013158798E-2
4.976424460E2,-5.261611938E-2,-7.786822319E-2,-5.496025085E-3
4.981424460E2,1.553058624E-2,7.656168938E-2,1.307630539E-2
4.986424460E2,-3.814601898E-2,4.466676712E-2,3.535652161E-2
4.991424460E2,-9.276390076E-3,4.096198082E-2,-1.593255997E-2
4.996424460E2,-1.109123230E-2,1.428961754E-2,1.241111755E-2
5.001424460E2,1.750850677E-2,-2.913355827E-2,-5.365991592E-2
5.006424460E2,6.378173828E-3,5.172562599E-2,1.871585846E-3
5.011424460E2,-5.547523499E-3,5.455136299E-2,-2.802181244E-2
5.016424460E2,4.270744324E-2,1.346182823E-1,-2.943038940E-3
5.021424460E2,8.201599121E-5,9.579730034E-2,-9.353160858E-3
5.026424460E2,5.054950714E-2,8.972406387E-2,-6.914138794E-2
5.031424460E2,-4.034042358E-4,1.528060436E-1,2.774238586E-2
5.036424460E2,6.541919708E-2,1.681549549E-1,-2.925920486E-2
5.041424460E2,2.020931244E-2,1.195967197E-1,-6.514549255E-3
5.046424460E2,3.033351898E-2,2.059965134E-1,-3.246736526E-2
5.051424460E2,1.108837128E-2,4.027438164E-2,9.891033173E-3
5.056424460E2,3.531932831E-2,2.056419849E-1,-5.067777634E-2
5.061424460E2,-5.380344391E-2,4.729032516E-3,8.468151093E-3
5.066424460E2,6.842613220E-2,1.517653465E-1,-2.574300766E-2
5.071424460E2,-1.244640350E-2,8.309435844E-2,7.146358490E-3
5.076424460E2,-1.645851135E-2,1.675150394E-1,-1.502084732E-2
5.081424460E2,-1.234245300E-2,5.177736282E-2,-7.136297226E-2
5.086424460E2,-6.066036224E-2,5.045628548E-2,-2.174801826E-1
5.091424460E2,-3.127384186E-2,-6.620883942E-2,-6.468963623E-2
5.096424460E2,2.958297729E-3,6.440949440E-2,-1.029572487E-1
5.101424460E2,-5.238056183E-2,-7.427382469E-2,-2.657127380E-2
5.106424460E2,-1.430034637E-2,-1.605367661E-2,-3.918981552E-2
5.111424460E2,-4.215431213E-2,-2.988243103E-2,-6.797981262E-2
5.116424460E2,-7.507133484E-2,-8.981442451E-2,-1.573038101E-2
5.121424460E2,-4.907703400E-2,-5.995154381E-2,2.231597900E-2
5.126424460E2,-1.043481827E-1,-6.998991966E-2,-6.777286530E-3
5.131424460E2,9.863853455E-3,-1.038377285E-1,-3.908634186E-2
5.136424460E2,-8.949661255E-2,-9.040331841E-2,-1.654624939E-2
5.141424460E2,-2.347993851E-2,-1.303911209E-1,2.965879440E-2
5.146424460E2,-2.975320816E-2,-7.975769043E-2,-2.697324753E-2
5.151424460E2,-2.654457092E-2,-1.148602962E-1,-1.666307449E-2
5.156424460E2,1.043128967E-2,-5.211758614E-2,1.185560226E-2
5.161424460E2,-4.703998566E-3,-3.922986984E-2,-5.152702332E-3
5.166424460E2,-2.789974213E-2,-6.298828125E-2,-7.678031921E-3
5.171424460E2,2.498149872E-3,5.163192749E-3,-1.780748367E-2
5.176424460E2,7.329463959E-3,-6.549286842E-2,-1.035451889E-2
5.181424460E2,3.285408020E-3,-1.550459862E-2,-9.069442749E-3
5.186424460E2,2.313756943E-2,-9.934902191E-3,-9.047985077E-3
5.191424460E2,2.607250214E-2,7.746458054E-3,-7.111549377E-3
5.196424460E2,-3.479051590E-2,-5.095267296E-2,6.257534027E-3
5.201424460E2,2.382373810E-2,7.114601135E-2,-4.391384125E-2
5.206424460E2,-2.049303055E-2,-6.502342224E-2,1.051235199E-2
5.211424460E2,2.031469345E-2,3.913187981E-2,-7.225036621E-3
5.216424460E2,-1.006078720E-2,-1.523995399E-2,7.033824921E-3
5.221424460E2,-6.961822510E-5,2.173423767E-3,-8.694171906E-3
5.226424460E2,1.809597015E-3,-3.165006638E-3,1.858758926E-2
5.231424460E2,2.190113068E-3,-1.075100899E-2,7.315158844E-3
5.236424460E2,-2.442359924E-3,-9.627342224E-4,1.620817184E-2
5.241424460E2,3.751277924E-3,-2.362489700E-3,1.441764832E-2
5.246424460E2,4.792213440E-4,-8.945465088E-3,8.337020874E-3
5.251424460E2,9.050846100E-3,9.610652924E-4,3.049373627E-3
5.256424460E2,8.416175842E-3,2.024173737E-4,6.854534149E-3
5.261424460E2,-1.738119125E-2,-5.044937134E-3,-1.078939438E-2
5.266424460E2,-1.756095886E-2,2.704620361E-3,-1.335382462E-2
5.271424460E2,-6.407260895E-3,-1.285052299E-2,-2.375125885E-3
5.276424460E2,-1.003742218E-3,1.020169258E-2,-5.866527557E-3
5.281424460E2,-1.988410950E-4,-9.229898453E-3,-4.344463348E-3
5.286424460E2,-3.102302551E-3,9.336471558E-4,3.676414490E-4
5.291424460E2,9.816169739E-3,5.056142807E-3,7.337570190E-3
5.296424460E2,-1.235246658E-2,3.739118576E-3,-2.260684967E-3
5.301424460E2,5.576133728E-3,-2.926111221E-3,-8.161544800E-3
5.306424460E2,1.115036011E-2,-2.584695816E-3,-7.020473480E-3
5.311424460E2,-9.087562561E-3,7.869482040E-3,-9.092807770E-3
5.316424460E2,-1.486063004E-2,3.129243851E-3,-8.233070374E-3
5.321424460E2,-6.675720215E-6,5.309820175E-3,-1.272201538E-3
5.326424460E2,-4.553794861E-3,-3.628969193E-3,-7.554531097E-3
5.331424460E2,3.404855728E-2,-1.872777939E-3,3.644275665E-2
5.336424460E2,1.559047699E-1,1.072192192E-2,2.418584824E-1
5.341424460E2,4.830169678E-2,-2.382659912E-2,6.975650787E-3
5.346424460E2,1.933383942E-2,-9.833812714E-3,3.340053558E-2
5.351424460E2,1.240062714E-2,-1.894950867E-3,7.357597351E-3
5.356424460E2,7.475852966E-3,6.992816925E-4,5.125999451E-4
5.361424460E2,8.497238159E-4,-7.616758347E-3,8.718967438E-3
5.366424460E2,2.207756042E-3,-3.716468811E-3,-3.043651581E-3
5.371424460E2,-7.330894470E-3,5.647420883E-3,8.113861084E-3
5.376424460E2,-2.796173096E-3,-8.392095566E-3,2.542972565E-3
5.381424460E2,5.008697510E-3,1.359510422E-2,-3.435134888E-3
5.386424460E2,1.236820221E-2,1.357316971E-3,-1.153898239E-2
5.391424460E2,8.649826050E-4,-1.038289070E-2,-2.579689026E-3
5.396424460E2,-8.205413818E-3,2.851247787E-3,6.935596466E-3
5.401424460E2,-1.859664917E-4,-1.101255417E-3,4.712581635E-3
5.406424460E2,-7.653236389E-3,2.363920212E-3,5.196571350E-3
5.411424460E2,5.722999573E-3,-1.453399658E-3,-5.476474762E-3
5.416424460E2,9.217262268E-3,1.543760300E-3,-5.980014801E-3
5.421424460E2,6.724357605E-3,-1.075816154E-2,1.134872437E-4
5.426424460E2,9.549140930E-3,3.726243973E-3,-9.436130524E-3
5.431424460E2,4.775047302E-3,-1.156497002E-2,-3.959178925E-3
5.436424460E2,-4.311561584E-3,4.751682281E-4,-5.345344543E-3
5.441424460E2,5.375862122E-3,2.892732620E-3,-1.137828827E-2
5.446424460E2,1.028537750E-2,-6.256818771E-3,-9.269714355E-4
5.451424460E2,-4.302024841E-3,2.897977829E-3,2.114772797E-3
5.456424460E2,8.616447449E-3,3.218650818E-4,-2.603530884E-3
5.461424460E2,2.112388611E-3,6.086111069E-3,9.531974792E-4
5.466424460E2,1.481056213E-3,4.133462906E-3,-4.463672638E-3
5.471424460E2,-7.872581482E-3,-3.893375397E-3,-3.684997559E-3
5.476424460E2,-3.715515137E-3,-2.281665802E-4,1.001358032E-5
5.481424460E2,-1.591682434E-3,-2.172708511E-3,2.871036530E-3
5.486424460E2,-3.919601440E-3,-5.309343338E-3,4.339218140E-3
5.491424460E2,6.602287292E-3,-4.703998566E-4,-3.592014313E-3
5.496424460E2,-2.301216125E-3,-2.583265305E-3,-1.107692719E-3
5.501424460E2,-8.494377136E-3,-1.891136169E-3,-1.036596298E-2
5.506424460E2,-1.298904419E-3,2.043700218E-2,-8.267402649E-3
5.511424460E2,3.497123718E-3,3.202414513E-2,-1.181793213E-2
5.516424460E2,3.918647766E-3,-1.796007156E-3,-7.612705231E-3
5.521424460E2,-2.105712891E-2,4.837679863E-2,-5.719423294E-2
5.526424460E2,4.479122162E-2,4.538512230E-2,2.274084091E-2
5.531424460E2,7.566738129E-2,-1.101071835E-1,2.065567970E-1
5.536424460E2,-3.817653656E-2,-3.198385239E-3,-9.074163437E-2
5.541424460E2,-1.901149750E-2,-1.093935966E-2,-2.655220032E-2
5.546424460E2,-2.489089966E-4,-1.490592957E-3,2.724170685E-3
5.551424460E2,8.277893066E-4,1.804590225E-3,1.338958740E-3
5.556424460E2,-2.689361572E-4,1.040697098E-3,-5.127429962E-3
5.561424460E2,-1.362800598E-3,7.936954498E-4,-1.599788666E-3
5.566424460E2,3.743171692E-3,4.627704620E-4,1.362800598E-3
5.571424460E2,1.765251160E-3,1.242160797E-3,-4.074096680E-3
5.576424460E2,9.670257568E-4,-3.490924835E-3,2.703189850E-3
5.581424460E2,1.808166504E-3,4.028320312E-3,9.598731995E-4
5.586424460E2,8.583068848E-5,-3.660440445E-3,-1.154422760E-3
5.591424460E2,1.674652100E-3,1.312494278E-3,1.412868500E-3
5.596424460E2,1.801490784E-3,2.158880234E-3,-7.088661194E-3
5.601424460E2,1.181602478E-3,-2.831697464E-3,-1.444816589E-4
5.606424460E2,-4.024505615E-4,-2.022266388E-3,3.674030304E-3
5.611424460E2,3.367424011E-3,1.207113266E-3,1.746654510E-3
5.616424460E2,7.848739624E-4,-3.468990326E-4,8.296966553E-5
5.621424460E2,-1.204490662E-3,-1.661777496E-4,-4.506111145E-3
5.626424460E2,1.159667969E-3,7.636547089E-4,1.145839691E-3
5.631424460E2,5.445480347E-4,2.012729645E-3,-1.810550690E-3
5.636424460E2,-2.362251282E-3,-2.695798874E-3,5.459785461E-4
5.641424460E2,-1.927375793E-3,-2.816915512E-3,-1.955032349E-5
5.646424460E2,-2.813339233E-4,-2.063274384E-3,2.657413483E-3
5.651424460E2,5.559921265E-4,-1.054525375E-3,1.566886902E-3
5.656424460E2,-5.807876587E-4,1.708745956E-3,-2.404689789E-3
5.661424460E2,7.162094116E-4,1.436710358E-3,9.570121765E-4
5.666424460E2,1.192092896E-3,-2.756357193E-3,-6.775856018E-4
5.671424460E2,-1.895904541E-3,-1.046419144E-3,3.803253174E-3
5.676424460E2,-1.838684082E-3,-3.020763397E-4,-8.583068848E-5
5.681424460E2,-1.907348633E-6,-7.667541504E-4,-9.903907776E-4
5.686424460E2,3.347396851E-4,6.487369537E-4,4.827976227E-3
5.691424460E2,2.031898499E-2,-4.530429840E-3,1.991605759E-2
5.696424460E2,8.655834198E-2,2.944469452E-3,1.414303780E-1
5.701424460E2,1.592588425E-1,-1.069879532E-2,2.889239788E-1
5.706424460E2,1.125612259E-1,1.722621918E-2,1.707768440E-1
5.711424460E2,5.317020416E-2,-5.261421204E-3,8.911848068E-2
5.716424460E2,2.374458313E-2,3.136873245E-3,3.680777550E-2
5.721424460E2,4.959106445E-5,-2.932548523E-3,1.117420197E-2
5.726424460E2,-6.210327148E-3,-3.608465195E-3,-7.016658783E-4
5.731424460E2,-5.123138428E-3,-3.721475601E-3,-1.248598099E-2
5.736424460E2,-1.627922058E-3,-6.177425385E-3,-2.056121826E-3
5.741424460E2,7.046699524E-3,-1.100254059E-2,-4.138946533E-3
5.746424460E2,1.073169708E-2,-2.116870880E-2,-1.320362091E-3
5.751424460E2,-4.915237427E-3,-1.201438904E-2,7.394075394E-3
5.756424460E2,-8.773803711E-4,-2.460241318E-3,5.574703217E-3
5.761424460E2,-6.722450256E-3,-2.105879784E-2,9.662628174E-3
5.766424460E2,5.162239075E-3,4.946708679E-3,7.116317749E-3
5.771424460E2,-1.101493835E-3,-4.627513885E-2,3.636598587E-3
5.776424460E2,-1.109695435E-2,8.124589920E-3,-2.531790733E-2
5.781424460E2,5.599975586E-3,7.120370865E-3,-3.084921837E-2
5.786424460E2,-2.905178070E-2,-2.362298965E-2,-1.613450050E-2
5.791424460E2,-1.542091370E-2,-3.332495689E-2,-3.894853592E-2
5.796424460E2,-3.709220886E-2,2.035641670E-2,-2.357506752E-2
5.801424460E2,-4.220867157E-2,-5.891537666E-2,-1.658964157E-2
5.806424460E2,-2.992725372E-2,1.066231728E-2,-3.002643585E-3
5.811424460E2,-3.425121307E-2,-1.953458786E-2,-2.814531326E-3
5.816424460E2,1.303005219E-2,-5.613899231E-2,-3.909730911E-2
5.821424460E2,-2.105045319E-2,-1.827716827E-2,-1.292181015E-2
5.826424460E2,-4.673004150E-3,-2.672910690E-3,3.962039948E-3
5.831424460E2,7.784843445E-3,-1.230645180E-2,-2.827167511E-3
5.836424460E2,3.007698059E-2,-6.228446960E-3,-1.954054832E-2
5.841424460E2,-2.946853638E-4,-1.177549362E-2,-6.651639938E-3
5.846424460E2,2.994251251E-2,1.432561874E-2,-4.621934891E-2
5.851424460E2,4.367637634E-2,7.192802429E-2,-3.056859970E-2
5.856424460E2,-4.536628723E-3,-6.211972237E-2,-1.424026489E-2
5.861424460E2,4.563426971E-2,1.404023170E-1,-2.373409271E-2
5.866424460E2,7.431602478E-2,7.501888275E-2,-7.817602158E-2
5.871424460E2,6.674289703E-2,4.191160202E-3,-7.845830917E-2
5.876424460E2,-2.319335938E-3,8.891367912E-2,-5.748796463E-2
5.881424460E2,-1.152801514E-2,2.134182453E-1,-1.688680649E-1
5.886424460E2,-2.091693878E-2,9.350967407E-2,-1.587295532E-1
5.891424460E2,1.202201843E-2,1.582615376E-1,-2.874493599E-1
5.896424460E2,8.930301666E-2,-1.985788345E-2,-1.376500130E-1
5.901424460E2,-7.452487946E-2,1.245906353E-1,-8.017396927E-2
5.906424460E2,-1.060600281E-1,1.210379601E-2,-3.282594681E-2
5.911424460E2,-2.517414093E-2,1.160480976E-1,-6.526660919E-2
5.916424460E2,-2.570152283E-3,1.889395714E-2,-5.554819107E-2
5.921424460E2,-9.621620178E-3,5.503845215E-2,-4.963254929E-2
5.926424460E2,-6.173038483E-2,-4.478526115E-2,-2.762031555E-2
5.931424460E2,-1.505374908E-2,1.798152924E-3,-9.499311447E-2
5.936424460E2,-1.371383667E-2,-1.213138103E-1,2.338171005E-2
5.941424460E2,2.699565887E-2,1.730370522E-2,-7.105207443E-2
5.946424460E2,-1.015157700E-1,-1.653766632E-1,-1.577630043E-1
5.951424460E2,-3.873920441E-2,8.303403854E-3,-7.985925674E-2
5.956424460E2,-5.370616913E-2,-1.536505222E-1,-2.978181839E-2
5.961424460E2,-6.678485870E-2,-4.984784126E-2,-9.430646896E-2
5.966424460E2,-8.928585052E-2,-2.092950344E-1,-1.600313187E-2
5.971424460E2,6.014347076E-2,-5.695819855E-3,7.642984390E-2
5.976424460E2,-4.710292816E-2,-2.260010242E-1,5.395650864E-2
5.981424460E2,-3.000259399E-3,1.414391994E-1,-3.596210480E-2
5.986424460E2,-1.089735031E-1,-1.992623806E-1,-1.471185684E-2
5.991424460E2,1.445674896E-2,-5.792498589E-2,-4.917144775E-3
5.996424460E2,-7.849693298E-3,-5.193614960E-2,1.461982727E-2
6.001424460E2,2.297210693E-2,4.342293739E-2,-5.173349380E-2
6.006424460E2,-3.345966339E-2,-1.451940536E-1,7.414817810E-3
6.011424460E2,5.113315582E-2,-2.793431282E-2,-5.396842957E-2
6.016424460E2,5.464935303E-2,-4.730105400E-2,-2.456188202E-2
6.021424460E2,-2.288818359E-3,-1.598572731E-2,2.489328384E-2
6.026424460E2,-3.154182434E-2,2.135443687E-2,3.751516342E-2
6.031424460E2,-3.459548950E-2,-7.885694504E-3,1.941156387E-2
6.036424460E2,5.194950104E-2,7.989335060E-2,5.619525909E-3
6.041424460E2,8.395195007E-3,1.094834805E-1,6.532287598E-2
6.046424460E2,-4.100799561E-3,-1.519918442E-3,-4.554748535E-3
6.051424460E2,-2.754211426E-3,5.387663841E-2,-9.794759750E-2
6.056424460E2,-2.152729034E-2,1.069045067E-2,4.736852646E-2
6.061424460E2,6.045341492E-3,1.932740211E-2,-2.256441116E-2
6.066424460E2,-3.372097015E-2,-4.630327225E-2,-7.123947144E-3
6.071424460E2,-2.947616577E-2,-2.191329002E-2,-2.608394623E-2
6.076424460E2,4.798221588E-2,2.696514130E-2,5.959272385E-2
6.081424460E2,-7.031440735E-3,-1.444735527E-1,5.720281601E-2
6.086424460E2,2.244663239E-2,1.425874233E-1,-2.340745926E-2
6.091424460E2,-2.970981598E-2,-1.544620991E-1,9.161472321E-3
6.096424460E2,7.285594940E-2,9.549045563E-2,6.388044357E-2
6.101424460E2,3.137302399E-2,2.713942528E-2,8.315563202E-3
6.106424460E2,2.147769928E-2,6.433892250E-2,-1.134710312E-1
6.111424460E2,5.834293365E-2,1.016976833E-1,2.374553680E-2
6.116424460E2,7.452487946E-2,2.259137630E-1,3.889131546E-2
6.121424460E2,9.026813507E-2,1.265766621E-1,-1.214647293E-2
6.126424460E2,4.794502258E-2,1.248345375E-1,-7.998514175E-2
6.131424460E2,2.295112610E-2,9.195089340E-2,2.078294754E-2
6.136424460E2,-5.053997040E-2,-6.796121597E-3,-2.809190750E-2
6.141424460E2,4.069423676E-2,4.071593285E-2,-4.573011398E-2
6.146424460E2,-5.395889282E-2,-1.552186012E-1,4.528760910E-2
6.151424460E2,4.770755768E-2,4.046225548E-2,3.184366226E-2
6.156424460E2,-6.290149689E-2,-1.419341564E-1,-1.077699661E-2
6.161424460E2,-8.632946014E-2,-1.329822540E-1,4.360723495E-2
6.166424460E2,-5.568027496E-2,-1.533608437E-1,2.413988113E-2
6.171424460E2,2.223110199E-2,-1.405136585E-1,1.611661911E-2
6.176424460E2,-8.667278290E-2,-8.005213737E-2,4.239320755E-2
6.181424460E2,-1.018772125E-1,-9.778547287E-2,2.195882797E-2
6.186424460E2,-2.977752686E-2,-2.027988434E-3,-1.808166504E-3
6.191424460E2,2.871513367E-3,-1.007483006E-1,1.809930801E-2
6.196424460E2,-1.959800720E-3,-9.398913383E-2,-1.058435440E-2
6.201424460E2,-7.282924652E-2,-1.714620590E-1,3.713703156E-2
6.206424460E2,4.188537598E-3,3.723621368E-2,-1.737022400E-2
6.211424460E2,-5.118465424E-2,-1.601712704E-1,2.202463150E-2
6.216424460E2,3.045177460E-2,1.015756130E-1,-8.905649185E-2
6.221424460E2,-1.400723457E-1,-7.571744919E-2,-7.908487320E-2
6.226424460E2,-9.827136993E-3,1.145746708E-1,-6.375360489E-2
6.231424460E2,1.279449463E-2,-4.293680191E-3,-3.335142136E-2
6.236424460E2,6.224393845E-2,1.369976997E-1,-7.884693146E-2
6.241424460E2,3.244352341E-2,7.865738869E-2,-3.408432007E-2
6.246424460E2,6.568861008E-2,1.639721394E-1,-7.644653320E-3
6.251424460E2,5.664634705E-2,8.729171753E-2,-1.179966927E-1
6.256424460E2,-2.128124237E-2,1.503458023E-1,-2.580451965E-2
6.261424460E2,-8.568763733E-3,1.318056583E-1,9.175300598E-3
6.266424460E2,-2.087926865E-2,1.713402271E-1,2.258729935E-2
6.271424460E2,7.897853851E-3,8.269906044E-2,4.954624176E-2
6.276424460E2,-2.065610886E-2,2.990317345E-2,5.633020401E-2
6.281424460E2,-9.933996201E-2,-3.235459328E-2,-1.249446869E-1
6.286424460E2,-5.374145508E-2,-4.784798622E-2,4.750585556E-2
6.291424460E2,2.592849731E-2,3.389668465E-2,-8.839178085E-2
6.296424460E2,1.020431519E-4,-3.271985054E-2,8.680582047E-2
6.301424460E2,1.410918236E-1,1.155107021E-1,-1.104693413E-1
6.306424460E2,-1.117753983E-2,-1.607532501E-1,7.802534103E-2
6.311424460E2,9.054803848E-2,1.296751499E-1,3.092145920E-2
6.316424460E2,4.637813568E-2,-6.650304794E-2,4.432392120E-2
6.321424460E2,-2.109384537E-2,8.378076553E-2,3.032588959E-2
6.326424460E2,2.066993713E-2,-3.476119041E-2,1.142835617E-2
6.331424460E2,9.327554703E-2,1.752188206E-1,-2.015352249E-2
6.336424460E2,-1.629018784E-2,-9.648537636E-2,1.193380356E-2
6.341424460E2,-6.190919876E-2,-6.648778915E-3,5.758142471E-2
6.346424460E2,2.307319641E-2,4.051971436E-2,2.498006821E-2
6.351424460E2,-2.324533463E-2,1.082921028E-2,2.830934525E-2
6.356424460E2,-1.555299759E-2,8.690357208E-4,4.207563400E-2
6.361424460E2,-1.068973541E-2,9.633851051E-2,2.169132233E-2
6.366424460E2,-2.296590805E-2,-4.531455040E-2,4.550981522E-2
6.371424460E2,4.222679138E-2,7.617473602E-4,2.043008804E-2
6.376424460E2,6.411218643E-2,-1.513171196E-2,-3.524160385E-2
6.381424460E2,-1.863956451E-3,5.259275436E-3,8.630752563E-3
6.386424460E2,-6.754398346E-3,1.915574074E-2,1.727628708E-2
6.391424460E2,1.490592957E-2,-1.863527298E-2,2.049160004E-2
6.396424460E2,1.208209991E-2,1.381587982E-2,-2.588748932E-3
6.401424460E2,2.138137817E-3,8.114099503E-3,1.055955887E-2
6.406424460E2,1.229953766E-2,7.907390594E-3,6.242752075E-3
6.411424460E2,3.685951233E-4,-1.563620567E-2,2.201557159E-3
6.416424460E2,-1.340436935E-2,2.324390411E-2,-8.218765259E-3
6.421424460E2,-3.329277039E-3,-9.817600250E-3,-6.896018982E-3
6.426424460E2,-1.280546188E-2,-1.551604271E-2,-8.583068848E-3
6.431424460E2,2.567291260E-3,1.018857956E-2,-4.231452942E-3
6.436424460E2,-1.366758347E-2,-5.271434784E-3,-1.566743851E-2
6.441424460E2,-4.120349884E-3,-1.066112518E-2,-3.962039948E-3
6.446424460E2,-9.432792664E-3,5.313634872E-3,1.478242874E-2
6.451424460E2,-2.022409439E-2,-7.334947586E-3,1.244592667E-2
6.456424460E2,-5.397319794E-3,5.869388580E-3,5.124568939E-3
6.461424460E2,1.200485229E-2,-3.558397293E-3,1.271867752E-2
6.466424460E2,-6.600856781E-3,6.606817245E-3,-8.916854858E-5
6.471424460E2,1.194095612E-2,-6.976366043E-3,6.020545959E-3
6.476424460E2,-3.156661987E-3,-4.219770432E-3,-1.115322113E-3
6.481424460E2,-6.831645966E-3,4.173517227E-3,-1.224565506E-2
6.486424460E2,-1.371860504E-3,3.968000412E-3,-5.869388580E-3
6.491424460E2,-1.782751083E-2,-4.552125931E-3,-1.310300827E-2
6.496424460E2,-3.274440765E-3,2.197980881E-3,-1.506853104E-2
6.501424460E2,-1.040410995E-2,6.057262421E-3,-2.450942993E-4
6.506424460E2,-4.331111908E-3,2.194166183E-3,-1.952648163E-3
6.511424460E2,1.764774323E-3,1.259088516E-3,-8.678436279E-4
6.516424460E2,-6.135463715E-3,-3.091096878E-3,7.266521454E-3
6.521424460E2,-4.495620728E-3,-1.205205917E-3,-4.309654236E-3
6.526424460E2,-5.153656006E-3,3.626585007E-3,-1.058578491E-2
6.531424460E2,-4.986763000E-3,-4.345417023E-3,1.125335693E-3
6.536424460E2,3.762245178E-3,6.299972534E-3,-1.243162155E-2
6.541424460E2,5.120277405E-3,-3.135204315E-3,7.923603058E-3
6.546424460E2,-2.253675461E-2,-2.363157272E-2,-1.173734665E-2
6.551424460E2,1.717095375E-1,9.520530701E-3,2.820153236E-1
6.556424460E2,6.700229645E-2,7.591724396E-3,1.678757668E-1
6.561424460E2,2.023077011E-2,2.980232239E-3,2.888536453E-2
6.566424460E2,8.527278900E-3,3.528833389E-3,1.646566391E-2
6.571424460E2,6.811141968E-3,1.122236252E-3,1.955509186E-3
6.576424460E2,2.553462982E-3,1.456975937E-3,-4.310607910E-3
6.581424460E2,-4.637241364E-3,-3.339052200E-3,4.506587982E-3
6.586424460E2,5.431175232E-3,2.955436707E-3,-4.244327545E-3
6.591424460E2,1.117706299E-3,-7.176160812E-3,2.276420593E-3
6.596424460E2,-1.402854919E-3,-1.688504219E-2,4.329204559E-3
6.601424460E2,9.018898010E-3,9.227514267E-3,-6.975650787E-3
6.606424460E2,-3.766536713E-3,1.318669319E-2,-3.594875336E-3
6.611424460E2,-1.235580444E-2,-3.535270691E-3,7.760524750E-3
6.616424460E2,2.786636353E-3,-1.328110695E-2,-5.621910095E-4
6.621424460E2,8.730411530E-3,7.587432861E-3,-4.639625549E-4
6.626424460E2,-1.043176651E-2,7.977008820E-3,6.955623627E-3
6.631424460E2,-2.100944519E-3,5.467891693E-3,7.846355438E-3
6.636424460E2,5.053043365E-3,3.073453903E-3,-2.982139587E-3
6.641424460E2,2.944946289E-3,-7.559061050E-3,-7.030010223E-3
6.646424460E2,4.314422607E-3,-3.873109818E-3,2.676010132E-3
6.651424460E2,1.884174347E-2,1.769733429E-2,1.930904388E-2
6.656424460E2,-8.749485016E-3,-1.869368553E-2,-5.822658539E-3
6.661424460E2,-9.913444519E-4,-5.576372147E-3,2.862453461E-3
6.666424460E2,-1.005649567E-3,3.495693207E-3,-6.449699402E-3
6.671424460E2,1.084566116E-2,1.291251183E-2,-1.022100449E-2
6.676424460E2,4.918098450E-3,-1.413893700E-2,2.621650696E-3
6.681424460E2,-6.314277649E-3,4.682540894E-4,-1.892137527E-2
6.686424460E2,2.383327484E-2,2.651429176E-2,3.768110275E-2
6.691424460E2,2.813529968E-2,3.139543533E-2,-2.286863327E-2
6.696424460E2,-2.906084061E-2,2.296757698E-2,-3.793239594E-3
6.701424460E2,-2.038002014E-2,-1.527762413E-2,-1.602602005E-2
6.706424460E2,-3.877639771E-3,-1.616334915E-2,3.314018250E-3
6.711424460E2,-2.351284027E-3,-5.602836609E-3,9.247779846E-3
6.716424460E2,7.220268250E-3,6.155490875E-3,5.329132080E-3
6.721424460E2,-3.934860229E-3,-6.883621216E-3,7.748603821E-4
6.726424460E2,5.821228027E-3,9.575843811E-3,2.783775330E-3
6.731424460E2,3.692150116E-3,1.771450043E-4,1.463890076E-3
6.736424460E2,3.787517548E-3,-4.910945892E-3,1.395225525E-3
6.741424460E2,3.969669342E-3,3.217220306E-3,-2.940177917E-3
6.746424460E2,-2.237796783E-3,-2.740383148E-3,1.168251038E-4
6.751424460E2,-3.037452698E-4,-1.319169998E-3,-2.563953400E-3
6.756424460E2,4.495143890E-3,2.819776535E-3,1.201629639E-4
6.761424460E2,-4.284858704E-3,-4.282712936E-3,-1.888751984E-3
6.766424460E2,1.121044159E-3,3.787517548E-3,-1.582145691E-3
6.771424460E2,1.945018768E-3,4.898548126E-3,-5.879402161E-4
6.776424460E2,-1.849174500E-3,3.035068512E-4,4.188537598E-3
6.781424460E2,1.908779144E-3,1.884698868E-3,2.968311310E-3
6.786424460E2,3.348350525E-3,4.486560822E-3,1.304149628E-3
6.791424460E2,8.044242859E-4,2.246141434E-3,2.276420593E-3
6.796424460E2,7.486343384E-4,3.621578217E-4,-1.798152924E-3
6.801424460E2,7.128715515E-4,-8.342266083E-4,8.926391602E-4
6.806424460E2,-2.219200134E-3,-2.424001694E-3,4.055976868E-3
6.811424460E2,2.222061157E-4,1.554727554E-3,-3.358840942E-3
6.816424460E2,3.715515137E-3,-1.559257507E-4,-2.851963043E-3
6.821424460E2,-2.965450287E-3,-1.782417297E-3,2.271175385E-3
6.826424460E2,8.826255798E-4,2.494096756E-3,1.051425934E-3
6.831424460E2,1.501560211E-3,-2.319812775E-4,-2.731800079E-3
6.836424460E2,1.893043518E-3,-3.878355026E-3,-8.907318115E-4
6.841424460E2,1.263618469E-3,2.126455307E-3,-8.540153503E-4
6.846424460E2,-1.601314545E-2,-2.098917961E-2,3.914499283E-2
6.851424460E2,9.183216095E-2,-1.924896240E-2,1.314563751E-1
6.856424460E2,1.700582504E-1,-2.560544014E-2,3.156740665E-1
6.861424460E2,1.217203140E-1,1.230359077E-2,1.762564182E-1
6.866424460E2,3.953075409E-2,1.732587814E-3,4.814887047E-2
6.871424460E2,1.977443695E-2,-1.203298569E-3,2.663683891E-2
6.876424460E2,-1.281738281E-3,2.069234848E-3,9.137392044E-3
6.881424460E2,-3.209114075E-3,1.137018204E-3,-4.473686218E-3
6.886424460E2,-6.017684937E-3,2.919435501E-3,-9.314060211E-3
6.891424460E2,-4.240989685E-3,1.418352127E-3,-6.650686264E-3
6.896424460E2,1.064014435E-2,3.197908401E-3,-2.534151077E-3
6.901424460E2,3.916740417E-3,-5.244493484E-3,9.713888168E-3
6.906424460E2,9.991645813E-3,-8.883714676E-3,9.465217590E-5
6.911424460E2,4.444122314E-4,3.513097763E-3,4.966735840E-3
6.916424460E2,7.502555847E-3,1.107406616E-2,3.590822220E-3
6.921424460E2,-1.079845428E-2,-7.777452469E-3,-1.294136047E-3
6.926424460E2,1.476669312E-2,1.746129990E-2,1.521039009E-2
6.931424460E2,-2.656555176E-2,8.706331253E-3,8.915185928E-3
6.936424460E2,-8.106231689E-5,6.190466881E-2,-3.629398346E-2
6.941424460E2,-2.799987793E-2,-1.196694374E-2,-1.247692108E-2
6.946424460E2,-1.940345764E-2,5.417561531E-2,-2.210831642E-2
6.951424460E2,-1.280117035E-2,3.275871277E-2,-8.568525314E-3
6.956424460E2,-7.812500000E-3,-2.951645851E-2,-1.614475250E-2
6.961424460E2,2.129459381E-2,-1.723384857E-2,-2.944755554E-2
6.966424460E2,-2.383041382E-2,5.336928368E-2,1.265048981E-2
6.971424460E2,1.637935638E-2,4.171156883E-2,-1.305699348E-2
6.976424460E2,-1.975536346E-2,3.628277779E-2,-3.837823868E-3
6.981424460E2,-9.185791016E-3,3.600430489E-2,1.085662842E-2
6.986424460E2,-4.604816437E-2,1.537919044E-2,3.325748444E-2
6.991424460E2,-1.356029510E-2,-1.199436188E-2,-4.779338837E-3
6.996424460E2,1.799964905E-2,1.176524162E-2,-3.802013397E-2
7.001424460E2,2.651691437E-2,-3.284716606E-2,-3.274011612E-2
7.006424460E2,4.169750214E-2,-5.100250244E-3,-4.674482346E-2
7.011424460E2,1.536083221E-2,-4.457449913E-2,-7.682466507E-2
7.016424460E2,2.317810059E-2,3.230166435E-2,-7.736730576E-2
7.021424460E2,-2.874469757E-2,-1.764464378E-2,1.032304764E-2
7.026424460E2,-2.816486359E-2,1.204848289E-2,-8.387088776E-3
7.031424460E2,-1.751422882E-2,-6.620883942E-4,-3.764629364E-2
7.036424460E2,2.971363068E-2,4.489183426E-2,-5.639123917E-2
7.041424460E2,-1.730728149E-2,9.063744545E-2,-2.469491959E-2
7.046424460E2,-2.776145935E-2,-7.550716400E-2,1.682758331E-3
7.051424460E2,-4.046726227E-2,3.370690346E-2,8.150577545E-3
7.056424460E2,-3.881263733E-2,-6.515717506E-2,-1.958703995E-2
7.061424460E2,-5.692958832E-2,-6.264376640E-2,-1.013755798E-3
7.066424460E2,-4.390144348E-2,-9.915328026E-2,-4.406309128E-2
7.071424460E2,-4.437446594E-3,-4.760909081E-2,-3.363847733E-2
7.076424460E2,-1.108646393E-2,-2.538990974E-2,3.808498383E-3
7.081424460E2,3.432369232E-2,-5.308413506E-2,-4.065465927E-2
7.086424460E2,8.705711365E-2,-4.744076729E-2,-7.824373245E-2
7.091424460E2,3.767490387E-2,-4.760718346E-2,-7.248353958E-2
7.096424460E2,1.265621185E-2,3.246688843E-2,-2.188682556E-2
7.101424460E2,2.539348602E-2,-5.895185471E-2,-2.819204330E-2
7.106424460E2,1.761245728E-2,3.474831581E-2,-4.036903381E-2
7.111424460E2,-1.485919952E-2,3.286290169E-2,-5.607604980E-3
7.116424460E2,5.353927612E-3,8.238053322E-2,-2.907514572E-2
7.121424460E2,-9.890651703E-2,2.102899551E-2,-9.403228760E-3
7.126424460E2,-3.025913239E-2,5.691528320E-3,-8.663606644E-2
7.131424460E2,-1.003456116E-1,-2.598214149E-2,-1.800060272E-2
7.136424460E2,-5.097866058E-2,2.900862694E-2,5.857229233E-2
7.141424460E2,2.678585052E-2,2.430915833E-2,-5.819797516E-3
7.146424460E2,1.156425476E-2,5.186152458E-2,-7.685184479E-3
7.151424460E2,-5.989933014E-2,-7.637739182E-2,6.404399872E-3
7.156424460E2,-1.133155823E-2,1.980283260E-1,5.490159988E-2
7.161424460E2,-9.068489075E-3,6.131458282E-2,3.193235397E-2
7.166424460E2,-4.643440247E-3,-4.142093658E-2,-2.158498764E-2
7.171424460E2,1.051425934E-2,-1.180140972E-1,-5.674982071E-2
7.176424460E2,-4.144382477E-2,-3.897881508E-2,3.340578079E-2
7.181424460E2,-6.493091583E-2,-3.366065025E-2,7.203292847E-2
7.186424460E2,-1.123414040E-1,-1.711032391E-1,4.892396927E-2
7.191424460E2,-1.897430420E-2,-1.249501705E-1,-4.820489883E-2
7.196424460E2,3.818607330E-2,-1.104247570E-1,-4.994392395E-2
7.201424460E2,-6.760501862E-2,-1.450920105E-1,-3.346443176E-3
7.206424460E2,4.376411438E-2,2.275943756E-3,-1.548194885E-2
7.211424460E2,-4.342365265E-2,3.374743462E-2,3.117036819E-2
7.216424460E2,6.849384308E-2,4.222631454E-2,-1.836776733E-3
7.221424460E2,-4.594707489E-2,7.232117653E-2,2.999782562E-3
7.226424460E2,5.070209503E-2,-6.454491615E-2,1.261806488E-2
7.231424460E2,7.377195358E-2,-8.403301239E-3,1.205158234E-2
7.236424460E2,7.095432281E-2,-6.350040436E-2,-4.900169373E-2
7.241424460E2,4.493808746E-2,-9.263134003E-2,-6.518173218E-2
7.246424460E2,-8.550214767E-2,-2.227528095E-1,-5.401134491E-3
7.251424460E2,-8.792400360E-2,1.748547554E-1,7.563972473E-2
7.256424460E2,-6.612586975E-2,4.127478600E-2,5.285978317E-2
7.261424460E2,-1.734099388E-1,2.398490906E-4,7.097530365E-2
7.266424460E2,1.942148209E-1,5.400633812E-2,-7.768058777E-2
7.271424460E2,2.021312714E-2,2.310514450E-3,-6.084918976E-3
7.276424460E2,2.121887207E-1,-6.906604767E-2,-8.274984360E-2
7.281424460E2,1.302366257E-1,-1.143264771E-2,5.163431168E-2
7.286424460E2,1.104831696E-1,1.864573956E-1,6.641912460E-2
7.291424460E2,1.256847382E-2,1.465923786E-1,6.012916565E-3
7.296424460E2,-9.925985336E-2,8.319163322E-2,3.106594086E-3
7.301424460E2,-7.544755936E-2,-1.596665382E-2,1.746129990E-2
7.306424460E2,8.510589600E-3,5.710363388E-3,-1.781463623E-2
7.311424460E2,1.062536240E-1,1.370859146E-2,-7.154464722E-2
7.316424460E2,1.256999969E-1,-1.714682579E-2,-5.439758301E-2
7.321424460E2,3.485584259E-2,-3.360295296E-2,6.660509109E-2
7.326424460E2,4.027366638E-3,-1.340460777E-2,3.767824173E-2
7.331424460E2,-1.161813736E-1,-3.357148170E-2,-8.547925949E-2
7.336424460E2,4.777812958E-2,-1.241040230E-2,-6.218051910E-2
7.341424460E2,2.764511108E-2,-7.089495659E-2,-4.865837097E-2
7.346424460E2,5.071830750E-2,1.189422607E-1,-5.100774765E-2
7.351424460E2,-1.409106255E-1,-1.670634747E-1,-3.851699829E-2
7.356424460E2,1.071758270E-1,2.530550957E-2,-3.716945648E-3
7.361424460E2,-5.580043793E-2,-7.397770882E-2,5.578899384E-2
7.366424460E2,-2.213573456E-2,3.587198257E-2,-4.038524628E-2
7.371424460E2,-9.559535980E-2,9.385824203E-3,5.103063583E-2
7.376424460E2,-6.849670410E-2,4.190659523E-2,9.231519699E-2
7.381424460E2,-7.586622238E-2,-6.040096283E-3,5.000114441E-3
7.386424460E2,2.661466599E-2,-6.591987610E-2,-5.998277664E-2
7.391424460E2,1.064925194E-1,-2.180027962E-2,-7.423925400E-2
7.396424460E2,4.862213135E-2,-7.675719261E-2,-7.322120667E-2
7.401424460E2,2.470874786E-2,3.864741325E-2,3.615236282E-2
7.406424460E2,2.332592010E-2,1.243436337E-1,9.922981262E-4
7.411424460E2,-6.696748734E-2,-1.187825203E-2,-3.923988342E-2
7.416424460E2,-1.789188385E-2,3.390383720E-2,-2.579164505E-2
7.421424460E2,-6.330537796E-2,6.518292427E-2,1.767969131E-2
7.426424460E2,9.650230408E-3,7.619309425E-2,5.022525787E-3
7.431424460E2,-2.969264984E-2,7.754874229E-2,-1.623678207E-2
7.436424460E2,-4.896593094E-2,-5.743312836E-2,-1.598215103E-2
7.441424460E2,-5.713224411E-2,2.913403511E-2,9.242057800E-3
7.446424460E2,-5.861711502E-2,-8.571052551E-2,1.116037369E-2
7.451424460E2,-4.129505157E-2,-3.281974792E-2,5.691957474E-2
7.456424460E2,-1.054477692E-2,-1.040558815E-1,-4.095554352E-3
7.461424460E2,-6.532669067E-4,-3.685593605E-2,-7.864475250E-3
7.466424460E2,6.797790527E-3,3.040862083E-2,-3.353834152E-2
7.471424460E2,1.396179199E-3,-3.765130043E-2,1.106023788E-2
7.476424460E2,3.131198883E-2,1.821327209E-2,1.513957977E-2
7.481424460E2,2.819538116E-2,2.146983147E-2,5.529880524E-3
7.486424460E2,-3.982162476E-2,-5.750346184E-2,-5.914497375E-2
7.491424460E2,3.543949127E-2,1.030690670E-1,3.785753250E-2
7.496424460E2,-2.854871750E-2,-2.775454521E-2,-1.875686646E-2
7.501424460E2,-6.253719330E-3,-6.952524185E-3,-3.931903839E-2
7.506424460E2,-1.807212830E-4,-1.068878174E-2,-1.193733215E-1
7.511424460E2,2.710485458E-2,4.606151581E-2,-2.652788162E-2
7.516424460E2,7.327079773E-3,1.066660881E-2,-3.261852264E-2
7.521424460E2,-2.708292007E-2,4.984164238E-2,-1.043653488E-2
7.526424460E2,5.197763443E-2,1.546187401E-1,-2.225112915E-2
7.531424460E2,1.224851608E-2,2.677416801E-2,-5.674171448E-2
7.536424460E2,5.826473236E-3,2.533161640E-1,2.390384674E-3
7.541424460E2,2.531242371E-2,2.698907852E-1,-6.504964828E-2
7.546424460E2,-8.538484573E-2,1.128869057E-1,4.453945160E-2
7.551424460E2,-3.389358521E-3,-7.225012779E-2,3.099393845E-2
7.556424460E2,-5.681753159E-2,-1.628341675E-1,-2.790784836E-2
7.561424460E2,7.453393936E-2,-4.375934601E-3,-7.496595383E-2
7.566424460E2,-1.404094696E-2,9.693145752E-3,5.339097977E-2
7.571424460E2,-2.654027939E-2,4.562544823E-2,6.540632248E-2
7.576424460E2,-1.171827316E-2,-9.001207352E-2,-1.647758484E-2
7.581424460E2,6.646203995E-2,5.090951920E-2,-4.205560684E-2
7.586424460E2,-8.349418640E-4,3.646874428E-2,-2.403116226E-2
7.591424460E2,1.448678970E-2,-2.560615540E-3,-3.169870377E-2
7.596424460E2,-1.790857315E-2,1.007795334E-1,-1.855754852E-2
7.601424460E2,-1.849603653E-2,-5.677032471E-2,-2.122259140E-2
7.606424460E2,4.714012146E-3,-4.309129715E-2,-6.875514984E-3
7.611424460E2,-4.262590408E-2,-5.188202858E-2,1.923942566E-2
7.616424460E2,-7.971286774E-3,1.963543892E-2,1.796674728E-2
7.621424460E2,-7.836198807E-2,2.107572556E-2,5.216836929E-2
7.626424460E2,3.875732422E-3,1.828026772E-2,4.706525803E-2
7.631424460E2,-1.595067978E-2,-1.841640472E-2,2.823686600E-2
7.636424460E2,-5.256652832E-3,5.933356285E-2,-6.529331207E-3
7.641424460E2,-1.628875732E-2,-7.253336906E-2,-1.230669022E-2
7.646424460E2,6.870269775E-3,4.373288155E-2,-4.553318024E-3
7.651424460E2,-6.520748138E-3,2.614498138E-3,-1.141595840E-2
7.656424460E2,2.720880508E-2,1.521754265E-2,-7.884168625E-2
7.661424460E2,-3.068685532E-2,-8.750748634E-2,2.716112137E-2
7.666424460E2,4.564857483E-2,4.434633255E-2,8.264541626E-3
7.671424460E2,-3.981590271E-4,-1.479423046E-1,1.524209976E-2
7.676424460E2,6.552362442E-2,8.719897270E-2,7.612705231E-3
7.681424460E2,1.830577850E-2,1.571869850E-2,2.376794815E-2
7.686424460E2,5.774497986E-3,-1.589536667E-2,-4.895257950E-2
7.691424460E2,1.342678070E-2,4.805803299E-3,-2.357959747E-2
7.696424460E2,1.181411743E-2,5.909371376E-2,-6.256103516E-2
7.701424460E2,1.351356506E-2,5.964684486E-2,-5.959987640E-3
7.706424460E2,-7.583618164E-3,-1.644730568E-2,-2.628898621E-2
7.711424460E2,3.481817245E-2,2.133202553E-2,-2.159452438E-2
7.716424460E2,-5.648612976E-3,-5.063366890E-2,6.601810455E-3
7.721424460E2,-1.616621017E-2,2.827167511E-2,-6.090307236E-2
7.726424460E2,-8.552169800E-2,-1.737666130E-2,-1.000056267E-1
7.731424460E2,-6.540203094E-2,2.815413475E-2,-4.817056656E-2
7.736424460E2,2.603435516E-2,1.740217209E-3,5.269098282E-2
7.741424460E2,-1.661682129E-2,-2.626442909E-2,-1.569890976E-2
7.746424460E2,5.785322189E-2,2.591466904E-2,-8.509159088E-3
7.751424460E2,3.130769730E-2,-1.536273956E-2,3.050041199E-2
7.756424460E2,7.956027985E-3,-1.834583282E-2,5.001211166E-2
7.761424460E2,2.429628372E-2,1.629161835E-2,2.732515335E-2
7.766424460E2,1.055049896E-2,1.056170464E-2,3.528785706E-2
7.771424460E2,-2.872467041E-3,-2.610683441E-3,1.526069641E-2
7.776424460E2,7.132053375E-3,2.697229385E-3,1.688337326E-2
7.781424460E2,-7.443904877E-3,-5.674123764E-3,1.468229294E-2
7.786424460E2,1.132202148E-2,-2.546072006E-3,-9.853839874E-3
7.791424460E2,1.830101013E-3,1.100039482E-2,3.723144531E-3
7.796424460E2,1.180076599E-2,-2.315521240E-3,-4.766941071E-3
7.801424460E2,3.953933716E-3,1.833438873E-4,1.305103302E-2
7.806424460E2,1.661109924E-2,1.285552979E-3,6.013393402E-3
7.811424460E2,1.346921921E-2,-7.507801056E-4,1.208591461E-2
7.816424460E2,-4.558563232E-4,2.202272415E-3,5.169391632E-3
7.821424460E2,-3.401279449E-3,-2.317667007E-3,6.383419037E-3
7.826424460E2,-3.029346466E-3,3.955364227E-4,-1.070499420E-3
7.831424460E2,1.007938385E-2,3.638982773E-3,3.408432007E-3
7.836424460E2,-1.673698425E-3,-1.856565475E-3,-6.794929504E-3
7.841424460E2,-1.266860962E-2,2.381801605E-4,-1.604080200E-3
7.846424460E2,5.699157715E-3,2.459526062E-3,-1.871109009E-2
7.851424460E2,7.048130035E-3,5.570411682E-3,1.478195190E-5
7.856424460E2,-4.281520844E-3,-6.414651871E-3,-4.580974579E-3
7.861424460E2,-4.249572754E-3,1.101183891E-2,-5.319118500E-3
7.866424460E2,-2.079486847E-3,6.480455399E-3,8.921623230E-4
7.871424460E2,-1.697206497E-2,-2.651929855E-3,-4.011631012E-3
7.876424460E2,3.390789032E-3,8.890151978E-3,8.900642395E-3
7.881424460E2,-5.350589752E-3,-4.852533340E-3,-1.209926605E-2
7.886424460E2,-5.898475647E-4,-8.077621460E-4,-4.787445068E-3
7.891424460E2,1.374530792E-2,3.136873245E-3,-7.764339447E-3
7.896424460E2,-6.025791168E-3,9.470224380E-3,6.656169891E-3
7.901424460E2,-2.126121521E-2,-8.933544159E-4,-8.063793182E-3
7.906424460E2,-3.297328949E-3,5.132675171E-3,-1.759481430E-2
7.911424460E2,1.297426224E-2,1.969099045E-3,6.674289703E-3
7.916424460E2,7.258415222E-3,-9.123086929E-3,2.405977249E-2
7.921424460E2,1.210589409E-1,1.252794266E-2,1.256418228E-1
7.926424460E2,4.364109039E-2,-2.886319160E-2,-7.052421570E-3
7.931424460E2,1.413869858E-2,-2.369403839E-3,2.248334885E-2
7.936424460E2,4.272460938E-4,-2.215147018E-3,5.753517151E-3
7.941424460E2,8.502960205E-3,2.157926559E-3,3.279209137E-3
7.946424460E2,1.148223877E-3,-3.157854080E-3,-2.273082733E-3
7.951424460E2,-2.359390259E-3,-7.288694382E-3,-3.008842468E-4
7.956424460E2,1.893043518E-3,1.228356361E-2,9.033679962E-3
7.961424460E2,6.681442261E-3,-6.540536880E-3,8.610248566E-3
7.966424460E2,-1.173925400E-2,-8.814334869E-3,7.890701294E-3
7.971424460E2,3.755092621E-3,5.204677582E-4,9.884834290E-4
7.976424460E2,-1.153898239E-2,-3.997278214E-2,8.106708527E-3
7.981424460E2,2.252912521E-2,-1.217365265E-3,-1.079463959E-2
7.986424460E2,-1.886796951E-2,-2.748870850E-2,1.136827469E-2
7.991424460E2,-2.763271332E-3,9.554624557E-3,9.078025818E-3
7.996424460E2,5.974292755E-3,2.510786057E-3,3.015995026E-3
8.001424460E2,-1.215934753E-4,-9.100675583E-3,9.623527527E-3
8.006424460E2,-7.810592651E-4,1.042056084E-2,1.054286957E-3
8.011424460E2,3.552913666E-3,7.825613022E-3,-9.007453918E-4
8.016424460E2,4.089832306E-3,-1.256060600E-2,5.847454071E-3
8.021424460E2,-6.706237793E-3,4.847049713E-4,6.640911102E-3
8.026424460E2,3.066062927E-4,8.535385132E-4,4.517078400E-3
8.031424460E2,-1.478195190E-5,2.903223038E-3,1.659870148E-3
8.036424460E2,-4.472255707E-3,6.383657455E-3,-1.711845398E-4
8.041424460E2,1.590728760E-3,-4.954099655E-3,-4.566669464E-3
8.046424460E2,6.989955902E-3,-4.184961319E-3,8.187294006E-4
8.051424460E2,3.039360046E-3,4.978179932E-4,-2.223491669E-3
8.056424460E2,-3.290176392E-4,5.368232727E-3,-2.975940704E-3
8.061424460E2,3.689289093E-3,1.002788544E-2,5.917549133E-4
8.066424460E2,-8.743762970E-3,2.432584763E-3,3.919124603E-3
8.071424460E2,4.768371582E-4,2.044677734E-3,2.798557281E-3
8.076424460E2,-1.850128174E-3,-1.249074936E-3,3.706455231E-3
8.081424460E2,-1.741409302E-3,2.244710922E-3,9.951591492E-4
8.086424460E2,-1.913547516E-3,-3.764629364E-4,1.663684845E-3
8.091424460E2,9.412765503E-4,9.369850159E-5,1.743793488E-3
8.096424460E2,4.124641418E-3,4.663705826E-3,-2.999305725E-4
8.101424460E2,-3.771305084E-3,-1.124620438E-3,2.902507782E-3
8.106424460E2,-1.550197601E-3,6.798982620E-3,3.695964813E-3
8.111424460E2,1.651287079E-3,-5.865097046E-5,2.696990967E-3
8.116424460E2,-5.245208740E-5,-2.079010010E-3,2.604961395E-3
8.121424460E2,6.549358368E-3,-2.186059952E-3,-1.384258270E-3
8.126424460E2,4.121303558E-3,9.415149689E-4,-2.745628357E-3
8.131424460E2,6.922721863E-3,1.714944839E-3,-7.183551788E-3
8.136424460E2,6.622791290E-3,3.824472427E-3,4.510879517E-4
8.141424460E2,-4.382610321E-3,-7.193088531E-4,-1.635551453E-4
8.146424460E2,3.551959991E-3,-2.791643143E-3,2.436161041E-3
8.151424460E2,4.222869873E-3,-3.607273102E-4,-4.711627960E-3
8.156424460E2,-2.256393433E-3,1.885890961E-3,2.600193024E-3
8.161424460E2,-2.175807953E-3,-1.870870590E-3,3.723144531E-3
8.166424460E2,5.443572998E-3,-1.559257507E-4,5.722045898E-5
8.171424460E2,3.792762756E-3,4.410028458E-3,1.974582672E-3
8.176424460E2,9.379386902E-4,1.605987549E-3,2.768039703E-3
8.181424460E2,2.645969391E-3,-2.342939377E-3,-8.058547974E-5
8.186424460E2,-8.751869202E-3,-2.863645554E-3,3.986835480E-3
8.191424460E2,7.504558563E-2,-2.637076378E-2,5.743932724E-2
8.196424460E2,1.051988602E-1,-1.898765564E-2,1.286921501E-1
8.201424460E2,6.635570526E-2,2.682209015E-3,1.212744713E-1
8.206424460E2,3.619289398E-2,4.715204239E-3,5.637121201E-2
8.211424460E2,1.436042786E-2,4.502534866E-3,1.688623428E-2
8.216424460E2,1.312351227E-2,-4.130601883E-3,9.752750397E-3
8.221424460E2,-1.314163208E-3,3.563165665E-3,1.059007645E-2
8.226424460E2,-9.248733521E-3,-6.680488586E-3,5.347728729E-3
8.231424460E2,1.587867737E-3,1.462697983E-3,-8.876323700E-3
8.236424460E2,1.344680786E-3,-5.276203156E-3,-8.749961853E-4
8.241424460E2,-6.508827209E-3,2.381801605E-4,-1.548290253E-3
8.246424460E2,-1.475334167E-3,-1.672744751E-3,-3.133773804E-3
8.251424460E2,-1.066780090E-2,1.181840897E-3,2.019405365E-3
8.256424460E2,-1.166820526E-2,-1.444578171E-3,-1.620769501E-3
8.261424460E2,-9.591102600E-3,-7.402896881E-4,-4.225254059E-3
8.266424460E2,-2.822875977E-4,-1.732587814E-3,-3.523349762E-3
8.271424460E2,2.617835999E-3,-3.545045853E-3,-4.955768585E-3
8.276424460E2,-5.801200867E-3,-1.084613800E-2,7.240295410E-3
8.281424460E2,1.239490509E-2,5.719900131E-3,-5.164146423E-4
8.286424460E2,1.126289368E-3,-7.673978806E-3,3.695964813E-3
8.291424460E2,-1.413345337E-3,-2.260684967E-3,8.914470673E-3
8.296424460E2,-4.326820374E-3,-1.180410385E-3,2.603054047E-3
8.301424460E2,1.905727386E-2,1.261925697E-2,-2.888679504E-3
8.306424460E2,-9.373664856E-3,-2.380084991E-2,1.050043106E-2
8.311424460E2,1.477527618E-2,-2.269506454E-3,-2.663612366E-3
8.316424460E2,1.090335846E-2,2.145075798E-2,-1.885414124E-2
8.321424460E2,-7.722854614E-3,-2.868509293E-2,8.023262024E-3
8.326424460E2,-2.354621887E-3,-9.262323380E-3,1.061916351E-3
8.331424460E2,-8.824348450E-3,3.061294556E-4,9.342670441E-3
8.336424460E2,-2.260208130E-4,1.850318909E-2,-6.730556488E-3
8.341424460E2,-2.117156982E-4,-1.714301109E-2,-5.736351013E-4
8.346424460E2,3.490924835E-2,3.162074089E-2,-1.356267929E-2
8.351424460E2,-3.325176239E-2,-5.242323875E-2,7.503986359E-3
8.356424460E2,-5.116462708E-3,-4.472088814E-2,-2.208137512E-2
8.361424460E2,-2.212238312E-2,3.192591667E-2,1.912736893E-2
8.366424460E2,9.420394897E-3,-3.009796143E-2,2.828121185E-3
8.371424460E2,-4.056167603E-2,-2.135992050E-2,-5.491733551E-3
8.376424460E2,-2.684783936E-2,-1.040315628E-1,-3.500461578E-3
8.381424460E2,2.385616302E-2,-4.443168640E-3,1.360750198E-2
8.386424460E2,-5.203247070E-3,-3.477597237E-2,2.488613129E-2
8.391424460E2,5.575084686E-2,6.358385086E-3,-4.400491714E-2
8.396424460E2,2.571678162E-2,1.057910919E-2,-1.705837250E-2
8.401424460E2,1.398181915E-2,1.514036655E-1,3.760814667E-3
8.406424460E2,6.869602203E-2,-2.058434486E-2,3.075838089E-2
8.411424460E2,4.171466827E-2,1.676106453E-1,1.778316498E-2
8.416424460E2,-3.561306000E-2,-7.758021355E-2,5.211734772E-2
8.421424460E2,9.565639496E-2,1.468849182E-2,-3.361368179E-2
8.426424460E2,-5.302906036E-2,-1.768040657E-2,1.503896713E-2
8.431424460E2,2.679347992E-2,-5.338072777E-2,-5.904865265E-2
8.436424460E2,4.817962646E-2,6.611657143E-2,1.593017578E-2
8.441424460E2,-2.539539337E-2,-1.157474518E-1,-1.593255997E-2
8.446424460E2,8.775424957E-2,1.197490692E-1,-2.306032181E-2
8.451424460E2,-1.363134384E-1,-1.741504669E-1,2.315568924E-2
8.456424460E2,2.089786530E-2,1.980512142E-1,9.780406952E-3
8.461424460E2,-3.108310699E-2,-2.204394341E-2,-1.902151108E-2
8.466424460E2,-4.068660736E-2,8.097434044E-2,4.694700241E-2
8.471424460E2,-9.030056000E-2,3.416943550E-2,2.871513367E-2
8.476424460E2,-6.065082550E-2,5.809593201E-2,4.182577133E-2
8.481424460E2,-9.029197693E-2,-4.789209366E-2,1.400232315E-2
8.486424460E2,-2.313995361E-2,8.089065552E-3,7.211208344E-3
8.491424460E2,-6.925487518E-2,-9.396409988E-2,2.955484390E-2
8.496424460E2,2.772808075E-2,-5.639147758E-2,1.613712311E-2
8.501424460E2,-1.910495758E-2,-3.082013130E-2,-1.247167587E-2
8.506424460E2,-8.256912231E-3,-3.309249878E-3,-9.332180023E-3
8.511424460E2,-1.146574020E-1,-3.746819496E-2,5.130815506E-2
8.516424460E2,-7.478713989E-2,4.139971733E-2,2.306032181E-2
8.521424460E2,1.622867584E-2,3.966546059E-2,-3.756999969E-3
8.526424460E2,1.599597931E-2,4.167628288E-2,-4.536008835E-2
8.531424460E2,-1.076602936E-2,1.589107513E-2,-2.206373215E-2
8.536424460E2,-1.443481445E-2,-5.943989754E-2,-1.122279167E-1
8.541424460E2,-2.090239525E-1,3.311514854E-2,-1.436948776E-2
8.546424460E2,-1.319632530E-1,2.627944946E-2,-8.489751816E-2
8.551424460E2,7.222652435E-3,8.885741234E-2,-5.302238464E-2
8.556424460E2,3.063297272E-2,7.430863380E-2,-6.788396835E-2
8.561424460E2,1.291141510E-1,2.079663277E-1,-3.218793869E-2
8.566424460E2,-4.928064346E-2,5.927658081E-2,-1.090569496E-1
8.571424460E2,-3.235101700E-2,2.171278000E-2,1.887512207E-2
8.576424460E2,-2.362918854E-2,3.805875778E-3,-5.537652969E-2
8.581424460E2,-2.418470383E-2,-8.696675301E-2,2.939224243E-2
8.586424460E2,-3.872823715E-2,7.198524475E-2,-7.702827454E-3
8.591424460E2,3.935337067E-3,9.797167778E-2,-2.888202667E-3
8.596424460E2,2.196159363E-1,1.824247837E-1,-1.503443718E-1
8.601424460E2,-7.947826385E-2,-1.148786545E-1,1.370096207E-2
8.606424460E2,8.987522125E-2,-1.220519543E-1,6.415843964E-3
8.611424460E2,-1.287984848E-2,8.572626114E-2,6.905317307E-2
8.616424460E2,5.775070190E-2,2.100524902E-1,-8.790540695E-2
8.621424460E2,-1.994462013E-1,-8.197665215E-2,7.093381882E-2
8.626424460E2,-1.117382050E-1,1.932597160E-2,1.459879875E-1
8.631424460E2,-9.203529358E-2,1.756505966E-1,2.101416588E-1
8.636424460E2,1.505479813E-1,-8.383202553E-2,-1.572799683E-1
8.641424460E2,1.617984772E-1,-1.012206078E-2,-1.443133354E-1
8.646424460E2,-1.766681671E-2,-3.636336327E-2,3.841161728E-2
8.651424460E2,7.412433624E-2,6.677150726E-3,1.000051498E-1
8.656424460E2,1.988706589E-1,5.501508713E-3,-3.958654404E-2
8.661424460E2,1.351633072E-1,-3.476858139E-3,-9.666490555E-2
8.666424460E2,7.462501526E-2,-1.324119568E-1,-1.032042503E-1
8.671424460E2,1.686954498E-2,3.864836693E-2,8.166360855E-2
8.676424460E2,-1.493072510E-2,-2.100832462E-1,1.279258728E-2
8.681424460E2,-3.247737885E-2,-8.231401443E-3,-1.896047592E-2
8.686424460E2,-8.983993530E-2,-2.414727211E-2,-8.811426163E-2
8.691424460E2,2.766895294E-2,-1.255614758E-1,-5.132532120E-2
8.696424460E2,-9.833145142E-2,1.541104317E-1,-3.681612015E-2
8.701424460E2,-1.446170807E-1,-6.239318848E-2,-1.876597404E-1
8.706424460E2,4.099178314E-2,5.355930328E-2,4.819202423E-2
8.711424460E2,3.158855438E-2,1.061899662E-1,-3.859233856E-2
8.716424460E2,4.672718048E-2,-6.715869904E-2,-7.681369781E-3
8.721424460E2,7.399654388E-2,-1.238107681E-3,-1.633119583E-2
8.726424460E2,-1.380968094E-1,-4.131317139E-3,9.096002579E-2
8.731424460E2,1.130800247E-1,1.138544083E-2,-4.567432404E-2
8.736424460E2,-1.834440231E-1,-2.041792870E-2,1.922593117E-1
8.741424460E2,-3.152656555E-2,1.028254032E-1,-3.800201416E-2
8.746424460E2,-1.392393112E-1,-3.951096535E-2,5.982542038E-2
8.751424460E2,1.289777756E-1,-1.060891151E-1,-1.519007683E-1
8.756424460E2,-3.774456978E-1,2.267794609E-1,2.419271469E-1
8.761424460E2,-2.637004852E-2,2.095997334E-1,1.009478569E-1
8.766424460E2,-2.693867683E-1,1.530668736E-1,1.163916588E-1
8.771424460E2,5.330648422E-1,-2.613544464E-1,-2.306132317E-1
8.776424460E2,1.553983688E-1,1.329016685E-2,-3.008508682E-2
8.781424460E2,2.947616577E-2,-1.154406071E-1,2.032899857E-2
8.786424460E2,7.116127014E-2,1.013851166E-1,-4.132127762E-2
8.791424460E2,3.641986847E-2,-3.309845924E-2,1.797294617E-2
8.796424460E2,1.101331711E-1,9.032511711E-2,5.865812302E-2
8.801424460E2,1.141166687E-2,2.901077271E-3,2.670907974E-2
8.806424460E2,8.524894714E-3,5.268335342E-3,7.105827332E-3
8.811424460E2,-2.887725830E-3,-1.028544903E-1,1.288366318E-2
8.816424460E2,-1.236534119E-2,-6.392168999E-2,-1.296539307E-1
8.821424460E2,-8.999443054E-2,1.905679703E-3,-5.461835861E-2
8.826424460E2,-2.605342865E-2,-1.094272137E-1,-1.275920868E-1
8.831424460E2,-6.282186508E-2,-1.629953384E-1,-6.023454666E-2
8.836424460E2,-8.143806458E-2,-6.473374367E-2,-1.037573814E-1
8.841424460E2,-8.296251297E-2,-2.892112732E-2,-2.825975418E-2
8.846424460E2,-3.401470184E-2,4.987311363E-2,-6.128025055E-2
8.851424460E2,-1.450300217E-2,1.840114594E-3,6.090021133E-2
8.856424460E2,-8.626794815E-2,3.004622459E-2,-6.595134735E-3
8.861424460E2,-5.681037903E-3,8.813142776E-3,3.240442276E-2
8.866424460E2,-2.409982681E-2,5.835771561E-3,-2.410364151E-2
8.871424460E2,-7.211780548E-2,1.599669456E-2,-7.730960846E-3
8.876424460E2,-3.999853134E-2,7.590174675E-2,3.033638000E-2
8.881424460E2,3.662729263E-2,-5.367279053E-3,7.586956024E-3
8.886424460E2,6.453466415E-2,-8.872866631E-2,-6.811618805E-3
8.891424460E2,2.997064590E-2,-1.793265343E-2,-1.881122589E-2
8.896424460E2,6.323337555E-3,-5.797743797E-2,2.414464951E-2
8.901424460E2,-2.059030533E-2,-3.848242760E-2,1.334142685E-2
8.906424460E2,9.601593018E-3,8.745431900E-3,5.287981033E-2
8.911424460E2,-1.360034943E-2,-2.544045448E-2,4.947853088E-2
8.916424460E2,4.202079773E-2,-1.463150978E-2,1.402711868E-2
8.921424460E2,1.308917999E-2,2.595019341E-2,-2.352571487E-2
8.926424460E2,-5.228376389E-2,3.444242477E-2,1.710844040E-2
8.931424460E2,1.273250580E-2,-4.632902145E-2,-4.640388489E-2
8.936424460E2,6.315231323E-3,4.102087021E-2,-1.905632019E-2
8.941424460E2,4.486179352E-2,5.399346352E-2,9.665012360E-3
8.946424460E2,-9.791374207E-3,-5.115580559E-2,1.812028885E-2
8.951424460E2,1.816463470E-2,-5.271840096E-2,-1.885604858E-2
8.956424460E2,7.931184769E-2,-5.829286575E-2,-7.012510300E-2
8.961424460E2,1.112241745E-1,-1.128783226E-1,-5.736970901E-2
8.966424460E2,-9.065580368E-2,-5.743265152E-3,4.948854446E-2
8.971424460E2,1.187753677E-2,3.344631195E-2,-4.920434952E-2
8.976424460E2,-1.217303276E-1,1.900863647E-2,4.509162903E-2
8.981424460E2,-9.525299072E-2,-1.608130932E-1,4.172658920E-2
8.986424460E2,9.522819519E-2,2.159149647E-1,-1.627349854E-2
8.991424460E2,-2.983665466E-2,7.902550697E-2,-4.470920563E-2
8.996424460E2,-1.919832230E-1,2.768509388E-1,6.172800064E-2
9.001424460E2,4.898166656E-2,-1.421103477E-1,-7.857847214E-2
9.006424460E2,1.255669594E-1,-1.131167412E-1,-4.832935333E-2
9.011424460E2,9.124565125E-2,8.156251907E-2,-3.024721146E-2
9.016424460E2,-2.406954765E-1,3.866076469E-2,2.022118568E-1
9.021424460E2,9.164428711E-2,1.269984245E-2,-9.453296661E-3
9.026424460E2,1.006312370E-1,-1.397058964E-1,-8.558034897E-2
9.031424460E2,2.727985382E-3,5.760240555E-2,-4.554653168E-2
9.036424460E2,-2.554798126E-2,4.096007347E-2,-1.509127617E-1
9.041424460E2,1.382427216E-1,1.386880875E-2,-7.902193069E-2
9.046424460E2,1.316676140E-1,1.797001362E-1,-1.948342323E-1
9.051424460E2,-2.252736092E-1,-9.304285049E-2,1.505851746E-1
9.056424460E2,-3.361606598E-2,2.256927490E-1,3.471422195E-2
9.061424460E2,2.003145218E-2,-4.373812675E-2,1.548910141E-2
9.066424460E2,-8.812427521E-3,1.158635616E-1,-8.328342438E-2
9.071424460E2,-1.302433014E-2,4.222822189E-2,-1.463966370E-1
9.076424460E2,4.423332214E-2,2.415609360E-2,-5.259513855E-2
9.081424460E2,3.234386444E-3,3.853631020E-2,8.188867569E-2
9.086424460E2,6.142187119E-2,3.328740597E-1,3.287267685E-2
9.091424460E2,-8.231592178E-2,-4.482936859E-2,1.571412086E-1
9.096424460E2,-5.176687241E-2,7.290530205E-2,1.023278236E-1
9.101424460E2,8.597993851E-2,-9.128928185E-2,-5.538129807E-2
9.106424460E2,1.273865700E-1,3.450632095E-3,-1.154212952E-1
9.111424460E2,-1.318669319E-1,-3.970456123E-2,1.457867622E-1
9.116424460E2,1.549887657E-1,2.378344536E-2,-6.973314285E-2
9.121424460E2,-3.597307205E-2,1.545262337E-2,-4.919528961E-3
9.126424460E2,-1.721143723E-1,-1.659083366E-2,1.293015480E-1
9.131424460E2,-1.255130768E-2,1.159198284E-1,2.722883224E-2
9.136424460E2,-1.214919090E-1,-1.437473297E-1,8.612775803E-2
9.141424460E2,8.056688309E-2,1.797850132E-1,8.574390411E-2
9.146424460E2,-6.293344498E-2,-1.501591206E-1,1.102762222E-1
9.151424460E2,-1.451492310E-3,1.766145229E-1,1.949295998E-1
9.156424460E2,9.139394760E-2,-1.101367474E-1,7.245874405E-2
9.161424460E2,-8.693885803E-2,1.336216927E-2,4.048299789E-2
9.166424460E2,1.008105278E-1,6.289005280E-2,-1.898431778E-2
9.171424460E2,-3.580141068E-2,-1.566450596E-1,3.275728226E-2
9.176424460E2,4.409885406E-2,5.719327927E-2,-3.448724747E-2
9.181424460E2,-3.457546234E-2,-8.330130577E-2,-2.746820450E-2
9.186424460E2,-2.157163620E-2,-7.568597794E-3,-2.724170685E-3
9.191424460E2,-1.260232925E-2,-1.677012444E-2,2.688169479E-2
9.196424460E2,3.355932236E-2,-7.794380188E-3,-1.134490967E-2
9.201424460E2,-3.622531891E-3,-6.512880325E-3,-5.550384521E-4
9.206424460E2,-8.093357086E-3,-2.289152145E-2,-2.229070663E-2
9.211424460E2,-4.004478455E-3,4.799604416E-3,4.676818848E-3
9.216424460E2,2.036380768E-2,-2.769470215E-2,-1.448488235E-2
9.221424460E2,-5.002498627E-3,2.365350723E-3,1.594591141E-2
9.226424460E2,-5.632877350E-3,-4.589080811E-3,5.244731903E-3
9.231424460E2,4.375171661E-2,1.542329788E-3,-9.444236755E-3
9.236424460E2,-1.959705353E-2,1.180052757E-2,-2.978324890E-3
9.241424460E2,2.069950104E-3,-2.613592148E-2,3.511428833E-3
9.246424460E2,6.853580475E-3,1.034092903E-2,8.875370026E-3
9.251424460E2,2.697992325E-2,-1.129698753E-2,4.660177231E-2
9.256424460E2,4.574775696E-2,-1.251673698E-2,8.071041107E-2
9.261424460E2,-1.105794907E-1,-1.633064747E-1,-1.517157555E-1
9.266424460E2,2.113530159E0,-4.192006111E0,-4.355103493E0
9.271424460E2,1.539251328E0,-9.808821678E-1,-3.236206770E0
9.276424460E2,-1.937299132E0,-1.581306458E-1,2.717995644E-1
9.281424460E2,-1.369003296E0,8.141927719E-1,1.329989433E-1
9.286424460E2,-6.047692299E-1,5.829510689E-1,2.509927750E-2
