"Time (s)","Acceleration x (m/s^2)","Acceleration y (m/s^2)","Acceleration z (m/s^2)"
0.000000000E0,1.740778446E0,3.784249067E0,8.344370842E0
1.893153100E-2,1.242473125E0,3.528815269E0,8.225327492E0
5.189315310E-1,7.800601721E-1,1.872981906E0,9.358927727E0
1.018931531E0,2.049452543E0,4.869394004E-1,9.349356651E0
1.518931531E0,7.036693096E0,-2.997608662E0,5.873781204E0
2.018931531E0,6.010770321E0,-7.074379921E0,1.866401732E-1
2.518931531E0,5.079364300E0,-8.298309326E0,-2.835494876E-1
3.018931531E0,5.027918816E0,-8.490931511E0,1.054636598E0
3.518931531E0,3.440878868E0,-9.395418167E0,6.472585201E-1
4.018931531E0,5.694917679E0,-8.233104706E0,-7.034898400E-1
4.518931531E0,4.390231133E0,-9.287142754E0,8.530412912E-1
5.018931531E0,4.394418716E0,-8.734998703E0,6.652047038E-1
5.518931531E0,4.968696117E0,-8.476573944E0,-1.225125194E0
6.018931531E0,5.552545071E0,-8.203792572E0,-1.192822099E0
6.518931531E0,5.324628353E0,-8.070392609E0,-1.084546804E0
7.018931531E0,5.230710506E0,-8.130811691E0,-1.228714466E0
7.518931531E0,5.553143024E0,-7.515257835E0,-1.929811478E0
8.018931531E0,5.540580750E0,-8.824729919E0,-1.083350420E0
8.518931531E0,6.021538258E0,-7.954938889E0,-9.619147182E-1
9.018931531E0,5.002793789E0,-9.252447128E0,-1.676770449E0
9.518931531E0,5.149354458E0,-8.447860718E0,-1.453041553E0
1.001893153E1,5.674578667E0,-8.423932076E0,-9.954141974E-1
1.051893153E1,5.194219589E0,-7.827520847E0,-1.532602906E0
1.101893153E1,4.520640373E0,-8.553144455E0,-1.381855130E0
1.151893153E1,5.011766911E0,-8.382656097E0,-1.128215909E0
1.201893153E1,4.418945312E0,-8.450253487E0,-1.475175142E0
1.251893153E1,5.838487148E0,-8.432307243E0,-1.317248821E0
1.301893153E1,4.529015064E0,-8.194221497E0,-1.252642632E0
1.351893153E1,4.749154568E0,-8.612964630E0,-1.765903115E0
1.401893153E1,5.620141983E0,-9.035298347E0,-1.466202021E0
1.451893153E1,5.459224701E0,-8.631509781E0,-9.110672474E-1
1.501893153E1,5.528616905E0,-8.159524918E0,-1.228714466E0
1.551893153E1,5.524429321E0,-7.781459332E0,-1.150349498E0
1.601893153E1,5.665007591E0,-7.945367813E0,-3.616751432E0
1.651893153E1,5.593223095E0,-8.103892326E0,-1.520040631E0
1.701893153E1,4.817948341E0,-7.323832035E0,-3.577269912E-1
1.751893153E1,5.574080467E0,-7.969295979E0,-2.577668190E0
1.801893153E1,4.927420139E0,-8.261817932E0,-1.627119422E0
1.851893153E1,5.039284706E0,-8.350951195E0,-1.298704505E0
1.901893153E1,5.356333256E0,-8.309076309E0,-1.530210137E0
1.951893153E1,5.516652584E0,-8.321041107E0,-1.131206870E0
2.001893153E1,5.325226784E0,-8.137392044E0,-1.570888042E0
2.051893153E1,5.450850010E0,-8.285148621E0,-1.480558991E0
2.101893153E1,5.352146149E0,-7.993822098E0,-1.210768223E0
2.151893153E1,5.349154949E0,-8.261219978E0,-1.277767301E0
2.201893153E1,5.382654667E0,-8.111668587E0,-1.341177106E0
2.251893153E1,5.598008633E0,-8.237292290E0,-1.304686546E0
2.301893153E1,5.106283665E0,-8.328219414E0,-1.190429211E0
2.351893153E1,4.713860512E0,-7.837690353E0,-1.236491084E0
2.401893153E1,5.402993679E0,-8.221738815E0,-1.229910851E0
2.451893153E1,5.641079426E0,-8.414958954E0,-1.439282775E0
2.501893153E1,5.372485161E0,-8.187042236E0,-1.175474167E0
2.551893153E1,5.115854740E0,-7.954938889E0,-1.130608678E0
2.601893153E1,5.133202553E0,-7.980661869E0,-1.350748420E0
2.651893153E1,5.136193752E0,-7.856235027E0,-1.276570916E0
2.701893153E1,4.954339504E0,-7.899305820E0,-1.462612867E0
2.751893153E1,5.605785370E0,-8.084151268E0,-1.929811478E0
2.801893153E1,5.772684574E0,-8.417949677E0,-1.625923038E0
2.851893153E1,5.718846321E0,-8.019545555E0,-1.570888042E0
2.901893153E1,4.831707001E0,-8.294719696E0,-1.623530149E0
2.951893153E1,5.103292465E0,-8.072187424E0,-1.709671736E0
3.001893153E1,5.134997368E0,-8.165507317E0,-1.448255897E0
3.051893153E1,5.816353798E0,-8.323433876E0,-1.442273855E0
3.101893153E1,5.358128071E0,-8.132007599E0,-1.044467092E0
3.151893153E1,5.190630436E0,-8.059026718E0,-1.140179992E0
3.201893153E1,5.576473236E0,-8.137392044E0,-1.172483087E0
3.251893153E1,5.141577721E0,-8.099106789E0,-1.067198873E0
3.301893153E1,5.717649937E0,-8.042875290E0,-1.186840057E0
3.351893153E1,4.817948341E0,-8.209176064E0,-1.896311998E0
3.401893153E1,5.114060402E0,-7.922037601E0,-1.713261008E0
3.451893153E1,5.337789059E0,-8.004590034E0,-1.595414519E0
3.501893153E1,5.241477966E0,-8.081160545E0,-1.534397483E0
3.551893153E1,5.483152866E0,-8.053044319E0,-1.226919770E0
3.601893153E1,5.485546112E0,-7.899305820E0,-1.405783296E0
3.651893153E1,5.053641319E0,-7.760521889E0,-1.482353687E0
3.701893153E1,5.340780258E0,-7.947162151E0,-1.374676585E0
3.751893153E1,5.428716183E0,-8.078168869E0,-1.625923038E0
3.801893153E1,5.670989513E0,-8.020741463E0,-1.789831281E0
3.851893153E1,5.513063431E0,-8.148159027E0,-1.901695848E0
3.901893153E1,5.657829285E0,-7.912466049E0,-1.159920812E0
3.951893153E1,5.481358528E0,-7.891529083E0,-1.372283816E0
4.001893153E1,5.260620594E0,-7.707880020E0,-1.423131227E0
4.051893153E1,5.662614822E0,-7.838887215E0,-1.239482164E0
4.101893153E1,5.554937840E0,-7.983652592E0,-1.212562919E0
4.151893153E1,5.382056236E0,-7.864609718E0,-1.768894196E0
4.201893153E1,5.309075356E0,-7.878368378E0,-1.612762451E0
4.251893153E1,5.057230473E0,-7.979465485E0,-1.674975872E0
4.301893153E1,5.216353416E0,-7.926225185E0,-1.580459356E0
4.351893153E1,5.239085197E0,-7.841877937E0,-1.587039590E0
4.401893153E1,5.306084156E0,-7.866404533E0,-1.537388563E0
4.451893153E1,5.458626747E0,-7.875975609E0,-1.587637782E0
4.501893153E1,5.239085197E0,-7.926823139E0,-1.609771490E0
4.551893153E1,5.407779217E0,-8.219944000E0,-1.506281853E0
4.601893153E1,5.418546677E0,-8.011170387E0,-1.703689694E0
4.651893153E1,5.303691387E0,-7.986045361E0,-1.679761529E0
4.701893153E1,5.335994720E0,-8.018946648E0,-1.542772412E0
4.751893153E1,5.243870735E0,-8.012965202E0,-1.526620865E0
4.801893153E1,5.184050083E0,-7.931010723E0,-1.599601984E0
4.851893153E1,5.325226784E0,-8.008178711E0,-1.625923038E0
4.901893153E1,5.291129112E0,-8.001599312E0,-1.543968797E0
4.951893153E1,5.280361176E0,-7.802396297E0,-1.684547186E0
5.001893153E1,5.176871777E0,-8.325826645E0,-1.780260086E0
5.051893153E1,5.270191669E0,-7.940581799E0,-2.082952023E0
5.101893153E1,5.644070625E0,-8.248658180E0,-2.375474691E0
5.151893153E1,6.055635929E0,-8.350951195E0,-2.142772675E0
5.201893153E1,5.154139996E0,-8.087740898E0,-1.849053741E0
5.251893153E1,4.829912663E0,-7.411170006E0,-1.759921074E0
5.301893153E1,5.481358528E0,-7.890332699E0,-2.023131609E0
5.351893153E1,5.003990173E0,-8.496315002E0,-1.926820397E0
5.401893153E1,4.849055290E0,-8.338388443E0,-1.954337835E0
5.451893153E1,5.406582832E0,-8.356932640E0,-1.349551916E0
5.501893153E1,4.867001057E0,-7.652246952E0,-1.392622828E0
5.551893153E1,5.326423168E0,-8.044670105E0,-1.336989641E0
5.601893153E1,5.265406132E0,-8.520243645E0,-2.131406784E0
5.651893153E1,5.093122959E0,-8.453244209E0,-1.523031592E0
5.701893153E1,5.184050083E0,-8.113463402E0,-1.168893814E0
5.751893153E1,5.023731232E0,-7.765307903E0,-1.232901812E0
5.801893153E1,5.248656273E0,-8.180462837E0,-1.456032634E0
5.851893153E1,5.527420521E0,-8.365307808E0,-1.721037745E0
5.901893153E1,5.572285652E0,-8.323433876E0,-1.493121386E0
5.951893153E1,5.033302307E0,-8.218747139E0,-1.392622828E0
6.001893153E1,5.346762180E0,-7.749155998E0,-1.312463164E0
6.051893153E1,5.447260857E0,-8.099106789E0,-1.597209096E0
6.101893153E1,5.590830326E0,-7.909475327E0,-1.587039590E0
6.151893153E1,5.605186939E0,-8.239086151E0,-2.161317110E0
6.201893153E1,6.002993584E0,-8.060222626E0,-1.936989903E0
6.251893153E1,5.248058319E0,-8.041080475E0,-2.094317913E0
6.301893153E1,5.446064472E0,-7.333403111E0,-1.112064362E0
6.351893153E1,4.204787731E0,-7.489534855E0,-1.615753531E0
6.401893153E1,6.515058041E0,-7.644470215E0,-1.719243050E0
6.451893153E1,4.702494621E0,-8.390432358E0,-1.798206210E0
6.501893153E1,5.524429321E0,-7.904689789E0,-1.494317770E0
6.551893153E1,5.502295494E0,-8.183453560E0,-1.475773335E0
6.601893153E1,5.610570908E0,-8.015955925E0,-1.794616938E0
6.651893153E1,5.768496990E0,-8.167900085E0,-1.631905079E0
6.701893153E1,5.404788017E0,-8.175078392E0,-1.735394597E0
6.751893153E1,5.947360516E0,-7.875975609E0,-1.580459356E0
6.801893153E1,5.446064472E0,-8.075178146E0,-1.572682738E0
6.851893153E1,5.575276852E0,-7.922037601E0,-1.536192179E0
6.901893153E1,5.299503803E0,-8.051250458E0,-1.408774376E0
6.951893153E1,5.552545071E0,-7.835297585E0,-1.329213023E0
7.001893153E1,5.698507309E0,-7.886743546E0,-1.429711580E0
7.051893153E1,5.781059742E0,-7.940581799E0,-1.508674622E0
7.101893153E1,5.952146530E0,-7.630113125E0,-1.397408366E0
7.151893153E1,5.367699623E0,-8.060222626E0,-1.456032634E0
7.201893153E1,5.478367329E0,-7.814958572E0,-1.386640668E0
7.251893153E1,5.644070625E0,-7.926823139E0,-1.405185103E0
7.301893153E1,5.219344616E0,-8.006384850E0,-1.558923960E0
7.351893153E1,5.443073273E0,-7.826324463E0,-1.604387641E0
7.401893153E1,5.683551788E0,-8.026723862E0,-1.546959877E0
7.451893153E1,5.367699623E0,-8.012366295E0,-1.646261930E0
7.501893153E1,5.511867046E0,-7.931010723E0,-1.566700578E0
7.551893153E1,5.566901684E0,-7.823333740E0,-1.479960799E0
7.601893153E1,5.801398277E0,-7.768298626E0,-1.188634634E0
7.651893153E1,5.365904808E0,-7.984251022E0,-1.473978758E0
7.701893153E1,5.841478348E0,-7.777870178E0,-1.344766378E0
7.751893153E1,5.782854080E0,-8.124829292E0,-1.657627940E0
7.801893153E1,6.042475224E0,-7.987242222E0,-1.676172256E0
7.851893153E1,5.812764645E0,-7.848458290E0,-1.618744493E0
7.901893153E1,5.682355404E0,-8.373682976E0,-1.138983607E0
7.951893153E1,5.330012321E0,-8.105088234E0,-1.362114310E0
8.001893153E1,5.648257732E0,-7.861020565E0,-1.229910851E0
8.051893153E1,5.702694416E0,-7.596015453E0,-1.791625977E0
8.101893153E1,5.612365723E0,-7.918448448E0,-1.685743570E0
8.151893153E1,5.061418056E0,-8.218149185E0,-1.719243050E0
8.201893153E1,5.303691387E0,-8.019545555E0,-1.657627940E0
8.251893153E1,5.282155991E0,-8.035098076E0,-1.917847395E0
8.301893153E1,5.592624664E0,-8.066802979E0,-1.981257200E0
8.351893153E1,5.069792747E0,-7.972885132E0,-2.183450699E0
8.401893153E1,5.219942570E0,-7.914260864E0,-1.674975872E0
8.451893153E1,5.286941528E0,-7.888537884E0,-1.825125456E0
8.501893153E1,5.564508915E0,-8.112865448E0,-1.639681697E0
8.551893153E1,5.149354458E0,-7.749155998E0,-1.895115495E0
8.601893153E1,4.844867706E0,-7.770093441E0,-1.706680775E0
8.651893153E1,4.875376225E0,-8.105088234E0,-1.724626899E0
8.701893153E1,5.545366287E0,-8.029116631E0,-1.811964989E0
8.751893153E1,4.817350388E0,-8.330014229E0,-1.708475351E0
8.801893153E1,5.210371494E0,-8.109873772E0,-1.558923960E0
8.851893153E1,5.245067120E0,-8.004590034E0,-1.627119422E0
8.901893153E1,5.487938881E0,-8.062616348E0,-1.762912035E0
8.951893153E1,5.254638672E0,-8.196015358E0,-2.231307030E0
9.001893153E1,5.606981754E0,-7.985447407E0,-1.618744493E0
9.051893153E1,4.643272400E0,-7.960322857E0,-1.682752490E0
9.101893153E1,5.331208706E0,-8.124829292E0,-1.764706731E0
9.151893153E1,4.404588223E0,-8.158329010E0,-1.688136339E0
9.201893153E1,5.163711071E0,-7.963313580E0,-1.984248161E0
9.251893153E1,5.210371494E0,-8.140382767E0,-1.844268084E0
9.301893153E1,5.006981373E0,-8.179863930E0,-2.029113531E0
9.351893153E1,5.272584915E0,-8.148757935E0,-1.788634896E0
9.401893153E1,5.161916733E0,-8.065607071E0,-1.886740685E0
9.451893153E1,5.243272781E0,-8.063812256E0,-1.928615093E0
9.501893153E1,5.222335339E0,-8.032107353E0,-2.054836512E0
9.551893153E1,5.315057278E0,-8.102097511E0,-1.956132531E0
9.601893153E1,5.251647472E0,-8.082955360E0,-1.917249203E0
9.651893153E1,5.288137913E0,-8.078168869E0,-1.968694806E0
9.701893153E1,5.163711071E0,-8.132007599E0,-1.934597135E0
9.751893153E1,4.950151920E0,-7.830512047E0,-2.506481647E0
9.801893153E1,4.713860512E0,-8.025527000E0,-2.166700840E0
9.851893153E1,5.081159115E0,-8.170890808E0,-2.328814745E0
9.901893153E1,5.031507969E0,-8.110472679E0,-2.277967215E0
9.951893153E1,4.841278553E0,-8.261817932E0,-2.020738840E0
1.000189315E2,4.691727161E0,-8.301898003E0,-2.177468538E0
1.005189315E2,4.719842434E0,-8.358727455E0,-2.139183521E0
1.010189315E2,4.813162804E0,-8.285148621E0,-2.110469580E0
1.015189315E2,4.898705959E0,-8.336593628E0,-2.070987940E0
1.020189315E2,4.747360229E0,-8.276175499E0,-2.164308071E0
1.025189315E2,4.942375183E0,-8.276175499E0,-1.890329838E0
1.030189315E2,4.849055290E0,-8.364111900E0,-1.992024899E0
1.035189315E2,4.766502857E0,-8.371888161E0,-1.692921996E0
1.040189315E2,5.233701229E0,-8.175676346E0,-1.834098577E0
1.045189315E2,4.762913704E0,-8.296514511E0,-2.121835470E0
1.050189315E2,4.782654285E0,-8.258827209E0,-1.984846354E0
1.055189315E2,4.963910580E0,-8.275577545E0,-1.820339799E0
1.060189315E2,5.126622677E0,-8.158329010E0,-1.805982947E0
1.065189315E2,5.235496044E0,-8.081160545E0,-1.810170293E0
1.070189315E2,4.869992256E0,-8.179863930E0,-1.614557028E0
1.075189315E2,5.066203594E0,-8.292326927E0,-1.879562140E0
1.080189315E2,5.130211830E0,-8.105687141E0,-1.840678811E0
1.085189315E2,5.095515728E0,-8.081160545E0,-1.957328916E0
1.090189315E2,5.018347263E0,-8.266005516E0,-2.063809633E0
1.095189315E2,5.052444935E0,-8.166105270E0,-1.805384636E0
1.100189315E2,5.072783947E0,-8.119445801E0,-1.954337835E0
1.105189315E2,4.941776752E0,-8.250452042E0,-1.777269006E0
1.110189315E2,5.207978249E0,-8.081160545E0,-1.725823283E0
1.115189315E2,5.139782906E0,-8.124231339E0,-1.802393675E0
1.120189315E2,5.160720348E0,-8.417949677E0,-2.357528448E0
1.125189315E2,5.207978249E0,-8.055437088E0,-2.046461582E0
1.130189315E2,5.257629395E0,-7.977670670E0,-2.174477577E0
1.135189315E2,5.405984402E0,-7.848458290E0,-2.148754835E0
1.140189315E2,5.062016487E0,-8.011170387E0,-2.233101845E0
1.145189315E2,4.984847546E0,-7.931608677E0,-2.780459881E0
1.150189315E2,4.851448059E0,-7.933403492E0,-2.860619545E0
1.155189315E2,5.242076397E0,-7.880163193E0,-2.754737139E0
1.160189315E2,5.176273346E0,-7.932805061E0,-2.804388046E0
1.165189315E2,5.210371494E0,-7.850253105E0,-2.729612350E0
1.170189315E2,4.736592293E0,-8.206185341E0,-2.107478619E0
1.175189315E2,5.038087845E0,-8.070392609E0,-2.105684042E0
1.180189315E2,4.645665169E0,-8.413164139E0,-1.828116536E0
1.185189315E2,5.583053589E0,-7.808976650E0,-1.917249203E0
1.190189315E2,5.241477966E0,-8.086544037E0,-2.401197433E0
1.195189315E2,5.178068161E0,-7.981259823E0,-1.913061738E0
1.200189315E2,5.041079044E0,-8.118248940E0,-1.874178290E0
1.205189315E2,5.075775146E0,-8.127820015E0,-1.821536183E0
1.210189315E2,5.264209747E0,-8.003393173E0,-1.913061738E0
1.215189315E2,5.347360611E0,-8.055437088E0,-1.788036704E0
1.220189315E2,5.222335339E0,-8.019545555E0,-1.874776483E0
1.225189315E2,5.261219025E0,-8.051250458E0,-1.846062660E0
1.230189315E2,5.266004562E0,-8.072187424E0,-1.755135417E0
1.235189315E2,5.221138954E0,-7.993224144E0,-1.825125456E0
1.240189315E2,5.198407173E0,-8.035098076E0,-1.734198213E0
1.245189315E2,5.196014404E0,-8.021938324E0,-1.960319996E0
1.250189315E2,5.270191669E0,-7.953742504E0,-1.828116536E0
1.255189315E2,5.254638672E0,-8.035098076E0,-1.912463546E0
1.260189315E2,5.322834015E0,-8.062616348E0,-1.910668850E0
1.265189315E2,5.309075356E0,-7.995018482E0,-1.841277003E0
1.270189315E2,5.332405090E0,-7.984251022E0,-1.810170293E0
1.275189315E2,5.160121918E0,-8.098507881E0,-1.799402595E0
1.280189315E2,5.200799942E0,-8.003393173E0,-1.941775560E0
1.285189315E2,5.026721954E0,-8.043473244E0,-1.984846354E0
1.290189315E2,5.178068161E0,-8.076375008E0,-1.929811478E0
1.295189315E2,5.203791142E0,-8.057231903E0,-2.012962103E0
1.300189315E2,5.174479008E0,-8.043473244E0,-1.951346874E0
1.305189315E2,5.099703312E0,-8.053044319E0,-2.108675003E0
1.310189315E2,5.112265587E0,-7.981259823E0,-2.073380709E0
1.315189315E2,4.907081127E0,-8.167900085E0,-2.352742910E0
1.320189315E2,4.509274483E0,-8.246863365E0,-1.977667928E0
1.325189315E2,5.617151260E0,-7.974679470E0,-2.149951220E0
1.330189315E2,5.460421085E0,-7.911868095E0,-1.842473388E0
1.335189315E2,5.626722336E0,-7.975875854E0,-2.005185366E0
1.340189315E2,5.154139996E0,-8.194819450E0,-1.877169371E0
1.345189315E2,5.145765305E0,-7.625327587E0,-1.749751568E0
1.350189315E2,5.363512039E0,-7.481160164E0,-1.800599098E0
1.355189315E2,4.640879631E0,-8.183453560E0,-2.507678032E0
1.360189315E2,5.168497086E0,-7.989036560E0,-1.872383714E0
1.365189315E2,5.419145107E0,-8.127820015E0,-1.703689694E0
1.370189315E2,5.375475883E0,-8.022536278E0,-1.820339799E0
1.375189315E2,5.399404526E0,-7.993822098E0,-1.860419631E0
1.380189315E2,5.486144066E0,-7.922037601E0,-1.992623091E0
1.385189315E2,5.184648514E0,-8.113463402E0,-1.721635938E0
1.390189315E2,5.184050083E0,-8.100900650E0,-1.765903115E0
1.395189315E2,5.326423168E0,-7.990831375E0,-1.881955028E0
1.400189315E2,5.300700188E0,-7.966903210E0,-1.831107497E0
1.405189315E2,5.217549801E0,-8.014759064E0,-1.767099500E0
1.410189315E2,5.047060966E0,-8.282755852E0,-1.494317770E0
1.415189315E2,5.449055195E0,-8.213961601E0,-7.740781307E-1
1.420189315E2,5.182853699E0,-8.429315567E0,-1.049850941E0
1.425189315E2,5.650052547E0,-8.138587952E0,-9.008977413E-1
1.430189315E2,4.813162804E0,-8.203792572E0,-1.633699656E0
1.435189315E2,5.634499073E0,-7.999804497E0,-1.397408366E0
1.440189315E2,5.235496044E0,-8.203792572E0,-1.189831018E0
1.445189315E2,5.497509956E0,-8.042875290E0,-1.059422255E0
1.450189315E2,5.643472195E0,-7.980661869E0,-1.307677627E0
1.455189315E2,5.473581791E0,-8.082955360E0,-1.408176184E0
1.460189315E2,5.483152866E0,-7.993224144E0,-1.503889084E0
1.465189315E2,5.399404526E0,-8.096115112E0,-1.443470240E0
1.470189315E2,5.507081509E0,-8.032107353E0,-1.250848055E0
1.475189315E2,5.307280540E0,-8.084749222E0,-1.351346612E0
1.480189315E2,5.350351334E0,-8.094321251E0,-1.300499082E0
1.485189315E2,5.266004562E0,-8.075178146E0,-1.280758262E0
1.490189315E2,5.507081509E0,-8.015955925E0,-1.394417405E0
1.495189315E2,5.246861935E0,-8.112865448E0,-1.515254974E0
1.500189315E2,5.487938881E0,-7.933403492E0,-1.547558069E0
1.505189315E2,5.505286694E0,-8.011170387E0,-1.493121386E0
1.510189315E2,5.571687698E0,-7.845467091E0,-1.317847013E0
1.515189315E2,5.420939922E0,-8.105687141E0,-1.410568953E0
1.520189315E2,5.602794170E0,-7.898109436E0,-1.354337573E0
1.525189315E2,5.623133183E0,-7.875377655E0,-1.312463164E0
1.530189315E2,5.413761139E0,-7.987242222E0,-1.376471281E0
1.535189315E2,5.212764263E0,-7.936394691E0,-1.454836130E0
1.540189315E2,5.464010715E0,-7.887939930E0,-1.379462242E0
1.545189315E2,5.235496044E0,-8.078168869E0,-1.156331539E0
1.550189315E2,5.428118229E0,-7.914260864E0,-1.325623751E0
1.555189315E2,5.121836662E0,-8.089534760E0,-1.366899967E0
1.560189315E2,5.370690346E0,-8.020741463E0,-1.319641709E0
1.565189315E2,5.524429321E0,-7.922037601E0,-1.348355532E0
1.570189315E2,5.898906231E0,-7.856235027E0,-1.274776220E0
1.575189315E2,5.468197823E0,-7.941180229E0,-1.442273855E0
1.580189315E2,5.642275810E0,-7.791030407E0,-1.324427366E0
1.585189315E2,5.577071190E0,-8.006384850E0,-1.432104349E0
1.590189315E2,5.656632900E0,-8.020741463E0,-1.353141189E0
1.595189315E2,5.800201893E0,-7.811967850E0,-1.274776220E0
1.600189315E2,5.400002480E0,-7.983652592E0,-1.465603828E0
1.605189315E2,4.809573650E0,-7.397411346E0,-2.012962103E0
1.610189315E2,5.748756409E0,-7.591229916E0,-1.959123492E0
1.615189315E2,5.715256691E0,-7.931608677E0,-1.435693622E0
1.620189315E2,5.882754326E0,-7.758727551E0,-1.363908887E0
1.625189315E2,5.740979671E0,-7.945367813E0,-2.121237278E0
1.630189315E2,5.472983360E0,-8.050651550E0,-1.845464468E0
1.635189315E2,5.490929604E0,-7.980661869E0,-1.948953986E0
1.640189315E2,5.792425632E0,-7.892725468E0,-1.858026743E0
1.645189315E2,5.633901119E0,-8.136793137E0,-1.178465128E0
1.650189315E2,5.471189022E0,-7.996813297E0,-1.365703583E0
1.655189315E2,5.480760098E0,-7.931608677E0,-1.419542074E0
1.660189315E2,5.712265968E0,-7.569096088E0,-1.375274777E0
1.665189315E2,5.426921844E0,-8.020741463E0,-1.414756417E0
1.670189315E2,5.549553871E0,-7.572087288E0,-1.171286702E0
1.675189315E2,5.648257732E0,-7.843672752E0,-1.688136339E0
1.680189315E2,5.626722336E0,-7.810173035E0,-1.574477315E0
1.685189315E2,5.662614822E0,-7.816753387E0,-1.606780410E0
1.690189315E2,5.932405472E0,-7.837092400E0,-1.523629785E0
1.695189315E2,5.565705299E0,-7.789834023E0,-1.677966833E0
1.700189315E2,5.629713535E0,-7.780262947E0,-1.496710539E0
1.705189315E2,5.543571949E0,-7.749155998E0,-1.525424480E0
1.710189315E2,5.803791523E0,-7.947760582E0,-1.738385677E0
1.715189315E2,5.667400360E0,-7.698906898E0,-1.380060434E0
1.720189315E2,5.905486107E0,-7.519444942E0,-1.724626899E0
1.725189315E2,5.375475883E0,-7.825726509E0,-1.620539188E0
1.730189315E2,5.464010715E0,-7.919046402E0,-1.630110383E0
1.735189315E2,5.726622581E0,-7.807182312E0,-1.429113269E0
1.740189315E2,5.581857204E0,-7.998009682E0,-1.526620865E0
1.745189315E2,5.657829285E0,-7.750950813E0,-1.514058471E0
1.750189315E2,5.728417397E0,-7.744968891E0,-1.357926846E0
1.755189315E2,5.715256691E0,-7.696514130E0,-1.493121386E0
1.760189315E2,5.626124382E0,-7.824530125E0,-1.604387641E0
1.765189315E2,5.618347645E0,-7.871190071E0,-1.514058471E0
1.770189315E2,5.549553871E0,-7.844869137E0,-1.476969719E0
1.775189315E2,5.667998791E0,-7.747959614E0,-1.491326690E0
1.780189315E2,5.708078384E0,-7.762316704E0,-1.416550994E0
1.785189315E2,5.581258774E0,-7.820940971E0,-1.366899967E0
1.790189315E2,5.531009674E0,-7.862815380E0,-1.274178028E0
1.795189315E2,5.499902725E0,-7.933403492E0,-1.576271892E0
1.800189315E2,5.674578667E0,-8.014161110E0,-1.473978758E0
1.805189315E2,5.774479389E0,-7.740182877E0,-1.638485312E0
1.810189315E2,5.712265968E0,-7.845467091E0,-1.011565804E0
1.815189315E2,5.017150879E0,-8.413164139E0,7.621139884E-1
1.820189315E2,4.830510616E0,-8.547162056E0,5.629115105E-1
1.825189315E2,3.951148272E0,-9.486345291E0,2.021935135E-1
1.830189315E2,5.383851051E0,-7.936394691E0,-8.374879137E-3
1.835189315E2,5.018945694E0,-8.425726891E0,-1.645065546E-1
1.840189315E2,5.318048477E0,-8.231309891E0,-1.591227055E-1
1.845189315E2,4.937589645E0,-8.358727455E0,-3.942175210E-1
1.850189315E2,5.078765869E0,-8.276175499E0,-2.153540403E-1
1.855189315E2,5.132006168E0,-8.395217896E0,-3.972085714E-1
1.860189315E2,4.707878590E0,-8.406583786E0,-4.049852192E-1
1.865189315E2,5.315655708E0,-8.243872643E0,-3.254238665E-1
1.870189315E2,5.257629395E0,-8.258229256E0,-6.011967063E-1
1.875189315E2,5.188836098E0,-8.279166222E0,-2.691925466E-1
1.880189315E2,5.146363258E0,-8.118248940E0,-4.510470629E-1
1.885189315E2,5.168497086E0,-8.169096947E0,-5.581258535E-1
1.890189315E2,5.306084156E0,-8.105687141E0,-5.473581553E-1
1.895189315E2,5.146363258E0,-8.084749222E0,-8.039883971E-1
1.900189315E2,5.291727066E0,-8.416753769E0,-6.568298340E-1
1.905189315E2,5.337789059E0,-8.322237015E0,-4.677968323E-1
1.910189315E2,5.227719307E0,-8.239685059E0,-6.520441771E-1
1.915189315E2,5.334199905E0,-8.405387878E0,-4.486542344E-1
1.920189315E2,5.459224701E0,-8.424530029E0,-5.264210105E-1
1.925189315E2,5.020142078E0,-8.398807526E0,-5.659025311E-1
1.930189315E2,5.070989609E0,-8.270791054E0,-5.090730190E-1
1.935189315E2,5.447858810E0,-8.092526436E0,-4.516452849E-1
1.940189315E2,4.999204636E0,-8.251648903E0,-6.346961856E-1
1.945189315E2,5.339583874E0,-8.242675781E0,-5.150550604E-1
1.950189315E2,5.252843857E0,-8.504091263E0,-6.376872063E-1
1.955189315E2,5.379065514E0,-8.410173416E0,-6.077769399E-1
1.960189315E2,5.125426292E0,-8.325826645E0,-6.448656917E-1
1.965189315E2,5.340780258E0,-8.292326927E0,-8.673982024E-1
1.970189315E2,5.447260857E0,-8.138587952E0,-5.060819983E-1
1.975189315E2,5.139782906E0,-8.250452042E0,-7.429714203E-1
1.980189315E2,5.230710506E0,-8.397012711E0,-8.374879360E-1
1.985189315E2,5.212764263E0,-8.389236450E0,-5.850451589E-1
1.990189315E2,5.136193752E0,-8.129016876E0,-8.105686903E-1
1.995189315E2,5.229514122E0,-8.287541389E0,-6.879364848E-1
2.000189315E2,5.193621635E0,-8.151748657E0,-6.616154313E-1
2.005189315E2,5.064409256E0,-8.184649467E0,-7.369893789E-1
2.010189315E2,5.163711071E0,-8.338388443E0,-5.324030519E-1
2.015189315E2,5.246861935E0,-8.224729538E0,-7.130611539E-1
2.020189315E2,5.383851051E0,-8.334799767E0,-7.621139884E-1
2.025189315E2,5.410770416E0,-8.287541389E0,-7.034898400E-1
2.030189315E2,5.215157032E0,-7.937591076E0,-7.357929349E-1
2.035189315E2,5.219344616E0,-8.115258217E0,-7.908278704E-1
2.040189315E2,5.312066078E0,-7.931608677E0,-3.415754437E-1
2.045189315E2,5.224728107E0,-8.242077827E0,-7.130611539E-1
2.050189315E2,5.265406132E0,-8.170292854E0,-7.160521746E-1
2.055189315E2,5.401797295E0,-8.208578110E0,-6.089733839E-1
2.060189315E2,5.221138954E0,-8.098507881E0,-8.165507317E-1
2.065189315E2,5.292923450E0,-8.029116631E0,-5.676971674E-1
2.070189315E2,5.361119270E0,-8.209176064E0,-7.142575383E-1
2.075189315E2,5.073980331E0,-8.222934723E0,-7.112665176E-1
2.080189315E2,5.562116146E0,-8.133802414E0,-7.657032609E-1
2.085189315E2,5.382654667E0,-8.343173981E0,-8.410771489E-1
2.090189315E2,5.467001438E0,-8.113463402E0,-8.183453679E-1
2.095189315E2,5.179264545E0,-8.134400368E0,-7.453642488E-1
2.100189315E2,5.398207664E0,-8.133802414E0,-7.022934556E-1
2.105189315E2,5.209773064E0,-8.213961601E0,-6.969096065E-1
2.110189315E2,5.185844898E0,-8.246863365E0,-7.477570772E-1
2.115189315E2,5.236692429E0,-8.188239098E0,-8.147560954E-1
2.120189315E2,5.203192711E0,-8.261219978E0,-7.178468108E-1
2.125189315E2,5.203192711E0,-8.151150703E0,-6.412764788E-1
2.130189315E2,5.398207664E0,-7.995616913E0,-6.376872063E-1
2.135189315E2,4.993222713E0,-8.137392044E0,-8.775677085E-1
2.140189315E2,5.066203594E0,-8.222934723E0,-8.147560954E-1
2.145189315E2,4.992624283E0,-8.014161110E0,-1.116850019E0
2.150189315E2,5.080560684E0,-8.153543472E0,-1.149751306E0
2.155189315E2,5.277370453E0,-8.249256134E0,-1.068993568E0
2.160189315E2,5.342574596E0,-8.031509399E0,-1.246062398E0
2.165189315E2,5.353342533E0,-8.258827209E0,-7.621139884E-1
2.170189315E2,5.543571949E0,-8.187042236E0,-1.165902853E0
2.175189315E2,5.572285652E0,-8.096115112E0,-7.531409264E-1
2.180189315E2,5.138586521E0,-8.239685059E0,-8.452646136E-1
2.185189315E2,5.276772022E0,-8.110472679E0,-9.062815905E-1
2.190189315E2,5.246861935E0,-8.330612183E0,-7.627122402E-1
2.195189315E2,5.505286694E0,-8.163114548E0,-8.009973764E-1
2.200189315E2,5.380261898E0,-8.368897438E0,-7.734799385E-1
2.205189315E2,5.128417015E0,-8.279166222E0,-9.894321561E-1
2.210189315E2,5.386841774E0,-8.319246292E0,-7.064808607E-1
2.215189315E2,5.222335339E0,-8.446663857E0,-8.153542876E-1
2.220189315E2,5.207978249E0,-8.334799767E0,-8.709874153E-1
2.225189315E2,5.163711071E0,-8.395816803E0,-9.846464992E-1
2.230189315E2,5.449055195E0,-8.411369324E0,-7.304090858E-1
2.235189315E2,5.316852093E0,-8.411369324E0,-9.427721500E-1
2.240189315E2,5.203192711E0,-8.401798248E0,-7.770691514E-1
2.245189315E2,5.557330608E0,-8.321041107E0,-6.807580590E-1
2.250189315E2,5.547759533E0,-8.321041107E0,-6.209374666E-1
2.255189315E2,5.118845940E0,-8.296514511E0,-7.579265833E-1
2.260189315E2,5.161916733E0,-8.102097511E0,-7.896314859E-1
2.265189315E2,5.294718266E0,-8.057829857E0,-9.541380405E-1
2.270189315E2,5.380261898E0,-8.148757935E0,-8.165507317E-1
2.275189315E2,5.075775146E0,-8.350951195E0,-1.280758262E0
2.280189315E2,4.899304390E0,-8.273183823E0,-1.201196909E0
2.285189315E2,5.012365341E0,-8.383254051E0,-1.028913736E0
2.290189315E2,5.401797295E0,-8.300103188E0,-9.990034699E-1
2.295189315E2,5.578267574E0,-8.213961601E0,-1.091127157E0
2.300189315E2,5.278566837E0,-8.304290771E0,-9.248259664E-1
2.305189315E2,5.597410202E0,-8.256434441E0,-8.554341197E-1
2.310189315E2,5.198407173E0,-8.410173416E0,-9.056833982E-1
2.315189315E2,5.225924492E0,-8.320442200E0,-1.066002488E0
2.320189315E2,5.341976643E0,-8.286943436E0,-7.429714203E-1
2.325189315E2,5.412564754E0,-8.328219414E0,-8.249256015E-1
2.330189315E2,5.838487148E0,-8.199604988E0,-7.944171429E-1
2.335189315E2,5.562714577E0,-8.161319733E0,-1.088136077E0
2.340189315E2,5.254638672E0,-8.232506752E0,-1.119840980E0
2.345189315E2,4.964509010E0,-8.065009117E0,-1.447059512E0
2.350189315E2,4.922634602E0,-8.162516594E0,-1.503889084E0
2.355189315E2,5.224728107E0,-7.996813297E0,-1.313061476E0
2.360189315E2,5.187639713E0,-8.041678429E0,-1.201196909E0
2.365189315E2,5.276772022E0,-8.007580757E0,-1.148554921E0
2.370189315E2,5.425725460E0,-7.898109436E0,-1.257428288E0
2.375189315E2,5.034498692E0,-8.089534760E0,-1.328614831E0
2.380189315E2,5.484349728E0,-7.935796261E0,-1.303490162E0
2.385189315E2,5.621936798E0,-7.721040249E0,-1.241276741E0
2.390189315E2,5.428716183E0,-8.081160545E0,-1.240678549E0
2.395189315E2,4.806582451E0,-8.291728973E0,-1.282552958E0
2.400189315E2,5.131408215E0,-8.264809608E0,-1.290329576E0
2.405189315E2,5.050650597E0,-8.057231903E0,-1.236491084E0
2.410189315E2,5.480760098E0,-8.062017441E0,-1.130608678E0
2.415189315E2,5.219344616E0,-8.319246292E0,-1.150349498E0
2.420189315E2,5.071587563E0,-8.422736168E0,-8.721838593E-1
2.425189315E2,5.219344616E0,-8.164310455E0,-8.087740541E-1
2.430189315E2,5.441278458E0,-8.137392044E0,-1.165902853E0
2.435189315E2,5.404788017E0,-8.146365166E0,-9.966106415E-1
2.440189315E2,5.239085197E0,-8.225327492E0,-1.123430252E0
2.445189315E2,4.769493580E0,-8.484949112E0,-1.290927768E0
2.450189315E2,4.733003139E0,-7.928019524E0,-7.621139884E-1
2.455189315E2,4.937589645E0,-8.304888725E0,-1.044467092E0
2.460189315E2,5.228915691E0,-8.169096947E0,-9.343972206E-1
2.465189315E2,5.372485161E0,-8.036294937E0,-1.235892892E0
2.470189315E2,5.207978249E0,-8.274380684E0,-1.325623751E0
2.475189315E2,5.294718266E0,-8.112865448E0,-1.192822099E0
2.480189315E2,5.385645390E0,-8.136793137E0,-1.322034478E0
2.485189315E2,5.280361176E0,-8.088936806E0,-1.175474167E0
2.490189315E2,5.270790100E0,-8.206185341E0,-1.223928809E0
2.495189315E2,5.301298618E0,-8.194221497E0,-1.121635556E0
2.500189315E2,5.222933769E0,-8.209176064E0,-1.214357495E0
2.505189315E2,5.206781864E0,-8.157731056E0,-1.161117196E0
2.510189315E2,5.120640278E0,-8.234300613E0,-1.086341500E0
2.515189315E2,5.114060402E0,-8.443074226E0,-1.446461320E0
2.520189315E2,4.973481655E0,-8.331808090E0,-1.383051515E0
2.525189315E2,5.239085197E0,-8.178668022E0,-1.564906001E0
2.530189315E2,4.978865623E0,-8.400003433E0,-1.322632670E0
2.535189315E2,5.084149837E0,-8.279166222E0,-1.266401410E0
2.540189315E2,5.236692429E0,-8.292326927E0,-1.075573802E0
2.545189315E2,5.191228867E0,-8.141578674E0,-1.127617717E0
2.550189315E2,5.513063431E0,-8.165507317E0,-9.726824164E-1
2.555189315E2,5.416153908E0,-8.196015358E0,-2.075773627E-1
2.560189315E2,5.562116146E0,-8.213961601E0,-9.631111026E-1
2.565189315E2,5.391627789E0,-8.411968231E0,-6.957131624E-1
2.570189315E2,5.176273346E0,-8.261817932E0,-1.287338614E0
2.575189315E2,6.028118610E0,-7.447660446E0,-7.178468108E-1
2.580189315E2,5.348556995E0,-7.932805061E0,-2.931207716E-1
2.585189315E2,5.511867046E0,-8.011170387E0,-9.571290761E-2
2.590189315E2,5.583651543E0,-7.834101200E0,-4.666004330E-2
2.595189315E2,5.395216942E0,-7.728816986E0,2.883351147E-1
2.600189315E2,5.231906891E0,-8.508877754E0,1.244267747E-1
2.605189315E2,5.650052547E0,-7.741379261E0,5.682953596E-1
2.610189315E2,6.385247231E0,-7.746763229E0,8.219345808E-1
2.615189315E2,5.977271080E0,-7.690532207E0,-8.733802289E-2
2.620189315E2,6.240481377E0,-7.788039684E0,-1.992024779E-1
2.625189315E2,6.793821812E0,-7.606184959E0,-6.669993401E-1
2.630189315E2,6.138786316E0,-7.624729156E0,-5.324030519E-1
2.635189315E2,6.851249218E0,-7.167101860E0,-2.991028363E-3
2.640189315E2,7.889734268E0,-6.730412006E0,7.178468257E-2
2.645189315E2,8.803792953E0,-3.960719585E0,-6.604190469E-1
2.650189315E2,9.466006279E0,-2.330609322E0,-1.896311939E-1
2.655189315E2,9.178867340E0,-2.867797852E0,-2.805584669E-1
2.660189315E2,9.279366493E0,-2.847458839E0,-1.034895778E-1
2.665189315E2,9.391230583E0,-2.879163742E0,5.982056726E-3
2.670189315E2,8.918647766E0,-3.671786308E0,8.787640929E-1
2.675189315E2,8.491529465E0,-5.305486202E0,1.268195987E0
2.680189315E2,8.407182693E0,-5.087141037E0,2.650051117E-1
2.685189315E2,8.359326363E0,-5.138586521E0,5.760720372E-1
2.690189315E2,8.266005516E0,-5.298905849E0,4.624129832E-1
2.695189315E2,8.210970879E0,-5.543571949E0,2.709871531E-1
2.700189315E2,8.137392044E0,-5.439484119E0,2.871387303E-1
2.705189315E2,8.103293419E0,-5.377270699E0,1.914258152E-1
2.710189315E2,8.167302132E0,-5.587839127E0,1.423729509E-1
2.715189315E2,7.944170952E0,-5.614758492E0,8.315058798E-2
2.720189315E2,7.990831375E0,-5.660222054E0,1.310070455E-1
2.725189315E2,8.122436523E0,-5.571687698E0,5.503492355E-1
2.730189315E2,8.352147102E0,-5.639284611E0,5.742774159E-2
2.735189315E2,7.610970497E0,-6.104688644E0,1.686939895E-1
2.740189315E2,7.722237110E0,-6.500700951E0,1.549352705E-1
2.745189315E2,7.111468792E0,-6.449255466E0,2.554338276E-1
2.750189315E2,7.304689407E0,-6.514459610E0,3.122633696E-1
2.755189315E2,7.306483746E0,-6.506682873E0,2.440679073E-1
2.760189315E2,7.344171047E0,-6.442675114E0,2.554338276E-1
2.765189315E2,7.509873867E0,-6.415755749E0,1.674975902E-1
2.770189315E2,7.368697166E0,-6.445067883E0,-1.328016520E-1
2.775189315E2,7.249056339E0,-6.672984123E0,-1.944168359E-1
2.780189315E2,7.240681171E0,-6.495915413E0,-5.204389095E-1
2.785189315E2,7.238886833E0,-6.588637352E0,-5.665007830E-1
2.790189315E2,7.445267677E0,-6.483353138E0,-4.749752879E-1
2.795189315E2,7.337590694E0,-6.484549522E0,-5.437689424E-1
2.800189315E2,7.240681171E0,-6.502495766E0,-5.599204898E-1
2.805189315E2,7.337590694E0,-6.471388817E0,-5.036891699E-1
2.810189315E2,7.246663570E0,-6.457630157E0,-5.186443329E-1
2.815189315E2,7.026523590E0,-6.513263226E0,-8.123632669E-1
2.820189315E2,7.182057381E0,-6.678966045E0,-6.538388133E-1
2.825189315E2,6.680760860E0,-6.726822853E0,-4.929214716E-1
2.830189315E2,6.714260101E0,-7.027122021E0,-3.445664644E-1
2.835189315E2,6.591628075E0,-7.134200573E0,-4.319044948E-1
2.840189315E2,6.349354744E0,-7.485945702E0,-3.409772217E-1
2.845189315E2,5.955137253E0,-7.977670670E0,-3.714857101E-1
2.850189315E2,5.243272781E0,-8.268398285E0,-3.762713671E-1
2.855189315E2,5.401198864E0,-8.118248940E0,-4.576273263E-1
2.860189315E2,5.382654667E0,-8.089534760E0,-4.863412082E-1
2.865189315E2,5.446064472E0,-8.017750740E0,-4.701896608E-1
2.870189315E2,5.463412285E0,-8.106883049E0,-4.193421602E-1
2.875189315E2,5.458626747E0,-8.112865448E0,-4.803591371E-1
2.880189315E2,5.501697540E0,-8.122436523E0,-3.714857101E-1
2.885189315E2,5.535196781E0,-8.026723862E0,-3.840480447E-1
2.890189315E2,6.028716564E0,-7.698308468E0,-2.955136001E-1
2.895189315E2,6.081358910E0,-7.630113125E0,-4.480560422E-1
2.900189315E2,5.999404430E0,-7.627122402E0,-3.122633696E-1
2.905189315E2,6.023332596E0,-7.676175117E0,-5.252245665E-1
2.910189315E2,6.023931026E0,-7.622336388E0,-4.671986103E-1
2.915189315E2,6.133402824E0,-7.730611801E0,-2.811566591E-1
2.920189315E2,5.758327484E0,-7.768897057E0,-8.482556343E-1
2.925189315E2,5.433502197E0,-8.277970314E0,-7.848458290E-1
2.930189315E2,5.550152302E0,-8.199604988E0,-8.500502706E-1
2.935189315E2,5.408975601E0,-7.816154957E0,-1.482353687E0
2.940189315E2,5.178068161E0,-7.828119278E0,-1.622333765E0
2.945189315E2,4.862215519E0,-8.137392044E0,-5.916253924E-1
2.950189315E2,4.621737003E0,-7.438687325E0,-1.175474167E0
2.955189315E2,4.901697159E0,-8.940781593E0,-5.300102234E-1
2.960189315E2,4.894518852E0,-8.452646255E0,-4.845465720E-1
2.965189315E2,5.252843857E0,-8.335397720E0,-1.363908887E0
2.970189315E2,5.271986485E0,-8.280961037E0,-1.058824062E0
2.975189315E2,4.370490551E0,-8.117650986E0,-2.386242390E0
2.980189315E2,4.350151539E0,-8.411369324E0,-2.030309916E0
2.985189315E2,5.028516769E0,-8.261817932E0,-1.419542074E0
2.990189315E2,5.094917774E0,-8.277970314E0,-1.688136339E0
2.995189315E2,5.050650597E0,-8.287541389E0,-1.695314884E0
3.000189315E2,5.243870735E0,-8.106883049E0,-1.601994753E0
3.005189315E2,5.217549801E0,-8.068597794E0,-1.500898004E0
3.010189315E2,4.946562767E0,-8.306085587E0,-1.546959877E0
3.015189315E2,5.218147755E0,-8.151150703E0,-1.374676585E0
3.020189315E2,5.631507874E0,-8.044670105E0,-1.149751306E0
3.025189315E2,5.194219589E0,-8.190033913E0,-1.113260746E0
3.030189315E2,5.440082073E0,-8.111668587E0,-8.985049129E-1
3.035189315E2,5.495117188E0,-8.038089752E0,-8.410771489E-1
3.040189315E2,5.720640659E0,-8.053044319E0,-1.014556766E0
3.045189315E2,5.611767292E0,-7.982456207E0,-9.678967595E-1
3.050189315E2,5.672185898E0,-7.954938889E0,-1.052842021E0
3.055189315E2,5.718846321E0,-8.008178711E0,-1.060618639E0
3.060189315E2,5.526223660E0,-8.038089752E0,-8.602197170E-1
3.065189315E2,5.499902725E0,-8.076972961E0,-8.709874153E-1
3.070189315E2,5.664409637E0,-7.993822098E0,-7.770691514E-1
3.075189315E2,5.572285652E0,-8.001599312E0,-7.399803996E-1
3.080189315E2,5.510072231E0,-8.041080475E0,-9.170492887E-1
3.085189315E2,5.367699623E0,-8.145168304E0,-1.001396298E0
3.090189315E2,5.889334679E0,-7.913662910E0,-7.531409264E-1
3.095189315E2,6.098108292E0,-8.032107353E0,-2.727817893E-1
3.100189315E2,7.025327206E0,-6.433701992E0,5.599204898E-1
3.105189315E2,7.092326164E0,-6.044270039E0,-8.356932998E-1
3.110189315E2,5.680561066E0,-7.697112083E0,-1.231107235E0
3.115189315E2,5.020142078E0,-8.166105270E0,-2.760120869E0
3.120189315E2,4.701298237E0,-8.347960472E0,-2.246262312E0
3.125189315E2,4.697709084E0,-8.219944000E0,-1.844268084E0
3.130189315E2,4.782654285E0,-8.347361565E0,-1.970489502E0
3.135189315E2,4.809573650E0,-8.304888725E0,-1.785045743E0
3.140189315E2,4.892126083E0,-8.334799767E0,-1.645065546E0
3.145189315E2,5.102694511E0,-8.315656662E0,-2.020738840E0
3.150189315E2,4.820939541E0,-8.339585304E0,-1.692921996E0
3.155189315E2,4.678566456E0,-8.231309891E0,-1.965105653E0
3.160189315E2,5.383851051E0,-8.215756416E0,-2.024327993E0
3.165189315E2,5.146363258E0,-8.207381248E0,-1.697109461E0
3.170189315E2,4.287938118E0,-8.294719696E0,-2.939582586E0
3.175189315E2,3.946960926E0,-8.213363647E0,-3.470789194E0
3.180189315E2,2.919243574E0,-8.512466431E0,-3.390031576E0
3.185189315E2,3.094517946E0,-8.459226608E0,-3.788436413E0
3.190189315E2,3.623929977E0,-8.325826645E0,-3.717249870E0
3.195189315E2,3.369094372E0,-8.140382767E0,-3.667598963E0
3.200189315E2,3.683750391E0,-8.134400368E0,-3.764508247E0
3.205189315E2,3.022733212E0,-8.362317085E0,-3.477967739E0
3.210189315E2,3.533002615E0,-8.313861847E0,-3.912863255E0
3.215189315E2,3.628715515E0,-8.256434441E0,-3.651447296E0
3.220189315E2,3.702893019E0,-8.149953842E0,-3.815953970E0
3.225189315E2,3.696312666E0,-8.197810173E0,-3.611965895E0
3.230189315E2,3.603590965E0,-8.229515076E0,-3.815355778E0
3.235189315E2,4.018147469E0,-8.088936806E0,-3.745365620E0
3.240189315E2,3.495315790E0,-8.053044319E0,-3.772883177E0
3.245189315E2,3.923032761E0,-8.350951195E0,-3.882354736E0
3.250189315E2,3.611965895E0,-8.237890244E0,-3.654438496E0
3.255189315E2,3.557528973E0,-8.316255569E0,-3.643072367E0
3.260189315E2,3.934996843E0,-8.164310455E0,-3.656233072E0
3.265189315E2,3.956532240E0,-8.033304214E0,-3.684946775E0
3.270189315E2,4.204787731E0,-8.159524918E0,-3.725026608E0
3.275189315E2,3.964308977E0,-8.177471161E0,-3.678964853E0
3.280189315E2,3.827319860E0,-8.078168869E0,-3.662813187E0
3.285189315E2,3.967299938E0,-8.301898003E0,-3.632304668E0
3.290189315E2,3.534797192E0,-8.423932076E0,-3.658027649E0
3.295189315E2,4.793421745E0,-8.012965202E0,-2.721835852E0
3.300189315E2,4.849055290E0,-8.098507881E0,-2.314457655E0
3.305189315E2,4.734199524E0,-8.246863365E0,-2.379662037E0
3.310189315E2,4.932804108E0,-8.208578110E0,-2.258824587E0
3.315189315E2,5.136792183E0,-8.165507317E0,-2.391626120E0
3.320189315E2,5.155934811E0,-8.115258217E0,-2.246262312E0
3.325189315E2,4.819144726E0,-8.120043755E0,-2.076970100E0
3.330189315E2,5.085346222E0,-8.111668587E0,-2.107478619E0
3.335189315E2,4.765306473E0,-8.172685623E0,-2.283949137E0
3.340189315E2,5.122435093E0,-8.205587387E0,-2.073979139E0
3.345189315E2,4.572085857E0,-8.231309891E0,-2.347957134E0
3.350189315E2,4.941776752E0,-8.191828728E0,-2.349751949E0
3.355189315E2,4.942375183E0,-8.282156944E0,-2.022533417E0
3.360189315E2,5.246263504E0,-8.218149185E0,-2.050050735E0
3.365189315E2,4.480560303E0,-8.481359482E0,-2.093121529E0
3.370189315E2,4.676771641E0,-8.378468513E0,-2.136192322E0
3.375189315E2,4.999803066E0,-8.170890808E0,-1.993819475E0
3.380189315E2,4.650450706E0,-8.423932076E0,-2.240878344E0
3.385189315E2,4.425525665E0,-8.320442200E0,-2.097309113E0
3.390189315E2,5.270790100E0,-8.189435959E0,-2.193022013E0
3.395189315E2,4.798207760E0,-8.465806961E0,-2.081755638E0
3.400189315E2,5.095515728E0,-8.346165657E0,-1.875972986E0
3.405189315E2,5.008776188E0,-8.151150703E0,-2.257628202E0
3.410189315E2,5.013561726E0,-8.075178146E0,-2.188236237E0
3.415189315E2,4.575077057E0,-8.179863930E0,-2.251047850E0
3.420189315E2,4.864010334E0,-8.337790489E0,-2.220539331E0
3.425189315E2,5.011766911E0,-8.282755852E0,-2.047059774E0
3.430189315E2,4.777270317E0,-8.155936241E0,-2.142174482E0
3.435189315E2,4.902295589E0,-8.239086151E0,-2.197807550E0
3.440189315E2,4.951348305E0,-8.114660263E0,-2.202593327E0
3.445189315E2,4.804787636E0,-8.311469078E0,-2.284547329E0
3.450189315E2,4.697709084E0,-8.414958954E0,-2.188236237E0
3.455189315E2,4.410570145E0,-8.291728973E0,-2.091326952E0
3.460189315E2,4.759922504E0,-8.190033913E0,-2.435893536E0
3.465189315E2,4.666004181E0,-8.273183823E0,-2.243271112E0
3.470189315E2,4.956732273E0,-8.300103188E0,-2.209173441E0
3.475189315E2,4.624129772E0,-8.247461319E0,-2.227119684E0
3.480189315E2,4.698307037E0,-8.205587387E0,-1.977667928E0
3.485189315E2,4.894518852E0,-8.108677864E0,-2.315055847E0
3.490189315E2,4.911866665E0,-8.254041672E0,-2.171486616E0
3.495189315E2,4.661218643E0,-8.260024071E0,-2.265404940E0
3.500189315E2,4.581656933E0,-8.306683540E0,-2.330609322E0
3.505189315E2,4.907081127E0,-8.274380684E0,-2.181057930E0
3.510189315E2,4.794020176E0,-8.358727455E0,-1.993819475E0
3.515189315E2,4.738985062E0,-8.301300049E0,-2.026122570E0
3.520189315E2,5.088337421E0,-8.200801849E0,-2.084746838E0
3.525189315E2,4.814359188E0,-8.271389961E0,-2.200200319E0
3.530189315E2,4.222135544E0,-8.429315567E0,-2.322234392E0
3.535189315E2,4.552345276E0,-8.206185341E0,-2.242672920E0
3.540189315E2,4.628915310E0,-8.180462837E0,-2.292324066E0
3.545189315E2,4.763511658E0,-8.240880966E0,-2.154736757E0
3.550189315E2,4.914857864E0,-8.123034477E0,-2.281556368E0
3.555189315E2,4.498506546E0,-8.397012711E0,-2.314457655E0
3.560189315E2,4.803591251E0,-8.244470596E0,-2.120040894E0
3.565189315E2,4.656432629E0,-8.507680893E0,-2.130808592E0
3.570189315E2,4.810770035E0,-8.269595146E0,-2.156531334E0
3.575189315E2,4.599005222E0,-8.328817368E0,-2.219342947E0
3.580189315E2,4.707280159E0,-8.410173416E0,-2.151745796E0
3.585189315E2,4.793421745E0,-8.280961037E0,-1.965703845E0
3.590189315E2,5.073980331E0,-8.227720261E0,-2.309672117E0
3.595189315E2,4.692923546E0,-8.313861847E0,-2.520240545E0
3.600189315E2,4.975276470E0,-8.373682976E0,-2.157129526E0
3.605189315E2,5.051846981E0,-8.277371407E0,-1.920838356E0
3.610189315E2,4.529015064E0,-8.295317650E0,-2.506481647E0
3.615189315E2,4.410570145E0,-8.309076309E0,-2.356332064E0
3.620189315E2,4.940580368E0,-8.221738815E0,-2.308475733E0
3.625189315E2,4.789234638E0,-8.331808090E0,-2.106880426E0
3.630189315E2,4.616951466E0,-8.367102623E0,-2.424527645E0
3.635189315E2,4.653441906E0,-8.505288124E0,-2.059023857E0
3.640189315E2,4.581656933E0,-8.320442200E0,-2.207378864E0
3.645189315E2,4.622933388E0,-8.384450912E0,-2.396411896E0
3.650189315E2,5.018945694E0,-8.318648338E0,-2.379662037E0
3.655189315E2,4.851448059E0,-8.376673698E0,-2.718246460E0
3.660189315E2,4.342374802E0,-8.601598740E0,-2.419741869E0
3.665189315E2,4.811367989E0,-8.322237015E0,-2.318047047E0
3.670189315E2,4.669593334E0,-8.406583786E0,-2.357528448E0
3.675189315E2,4.503292084E0,-8.481359482E0,-2.241476536E0
3.680189315E2,4.512863636E0,-8.422736168E0,-2.236690998E0
3.685189315E2,5.253442287E0,-8.129614830E0,-2.228316069E0
3.690189315E2,4.025924206E0,-8.161319733E0,-2.514258385E0
3.695189315E2,4.608576298E0,-8.185248375E0,-2.343769789E0
3.700189315E2,4.902295589E0,-8.012965202E0,-2.515454769E0
3.705189315E2,4.787439823E0,-8.158329010E0,-2.699103832E0
3.710189315E2,4.471587181E0,-8.277970314E0,-2.403590441E0
3.715189315E2,4.366302967E0,-8.178668022E0,-2.499303341E0
3.720189315E2,4.578666210E0,-8.129016876E0,-2.769692183E0
3.725189315E2,4.604987144E0,-8.075178146E0,-2.732603550E0
3.730189315E2,4.447061062E0,-8.364111900E0,-2.965903759E0
3.735189315E2,4.378865242E0,-8.193024635E0,-2.785245657E0
3.740189315E2,4.270590305E0,-8.318648338E0,-2.526820660E0
3.745189315E2,4.583451748E0,-8.218747139E0,-2.813959360E0
3.750189315E2,4.410570145E0,-8.271389961E0,-2.642872572E0
3.755189315E2,4.525425911E0,-8.299505234E0,-2.525026083E0
3.760189315E2,4.435096741E0,-8.240880966E0,-2.667398930E0
3.765189315E2,4.286741734E0,-8.322237015E0,-2.646461725E0
3.770189315E2,4.383651257E0,-8.354539871E0,-2.638087034E0
3.775189315E2,4.688735962E0,-8.146963120E0,-2.828316450E0
3.780189315E2,4.989633560E0,-8.242077827E0,-2.590230465E0
3.785189315E2,4.533800602E0,-8.307880402E0,-2.627319336E0
3.790189315E2,4.438087940E0,-8.312665939E0,-2.746960402E0
3.795189315E2,4.308875561E0,-8.373085022E0,-2.708675146E0
3.800189315E2,4.437489510E0,-8.236095428E0,-2.868396044E0
3.805189315E2,4.384847641E0,-8.381459236E0,-2.687737942E0
3.810189315E2,4.528416634E0,-8.350951195E0,-2.580659151E0
3.815189315E2,4.630710125E0,-8.286943436E0,-2.490330219E0
3.820189315E2,4.509274483E0,-8.292326927E0,-2.614757061E0
3.825189315E2,4.480560303E0,-8.334799767E0,-2.458027124E0
3.830189315E2,4.573282242E0,-8.225327492E0,-2.517249346E0
3.835189315E2,4.561916351E0,-8.286943436E0,-2.499901533E0
3.840189315E2,4.529015064E0,-8.277970314E0,-2.530410051E0
3.845189315E2,4.528416634E0,-8.247461319E0,-2.608176708E0
3.850189315E2,4.536791801E0,-8.297112465E0,-2.518445730E0
3.855189315E2,4.439284325E0,-8.337790489E0,-2.508874655E0
3.860189315E2,4.467998028E0,-8.325826645E0,-2.580659151E0
3.865189315E2,4.461417675E0,-8.310871124E0,-2.630310297E0
3.870189315E2,4.487739086E0,-8.314460754E0,-2.552543640E0
3.875189315E2,4.558925152E0,-8.234899521E0,-2.558525562E0
3.880189315E2,4.479363918E0,-8.263014793E0,-2.629113913E0
3.885189315E2,4.607379913E0,-8.213961601E0,-2.663809776E0
3.890189315E2,4.338785648E0,-8.322237015E0,-2.853441000E0
3.895189315E2,4.411168575E0,-8.298309326E0,-2.731407166E0
3.900189315E2,4.470989227E0,-8.254041672E0,-2.737389088E0
3.905189315E2,4.439284325E0,-8.274380684E0,-2.700300455E0
3.910189315E2,4.377070904E0,-8.313861847E0,-2.735594511E0
3.915189315E2,4.300500393E0,-8.344370842E0,-2.710469961E0
3.920189315E2,4.401597023E0,-8.319246292E0,-2.707478762E0
3.925189315E2,4.370490551E0,-8.269595146E0,-2.769692183E0
3.930189315E2,4.372285366E0,-8.296514511E0,-2.782254457E0
3.935189315E2,4.332205296E0,-8.408378601E0,-2.718246460E0
3.940189315E2,4.396213531E0,-8.234899521E0,-2.343171597E0
3.945189315E2,4.506283283E0,-8.313861847E0,-2.678166628E0
3.950189315E2,4.180859566E0,-8.360522270E0,-2.042274237E0
3.955189315E2,4.121636868E0,-8.517251968E0,-2.587239504E0
3.960189315E2,4.413561344E0,-8.285148621E0,-2.612962246E0
3.965189315E2,3.708875179E0,-8.571090698E0,-3.531806231E0
3.970189315E2,3.670589924E0,-8.465806961E0,-2.769093990E0
3.975189315E2,4.320241451E0,-8.306683540E0,-2.474178553E0
3.980189315E2,4.078566074E0,-8.582456589E0,-2.367099762E0
3.985189315E2,4.613361835E0,-8.483752251E0,-2.224128723E0
3.990189315E2,3.860819340E0,-8.590232849E0,-2.075175524E0
3.995189315E2,4.363312244E0,-8.543573380E0,-1.973480463E0
4.000189315E2,4.380061626E0,-8.431110382E0,-2.148754835E0
4.005189315E2,4.505086899E0,-8.403593063E0,-2.153540373E0
4.010189315E2,4.506881237E0,-8.408378601E0,-2.104487419E0
4.015189315E2,4.437489510E0,-8.483154297E0,-2.124826431E0
4.020189315E2,4.532006264E0,-8.377870560E0,-2.190629244E0
4.025189315E2,4.383651257E0,-8.416753769E0,-2.116451740E0
4.030189315E2,4.601995945E0,-8.432307243E0,-2.207977057E0
4.035189315E2,4.396811485E0,-8.395816803E0,-2.115255117E0
4.040189315E2,4.381856441E0,-8.414958954E0,-2.147558212E0
4.045189315E2,4.467998028E0,-8.458029747E0,-2.117049932E0
4.050189315E2,4.461417675E0,-8.414361000E0,-2.164308071E0
4.055189315E2,4.548157692E0,-8.378468513E0,-2.113460541E0
4.060189315E2,4.710271358E0,-8.325227737E0,-2.354537487E0
4.065189315E2,4.597210407E0,-8.309675217E0,-2.247458696E0
4.070189315E2,4.743771076E0,-8.316255569E0,-2.156531334E0
4.075189315E2,4.375276089E0,-8.443673134E0,-2.092523336E0
4.080189315E2,4.428516388E0,-8.467002869E0,-2.070389748E0
4.085189315E2,4.566701889E0,-8.447860718E0,-1.853839397E0
4.090189315E2,3.990031719E0,-8.702097893E0,-2.075773716E0
4.095189315E2,3.077169895E0,-8.773882866E0,-2.451446772E0
4.100189315E2,4.316651821E0,-8.653642654E0,-1.797608018E0
4.105189315E2,4.171288013E0,-8.603393555E0,-1.836491346E0
4.110189315E2,4.104289055E0,-8.531010628E0,-2.128415823E0
4.115189315E2,3.949951887E0,-8.657232285E0,-2.242672920E0
4.120189315E2,4.106083870E0,-8.476573944E0,-2.298904419E0
4.125189315E2,4.318446636E0,-8.602795601E0,-2.173879385E0
4.130189315E2,4.270590305E0,-8.505886078E0,-2.304886341E0
4.135189315E2,4.597808838E0,-8.167900085E0,-2.520838737E0
4.140189315E2,4.021138668E0,-8.606385231E0,-2.214557409E0
4.145189315E2,4.370490551E0,-8.534002304E0,-1.980060697E0
4.150189315E2,3.643670797E0,-8.757730484E0,-2.612962246E0
4.155189315E2,4.083950043E0,-8.574081421E0,-2.166700840E0
4.160189315E2,4.366302967E0,-8.488538742E0,-1.953739643E0
4.165189315E2,4.185645103E0,-8.687142372E0,-1.953739643E0
4.170189315E2,3.641875982E0,-8.971290588E0,-1.898106575E0
4.175189315E2,4.569094658E0,-8.554939270E0,-5.491527915E-1
4.180189315E2,4.481158733E0,-8.702097893E0,-7.704889178E-1
4.185189315E2,4.828716278E0,-8.607581139E0,-6.777670383E-1
4.190189315E2,4.983053207E0,-8.189435959E0,-5.060819983E-1
4.195189315E2,4.481158733E0,-8.749356270E0,-7.334001660E-1
4.200189315E2,4.540380955E0,-8.717651367E0,-1.040877849E-1
4.205189315E2,5.191228867E0,-8.368897438E0,-3.014956415E-1
4.210189315E2,4.045066833E0,-8.837292671E0,-8.769695163E-1
4.215189315E2,5.098506927E0,-8.516654015E0,-1.770688742E-1
4.220189315E2,4.315455437E0,-8.738588333E0,-3.972085714E-1
4.225189315E2,4.735994339E0,-8.627322197E0,-5.108676553E-1
4.230189315E2,4.700700283E0,-8.563314438E0,-5.874379873E-1
4.235189315E2,4.528416634E0,-8.681160927E0,-7.100701332E-1
4.240189315E2,4.735994339E0,-8.595019341E0,-5.904290080E-1
4.245189315E2,4.638486862E0,-8.606385231E0,-5.084748268E-1
4.250189315E2,4.593023300E0,-8.632107735E0,-6.472585201E-1
4.255189315E2,4.380660057E0,-8.698508263E0,-8.584251404E-1
4.260189315E2,4.595416069E0,-8.651249886E0,-7.734799385E-1
4.265189315E2,4.523631096E0,-8.656036377E0,-8.356932998E-1
4.270189315E2,4.503292084E0,-8.701499939E0,-7.453642488E-1
4.275189315E2,4.328018188E0,-8.752944946E0,-9.894321561E-1
4.280189315E2,4.412364960E0,-8.659027100E0,-1.012762189E0
4.285189315E2,4.485345840E0,-8.673383713E0,-1.051645517E0
4.290189315E2,4.482953072E0,-8.632107735E0,-7.627122402E-1
4.295189315E2,4.407579422E0,-8.589036942E0,-1.282552958E0
4.300189315E2,3.988237143E0,-8.775676727E0,-5.659025311E-1
4.305189315E2,3.651447296E0,-9.043074608E0,-4.582255483E-1
4.310189315E2,3.835096598E0,-8.998807907E0,-6.424728632E-1
4.315189315E2,3.714857101E0,-8.959924698E0,-5.246263742E-1
4.320189315E2,4.293920040E0,-8.679964066E0,-4.749752879E-1
4.325189315E2,3.748954773E0,-8.943174362E0,-1.415354609E0
4.330189315E2,3.930809498E0,-8.863015175E0,-1.295713425E0
4.335189315E2,4.029513359E0,-8.700303078E0,-1.510469317E0
4.340189315E2,3.830310822E0,-8.834300995E0,-1.512263894E0
4.345189315E2,4.133601189E0,-8.857032776E0,-1.477568030E0
4.350189315E2,3.774079561E0,-9.013164520E0,-1.091127157E0
4.355189315E2,3.915854216E0,-8.863015175E0,-1.222134113E0
4.360189315E2,4.147359848E0,-8.922237396E0,-1.078564763E0
4.365189315E2,3.912863255E0,-8.933603287E0,-1.207777262E0
4.370189315E2,4.179064751E0,-8.767302513E0,-1.130608678E0
4.375189315E2,3.989433527E0,-8.808578491E0,-9.726824164E-1
4.380189315E2,3.981656790E0,-8.818747520E0,-1.186840057E0
4.385189315E2,4.104289055E0,-8.780462265E0,-9.702895880E-1
4.390189315E2,4.109074593E0,-8.722436905E0,-1.180858016E0
4.395189315E2,4.122235298E0,-8.692526817E0,-9.942178130E-1
4.400189315E2,4.287938118E0,-8.622536659E0,-1.454836130E0
4.405189315E2,4.204787731E0,-8.732007980E0,-1.229910851E0
4.410189315E2,4.208376884E0,-8.772088051E0,-1.370489120E0
4.415189315E2,4.028316975E0,-8.853444099E0,-1.383051515E0
4.420189315E2,4.302295208E0,-8.658429146E0,-1.417747378E0
4.425189315E2,3.836891174E0,-8.883354187E0,-1.214357495E0
4.430189315E2,4.155136585E0,-8.778069496E0,-1.274776220E0
4.435189315E2,4.122235298E0,-8.930013657E0,-1.319641709E0
4.440189315E2,3.927220106E0,-8.946166039E0,-1.344766378E0
4.445189315E2,3.988237143E0,-8.868997574E0,-1.204187989E0
4.450189315E2,3.889533281E0,-8.885746956E0,-1.111466169E0
4.455189315E2,4.281956196E0,-8.577671051E0,-1.205982566E0
4.460189315E2,4.451846600E0,-8.709874153E0,-1.312463164E0
4.465189315E2,4.156930923E0,-8.749356270E0,-1.249053478E0
4.470189315E2,4.276572227E0,-8.715856552E0,-1.427916884E0
4.475189315E2,4.174877167E0,-8.878568649E0,-1.144965649E0
4.480189315E2,4.335794449E0,-8.693722725E0,-1.282552958E0
4.485189315E2,4.461417675E0,-8.496315002E0,-1.222134113E0
4.490189315E2,4.278367043E0,-8.617152214E0,-1.091127157E0
4.495189315E2,4.661218643E0,-8.595019341E0,-1.149751306E0
4.500189315E2,3.997210264E0,-8.909076691E0,-1.313061476E0
4.505189315E2,4.653441906E0,-8.520243645E0,-1.529611826E0
4.510189315E2,4.439882278E0,-8.684749603E0,-1.144965649E0
4.515189315E2,4.533800602E0,-8.721240044E0,-1.265205026E0
4.520189315E2,4.318446636E0,-8.858229637E0,-1.220339537E0
4.525189315E2,4.619942188E0,-8.760722160E0,-1.075573802E0
4.530189315E2,4.585844517E0,-8.696713448E0,-1.092323542E0
4.535189315E2,4.669593334E0,-8.373682976E0,-1.386640668E0
4.540189315E2,4.622933388E0,-8.645866394E0,-1.081555843E0
4.545189315E2,4.610371113E0,-8.517251968E0,-1.006181955E0
4.550189315E2,4.279563427E0,-8.694320679E0,-1.350748420E0
4.555189315E2,4.575077057E0,-8.657232285E0,-9.589236975E-1
4.560189315E2,4.346562386E0,-8.647661209E0,-1.221535921E0
4.565189315E2,4.774279594E0,-8.422736168E0,-1.240678549E0
4.570189315E2,4.586442947E0,-8.632107735E0,-1.048056364E0
4.575189315E2,4.478167534E0,-8.679366112E0,-1.168893814E0
4.580189315E2,4.141377926E0,-8.808578491E0,-1.116251707E0
4.585189315E2,4.576871395E0,-8.618947029E0,-1.095912814E0
4.590189315E2,4.836492538E0,-8.382656097E0,-8.243274093E-1
4.595189315E2,4.661218643E0,-8.519644737E0,-1.210768223E0
4.600189315E2,4.611567497E0,-8.561519623E0,-8.548358679E-1
4.605189315E2,4.675575256E0,-8.512466431E0,-9.541380405E-1
4.610189315E2,4.648057938E0,-8.633303642E0,-1.064207911E0
4.615189315E2,4.619344234E0,-8.526225090E0,-1.113858938E0
4.620189315E2,4.663012981E0,-8.595019341E0,-1.156331539E0
4.625189315E2,4.538586140E0,-8.612964630E0,-1.071984529E0
4.630189315E2,4.390231133E0,-8.627322197E0,-9.870393276E-1
4.635189315E2,4.536791801E0,-8.622536659E0,-1.042074203E0
4.640189315E2,4.515854359E0,-8.603393555E0,-1.247258782E0
4.645189315E2,4.372883320E0,-8.578866959E0,-1.421336651E0
4.650189315E2,4.668995380E0,-8.607581139E0,-1.282552958E0
4.655189315E2,4.323232174E0,-8.656036377E0,-1.236491084E0
4.660189315E2,4.604987144E0,-8.555537224E0,-1.147358418E0
4.665189315E2,4.195814610E0,-8.564510345E0,-1.044467092E0
4.670189315E2,4.678566456E0,-8.531609535E0,-9.541380405E-1
4.675189315E2,4.368097782E0,-8.567501068E0,-1.111466169E0
4.680189315E2,4.478167534E0,-8.630312920E0,-1.102493048E0
4.685189315E2,4.462016106E0,-8.550153732E0,-1.009771109E0
4.690189315E2,4.823930264E0,-8.490931511E0,-1.119840980E0
4.695189315E2,4.438087940E0,-8.612366676E0,-9.649057388E-1
4.700189315E2,4.504488468E0,-8.724231720E0,-1.007976532E0
4.705189315E2,3.932604074E0,-8.708678246E0,-4.085744619E-1
4.710189315E2,4.541577339E0,-8.635098457E0,-5.228317380E-1
4.715189315E2,4.702494621E0,-8.505886078E0,-4.390829504E-1
4.720189315E2,4.313062668E0,-8.676374435E0,-1.325623751E0
4.725189315E2,4.983651161E0,-8.537590981E0,-7.764709592E-1
4.730189315E2,4.609772682E0,-8.617751122E0,-7.130611539E-1
4.735189315E2,4.317848682E0,-8.687142372E0,-5.234299302E-1
4.740189315E2,4.926223755E0,-8.481958389E0,-7.884350419E-1
4.745189315E2,4.792225361E0,-8.601598740E0,-7.016952634E-1
4.750189315E2,4.439284325E0,-8.585447311E0,-1.649851203E0
4.755189315E2,4.543372154E0,-8.649456024E0,-1.531406522E0
4.760189315E2,4.353142738E0,-8.675178528E0,-1.125823021E0
4.765189315E2,4.672584534E0,-8.609375954E0,-1.009771109E0
4.770189315E2,4.493721008E0,-8.518448830E0,-1.247856975E0
4.775189315E2,4.424927235E0,-8.673383713E0,-1.125823021E0
4.780189315E2,4.370490551E0,-8.644071579E0,-1.121635556E0
4.785189315E2,4.420739651E0,-8.554939270E0,-1.024128079E0
4.790189315E2,4.519443989E0,-8.574081421E0,-1.043270707E0
4.795189315E2,4.515854359E0,-8.625527382E0,-1.051047325E0
4.800189315E2,4.506283283E0,-8.669795036E0,-1.022333503E0
4.805189315E2,4.529015064E0,-8.716454506E0,-1.098903775E0
4.810189315E2,4.480560303E0,-8.641080856E0,-1.442273855E0
4.815189315E2,4.447061062E0,-8.611170769E0,-1.153340459E0
4.820189315E2,4.524229527E0,-8.620741844E0,-9.744769931E-1
4.825189315E2,4.595416069E0,-8.610571861E0,-1.068993568E0
4.830189315E2,4.428516388E0,-8.650651932E0,-1.112064362E0
4.835189315E2,4.402793884E0,-8.666803360E0,-1.015753269E0
4.840189315E2,4.535595417E0,-8.648857117E0,-9.876375198E-1
4.845189315E2,4.430311203E0,-8.644071579E0,-1.001396298E0
4.850189315E2,4.344169617E0,-8.684151649E0,-8.889335990E-1
4.855189315E2,4.502095699E0,-8.697312355E0,-7.752745152E-1
4.860189315E2,4.611567497E0,-8.666803360E0,-8.021938205E-1
4.865189315E2,4.709074974E0,-8.663214684E0,-8.913264275E-1
4.870189315E2,4.369294167E0,-8.835497856E0,-8.404789567E-1
4.875189315E2,4.394418716E0,-8.742177963E0,-8.602197170E-1
4.880189315E2,4.400999069E0,-8.801998138E0,-8.931210637E-1
4.885189315E2,4.372285366E0,-8.723034859E0,-8.147560954E-1
4.890189315E2,4.372285366E0,-8.706285477E0,-7.381857634E-1
4.895189315E2,4.616353035E0,-8.635098457E0,-9.361918569E-1
4.900189315E2,4.565505505E0,-8.715856552E0,-8.003991842E-1
4.905189315E2,4.311866283E0,-8.762516975E0,-8.362914920E-1
4.910189315E2,4.447061062E0,-8.712865829E0,-9.439685345E-1
4.915189315E2,4.843072891E0,-8.508877754E0,-1.327418327E0
4.920189315E2,4.287938118E0,-8.743373871E0,-9.924231768E-1
4.925189315E2,4.688735962E0,-8.690732002E0,-1.190429211E0
4.930189315E2,3.795016766E0,-8.845666885E0,-9.762716293E-1
4.935189315E2,4.659423828E0,-8.500502586E0,-7.896314859E-1
4.940189315E2,4.334000111E0,-8.553742409E0,-9.122636318E-1
4.945189315E2,4.576871395E0,-8.488538742E0,-1.038485050E0
4.950189315E2,4.827519894E0,-8.376075745E0,-1.296909928E0
4.955189315E2,4.262215137E0,-8.559724808E0,-1.503889084E0
4.960189315E2,4.583451748E0,-8.501100540E0,-1.438684583E0
4.965189315E2,4.530809879E0,-8.483752251E0,-1.202393413E0
4.970189315E2,4.715056896E0,-8.540582657E0,-9.559326172E-1
4.975189315E2,4.744369030E0,-8.507082939E0,-1.055832982E0
4.980189315E2,4.870590687E0,-8.426324844E0,-9.828519225E-1
4.985189315E2,4.493721008E0,-8.632107735E0,-1.003789067E0
4.990189315E2,4.662415028E0,-8.558527946E0,-1.018146038E0
4.995189315E2,4.396213531E0,-8.358727455E0,-8.961120844E-1
5.000189315E2,4.820939541E0,-8.392825127E0,-1.155135155E0
5.005189315E2,4.289732933E0,-8.646464348E0,-1.201196909E0
5.010189315E2,4.737788677E0,-8.564510345E0,-1.006181955E0
5.015189315E2,4.710869789E0,-8.742177963E0,-9.966106415E-1
5.020189315E2,4.573880672E0,-8.441878319E0,-9.158528447E-1
5.025189315E2,4.537988186E0,-8.534600258E0,-1.231705427E0
5.030189315E2,4.945366383E0,-8.359326363E0,-1.098903775E0
5.035189315E2,4.779663086E0,-8.467002869E0,-1.025324464E0
5.040189315E2,4.846662045E0,-8.298309326E0,-1.041476011E0
5.045189315E2,4.434498787E0,-8.563314438E0,-1.132403374E0
5.050189315E2,4.784449100E0,-8.571090698E0,-1.102493048E0
5.055189315E2,4.680361271E0,-8.477172852E0,-1.078564763E0
5.060189315E2,4.739583492E0,-8.505288124E0,-1.052842021E0
5.065189315E2,4.400999069E0,-8.601000786E0,-1.086341500E0
5.070189315E2,4.677370071E0,-8.213363647E0,-1.664208174E0
5.075189315E2,4.769493580E0,-8.338388443E0,-1.326820135E0
5.080189315E2,4.762913704E0,-8.233104706E0,-1.485344648E0
5.085189315E2,4.671986103E0,-8.450253487E0,-1.320838094E0
5.090189315E2,4.784449100E0,-8.467600822E0,-1.384247899E0
5.095189315E2,4.643272400E0,-8.414361000E0,-1.491326690E0
5.100189315E2,4.691727161E0,-8.462217331E0,-1.435693622E0
5.105189315E2,4.782055855E0,-8.370093346E0,-1.478764415E0
5.110189315E2,4.637290478E0,-8.531010628E0,-1.417747378E0
5.115189315E2,4.652843475E0,-8.497511864E0,-1.333400369E0
5.120189315E2,4.502095699E0,-8.572885513E0,-1.310070395E0
5.125189315E2,4.509274483E0,-8.578866959E0,-1.293918848E0
5.130189315E2,4.767699242E0,-8.417949677E0,-1.193420291E0
5.135189315E2,4.709074974E0,-8.177471161E0,-1.983051777E0
5.140189315E2,4.396811485E0,-8.586644173E0,-1.563709617E0
5.145189315E2,4.502095699E0,-8.568099976E0,-1.355534077E0
5.150189315E2,4.413561344E0,-8.655437469E0,-1.531406522E0
5.155189315E2,4.518845558E0,-8.505886078E0,-1.467398524E0
5.160189315E2,4.547559261E0,-8.458029747E0,-1.226321578E0
5.165189315E2,4.717449665E0,-8.534002304E0,-1.159322619E0
5.170189315E2,4.616353035E0,-8.605786324E0,-1.794616938E0
5.175189315E2,4.482355118E0,-8.526823044E0,-1.637887120E0
5.180189315E2,4.231706619E0,-8.696713448E0,-1.590628862E0
5.185189315E2,4.530211449E0,-8.601000786E0,-1.369890928E0
5.190189315E2,4.603790760E0,-8.501100540E0,-1.514058471E0
5.195189315E2,4.542773724E0,-8.556734085E0,-1.343569875E0
5.200189315E2,4.418945312E0,-8.666803360E0,-1.614557028E0
5.205189315E2,4.435096741E0,-8.529216766E0,-1.825125456E0
5.210189315E2,4.671986103E0,-8.471788406E0,-1.713261008E0
5.215189315E2,4.683351994E0,-8.507680893E0,-1.694118381E0
5.220189315E2,4.559523582E0,-8.529216766E0,-1.783251047E0
5.225189315E2,4.408775806E0,-8.557929993E0,-1.603191137E0
5.230189315E2,4.755136967E0,-8.391031265E0,-1.752742529E0
5.235189315E2,4.582853794E0,-8.493324280E0,-1.601396561E0
5.240189315E2,3.891926050E0,-9.141778946E0,-1.517049551E0
5.245189315E2,4.643870354E0,-8.574680328E0,-7.118647099E-1
5.250189315E2,4.669593334E0,-8.581858635E0,-1.180858016E0
5.255189315E2,4.369294167E0,-8.641678810E0,-8.967102766E-1
5.260189315E2,4.682155609E0,-8.400003433E0,-1.146760225E0
5.265189315E2,4.803591251E0,-8.483154297E0,-1.319641709E0
5.270189315E2,4.442275047E0,-8.522037506E0,-1.389631748E0
5.275189315E2,4.267599106E0,-8.561519623E0,-1.895115495E0
5.280189315E2,4.160520554E0,-8.703892708E0,-1.588834286E0
5.285189315E2,4.250849247E0,-8.674580574E0,-1.577468276E0
5.290189315E2,4.002593994E0,-8.866005898E0,-1.671386600E0
5.295189315E2,3.949951887E0,-8.725427628E0,-1.692323804E0
5.300189315E2,4.482953072E0,-8.575876236E0,-1.523629785E0
5.305189315E2,4.391427994E0,-8.544171333E0,-1.566700578E0
5.310189315E2,4.463212490E0,-8.627322197E0,-1.687538147E0
5.315189315E2,4.394418716E0,-8.572287560E0,-1.687538147E0
5.320189315E2,4.543372154E0,-8.464012146E0,-1.581057549E0
5.325189315E2,4.549354076E0,-8.550153732E0,-1.555334687E0
5.330189315E2,4.341776848E0,-8.596215248E0,-1.537388563E0
5.335189315E2,4.445864677E0,-8.538787842E0,-1.671386600E0
5.340189315E2,4.436293125E0,-8.581858635E0,-1.630708575E0
5.345189315E2,4.313661098E0,-8.577671051E0,-1.661815286E0
5.350189315E2,4.407579422E0,-8.553742409E0,-1.573280931E0
5.355189315E2,4.407579422E0,-8.571090698E0,-1.502692580E0
5.360189315E2,4.444668293E0,-8.605786324E0,-1.469193101E0
5.365189315E2,4.307080746E0,-8.615358353E0,-1.563709617E0
5.370189315E2,4.458426952E0,-8.561519623E0,-1.534995675E0
5.375189315E2,4.434498787E0,-8.553144455E0,-1.556531072E0
5.380189315E2,4.423730850E0,-8.561519623E0,-1.542174220E0
5.385189315E2,4.439882278E0,-8.553742409E0,-1.585245013E0
5.390189315E2,4.378865242E0,-8.598010063E0,-1.549352646E0
5.395189315E2,4.250849247E0,-8.684151649E0,-1.528415442E0
5.400189315E2,4.399204254E0,-8.610571861E0,-1.542772412E0
5.405189315E2,4.384847641E0,-8.624929428E0,-1.587637782E0
5.410189315E2,4.347160339E0,-8.652446747E0,-1.542174220E0
5.415189315E2,4.152145386E0,-8.730213165E0,-1.489532113E0
5.420189315E2,4.364508629E0,-8.593224525E0,-1.604387641E0
5.425189315E2,4.201796532E0,-8.631509781E0,-1.727617979E0
5.430189315E2,4.162314892E0,-8.706285477E0,-1.606182218E0
5.435189315E2,4.180859566E0,-8.706883430E0,-1.594816327E0
5.440189315E2,4.258028030E0,-8.641678810E0,-1.489532113E0
5.445189315E2,4.378865242E0,-8.562715530E0,-1.711466432E0
5.450189315E2,4.323232174E0,-8.632107735E0,-1.529611826E0
5.455189315E2,4.324428558E0,-8.596813202E0,-1.664208174E0
5.460189315E2,4.257429600E0,-8.673383713E0,-1.563709617E0
5.465189315E2,4.274777889E0,-8.647661209E0,-1.547558069E0
5.470189315E2,4.347160339E0,-8.593822479E0,-1.580459356E0
5.475189315E2,4.369294167E0,-8.562715530E0,-1.644467354E0
5.480189315E2,4.341776848E0,-8.633303642E0,-1.561316729E0
5.485189315E2,4.319643021E0,-8.634500504E0,-1.598405480E0
5.490189315E2,4.345366001E0,-8.593224525E0,-1.527817249E0
5.495189315E2,4.382454872E0,-8.596813202E0,-1.561316729E0
5.500189315E2,4.410570145E0,-8.583653450E0,-1.649253011E0
5.505189315E2,4.380660057E0,-8.593822479E0,-1.513460279E0
5.510189315E2,4.441078663E0,-8.559724808E0,-1.525424480E0
5.515189315E2,4.444069862E0,-8.644071579E0,-1.323829174E0
5.520189315E2,4.356133461E0,-8.614161491E0,-1.436890006E0
5.525189315E2,4.356731892E0,-8.660223007E0,-1.520638824E0
5.530189315E2,4.321437836E0,-8.647661209E0,-1.518844128E0
5.535189315E2,4.385445595E0,-8.609375954E0,-1.525424480E0
5.540189315E2,4.432703972E0,-8.541180611E0,-1.542772412E0
5.545189315E2,4.396213531E0,-8.601000786E0,-1.587039590E0
5.550189315E2,4.558925152E0,-8.366504669E0,-1.429113269E0
5.555189315E2,4.479363918E0,-8.726025581E0,-6.191428304E-1
5.560189315E2,4.405784607E0,-8.863015175E0,-1.125823021E0
5.565189315E2,4.442275047E0,-8.603393555E0,-9.637092948E-1
5.570189315E2,5.105087280E0,-8.475378036E0,-1.059422255E0
5.575189315E2,4.323232174E0,-8.716454506E0,-9.732806087E-1
5.580189315E2,4.523631096E0,-8.668598175E0,-1.042074203E0
5.585189315E2,4.554139614E0,-8.660821915E0,-9.631111026E-1
5.590189315E2,4.653441906E0,-8.589036942E0,-1.179063320E0
5.595189315E2,4.621138573E0,-8.550153732E0,-1.191625714E0
5.600189315E2,4.506881237E0,-8.644669533E0,-1.159920812E0
5.605189315E2,4.758127689E0,-8.567501068E0,-8.721838593E-1
5.610189315E2,4.672584534E0,-8.577671051E0,-9.876375198E-1
5.615189315E2,4.566701889E0,-8.623732567E0,-1.006181955E0
5.620189315E2,4.740779877E0,-8.541180611E0,-1.137787223E0
5.625189315E2,4.546362877E0,-8.614161491E0,-1.211964726E0
5.630189315E2,4.686941147E0,-8.517251968E0,-1.086341500E0
5.635189315E2,4.686343193E0,-8.510073662E0,-9.894321561E-1
5.640189315E2,4.746163845E0,-8.491529465E0,-1.097707391E0
5.645189315E2,4.674378872E0,-8.520243645E0,-1.071984529E0
5.650189315E2,4.500301361E0,-8.577073097E0,-1.247258782E0
5.655189315E2,4.540380955E0,-8.711668968E0,-1.049850941E0
5.660189315E2,4.710869789E0,-8.532805443E0,-1.076770186E0
5.665189315E2,4.401597023E0,-8.595019341E0,-1.197607756E0
5.670189315E2,4.389633179E0,-8.590232849E0,-1.272981644E0
5.675189315E2,4.278367043E0,-8.572885513E0,-1.198205948E0
5.680189315E2,4.597210407E0,-8.758927345E0,-1.021137118E0
5.685189315E2,4.426722050E0,-8.290532112E0,-2.791825771E0
5.690189315E2,4.403990269E0,-8.615956306E0,-1.974676847E0
5.695189315E2,4.174279213E0,-8.739784241E0,-1.810170293E0
5.700189315E2,4.174279213E0,-8.729017258E0,-1.368694544E0
5.705189315E2,4.254438877E0,-8.624929428E0,-1.561316729E0
5.710189315E2,4.307080746E0,-8.352147102E0,-1.546959877E0
5.715189315E2,4.166502476E0,-8.748159409E0,-1.376471281E0
5.720189315E2,4.281956196E0,-8.569893837E0,-1.350748420E0
5.725189315E2,4.371088982E0,-8.558527946E0,-1.592423439E0
5.730189315E2,4.326223373E0,-8.532805443E0,-1.397408366E0
5.735189315E2,4.756931305E0,-8.528019905E0,-1.256830096E0
5.740189315E2,4.604987144E0,-8.541180611E0,-1.398604870E0
5.745189315E2,4.490131855E0,-8.621937752E0,-1.386640668E0
5.750189315E2,4.475774765E0,-8.636893272E0,-1.304686546E0
5.755189315E2,4.660022259E0,-8.641080856E0,-1.298704505E0
5.760189315E2,4.584648132E0,-8.705088615E0,-1.271187067E0
5.765189315E2,4.737788677E0,-8.547162056E0,-1.200000525E0
5.770189315E2,4.700700283E0,-8.464012146E0,-1.241276741E0
5.775189315E2,4.548157692E0,-8.542376518E0,-1.183848977E0
5.780189315E2,4.936991215E0,-8.437092781E0,-1.257428288E0
5.785189315E2,4.657629490E0,-8.574081421E0,-1.341775298E0
5.790189315E2,4.432703972E0,-8.654241562E0,-1.359123230E0
5.795189315E2,4.785645485E0,-8.598608017E0,-1.298106313E0
5.800189315E2,4.576871395E0,-8.617751122E0,-1.405185103E0
5.805189315E2,4.763511658E0,-8.646464348E0,-1.339980721E0
5.810189315E2,4.514060020E0,-8.559724808E0,-1.365105271E0
5.815189315E2,4.603790760E0,-8.467600822E0,-1.490130305E0
5.820189315E2,4.594219685E0,-8.558527946E0,-1.223928809E0
5.825189315E2,4.809573650E0,-8.425726891E0,-1.198205948E0
5.830189315E2,4.613361835E0,-8.535796165E0,-1.429711580E0
5.835189315E2,4.787439823E0,-8.459226608E0,-1.357328653E0
5.840189315E2,4.571487427E0,-8.472386360E0,-1.310070395E0
5.845189315E2,4.731806755E0,-8.424530029E0,-1.350748420E0
5.850189315E2,4.770092010E0,-8.454441071E0,-1.497906923E0
5.855189315E2,4.879563808E0,-8.433503151E0,-1.386042476E0
5.860189315E2,4.844269276E0,-8.426324844E0,-1.486541033E0
5.865189315E2,4.810770035E0,-8.432307243E0,-1.405185103E0
5.870189315E2,4.650450706E0,-8.487939835E0,-1.432702541E0
5.875189315E2,4.466801643E0,-8.540582657E0,-1.252642632E0
5.880189315E2,4.797011375E0,-8.453244209E0,-1.235892892E0
5.885189315E2,4.827519894E0,-8.513663292E0,-1.260419369E0
5.890189315E2,4.597210407E0,-8.465806961E0,-1.396211982E0
5.895189315E2,4.655236244E0,-8.476573944E0,-1.467398524E0
5.900189315E2,4.291527271E0,-8.589036942E0,-1.374676585E0
5.905189315E2,4.639084816E0,-8.557929993E0,-1.338186026E0
5.910189315E2,4.511068821E0,-8.678169250E0,-1.201196909E0
5.915189315E2,4.509872437E0,-8.720642090E0,-1.252642632E0
5.920189315E2,4.454239368E0,-8.727222443E0,-1.391426325E0
5.925189315E2,4.375276089E0,-8.743373871E0,-1.226919770E0
5.930189315E2,4.485345840E0,-8.729017258E0,-1.121635556E0
5.935189315E2,4.661218643E0,-8.589036942E0,-1.217348576E0
5.940189315E2,4.738985062E0,-8.665008545E0,-1.135992527E0
5.945189315E2,4.928018093E0,-8.665607452E0,-1.320838094E0
5.950189315E2,4.444069862E0,-8.708079338E0,-1.204786181E0
5.955189315E2,4.537988186E0,-8.663812637E0,-1.022931695E0
5.960189315E2,4.229313850E0,-8.757730484E0,-1.194616675E0
5.965189315E2,4.495515347E0,-8.852247238E0,-1.195214868E0
5.970189315E2,4.792225361E0,-8.548358917E0,-9.678967595E-1
5.975189315E2,4.715056896E0,-8.478966713E0,-1.199402332E0
5.980189315E2,4.372285366E0,-8.438288689E0,-1.432104349E0
5.985189315E2,4.728217602E0,-8.487939835E0,-1.332203984E0
5.990189315E2,4.567300320E0,-8.414361000E0,-1.196411371E0
5.995189315E2,5.067998409E0,-8.465806961E0,-1.052842021E0
6.000189315E2,4.871787071E0,-8.461020470E0,-1.259821177E0
6.005189315E2,4.162314892E0,-8.602795601E0,-1.392622828E0
6.010189315E2,4.686941147E0,-8.405387878E0,-1.355534077E0
6.015189315E2,4.691128731E0,-8.414958954E0,-1.274178028E0
6.020189315E2,4.829912663E0,-8.382656097E0,-1.280758262E0
6.025189315E2,4.779663086E0,-8.428717613E0,-1.359123230E0
6.030189315E2,4.581656933E0,-8.364111900E0,-1.591825247E0
6.035189315E2,5.289334297E0,-8.199604988E0,-1.631905079E0
6.040189315E2,3.822534084E0,-8.685946465E0,-1.895115495E0
6.045189315E2,4.449453831E0,-8.481359482E0,-1.993819475E0
6.050189315E2,4.262215137E0,-8.585447311E0,-1.822134495E0
6.055189315E2,4.518845558E0,-8.405387878E0,-1.938186288E0
6.060189315E2,4.618147850E0,-8.443673134E0,-1.721635938E0
6.065189315E2,4.560719967E0,-8.410173416E0,-1.772483349E0
6.070189315E2,4.535595417E0,-8.492725372E0,-1.719243050E0
6.075189315E2,4.494917393E0,-8.459824562E0,-1.735992789E0
6.080189315E2,4.621737003E0,-8.550751686E0,-1.768894196E0
6.085189315E2,4.452444553E0,-8.507680893E0,-1.724028707E0
6.090189315E2,4.615156651E0,-8.464610100E0,-1.683350682E0
6.095189315E2,4.407579422E0,-8.556734085E0,-1.636690736E0
6.100189315E2,4.619344234E0,-8.438288689E0,-1.807179332E0
6.105189315E2,4.494917393E0,-8.501100540E0,-1.655833244E0
6.110189315E2,4.726422787E0,-8.427521706E0,-1.542174220E0
6.115189315E2,4.747360229E0,-8.425726891E0,-1.624128342E0
6.120189315E2,4.625924587E0,-8.490931511E0,-1.609771490E0
6.125189315E2,4.822135925E0,-8.406583786E0,-1.625923038E0
6.130189315E2,5.138586521E0,-8.166105270E0,-1.915454507E0
6.135189315E2,4.200001717E0,-8.711071014E0,-1.712064624E0
6.140189315E2,4.579862595E0,-8.502297401E0,-1.456032634E0
6.145189315E2,4.759922504E0,-8.465806961E0,-1.523031592E0
6.150189315E2,4.418346882E0,-8.438288689E0,-1.686341763E0
6.155189315E2,4.585844517E0,-8.481958389E0,-1.768894196E0
6.160189315E2,4.929214478E0,-8.339585304E0,-1.804188251E0
6.165189315E2,3.994219303E0,-8.730213165E0,-2.180459738E0
6.170189315E2,4.441078663E0,-8.464012146E0,-1.721037745E0
6.175189315E2,4.696512699E0,-8.468797684E0,-1.849053741E0
6.180189315E2,4.374079704E0,-8.526225090E0,-1.716252089E0
6.185189315E2,4.586442947E0,-8.507082939E0,-1.578066587E0
6.190189315E2,4.426722050E0,-8.507680893E0,-1.674975872E0
6.195189315E2,4.421936035E0,-8.644669533E0,-1.526620865E0
6.200189315E2,4.295714855E0,-8.647661209E0,-1.673181176E0
6.205189315E2,4.209573269E0,-8.725427628E0,-1.520638824E0
6.210189315E2,4.652843475E0,-8.392825127E0,-1.505683661E0
6.215189315E2,4.578666210E0,-8.318648338E0,-1.987239242E0
6.220189315E2,5.224728107E0,-8.182256699E0,-1.939382792E0
6.225189315E2,4.782654285E0,-8.266604424E0,-2.100898266E0
6.230189315E2,4.468596458E0,-8.452646255E0,-1.716252089E0
6.235189315E2,4.496711731E0,-8.630312920E0,-1.791027784E0
6.240189315E2,4.621737003E0,-8.431110382E0,-1.769492388E0
6.245189315E2,4.548157692E0,-8.480163574E0,-1.733600020E0
6.250189315E2,4.292723656E0,-8.699107170E0,-9.936196208E-1
6.255189315E2,5.200201988E0,-8.090731621E0,-2.033899307E0
6.260189315E2,4.736592293E0,-8.342576027E0,-1.732403636E0
6.265189315E2,4.600201607E0,-8.486145973E0,-1.852044702E0
6.270189315E2,4.674378872E0,-8.416753769E0,-1.288534999E0
6.275189315E2,4.819144726E0,-8.228319168E0,-1.909472466E0
6.280189315E2,4.639084816E0,-8.553742409E0,-1.275972724E0
6.285189315E2,4.512863636E0,-8.531609535E0,-1.467398524E0
6.290189315E2,4.538586140E0,-8.553742409E0,-1.456032634E0
6.295189315E2,4.809573650E0,-8.370093346E0,-1.509272933E0
6.300189315E2,4.737788677E0,-8.430512428E0,-1.447059512E0
6.305189315E2,4.731208801E0,-8.427521706E0,-1.557129383E0
6.310189315E2,4.664807796E0,-8.409575462E0,-1.537986755E0
6.315189315E2,4.722235680E0,-8.409575462E0,-1.542174220E0
6.320189315E2,4.802993298E0,-8.426324844E0,-1.548754454E0
6.325189315E2,4.882554531E0,-8.304888725E0,-1.590628862E0
6.330189315E2,4.817948341E0,-8.387441635E0,-1.520638824E0
6.335189315E2,4.844867706E0,-8.344968796E0,-1.534995675E0
6.340189315E2,4.779065132E0,-8.392825127E0,-1.644467354E0
6.345189315E2,4.794020176E0,-8.363512993E0,-1.523031592E0
6.350189315E2,4.834698200E0,-8.368298531E0,-1.537388563E0
6.355189315E2,4.908277512E0,-8.282156944E0,-1.601994753E0
6.360189315E2,4.878366947E0,-8.371290207E0,-1.488335729E0
6.365189315E2,4.854438782E0,-8.306683540E0,-1.630110383E0
6.370189315E2,4.771288395E0,-8.344370842E0,-1.624128342E0
6.375189315E2,4.880161762E0,-8.398807526E0,-1.544566989E0
6.380189315E2,4.790431023E0,-8.374878883E0,-1.526620865E0
6.385189315E2,4.792225361E0,-8.385646820E0,-1.488335729E0
6.390189315E2,4.873581409E0,-8.354539871E0,-1.582852125E0
6.395189315E2,4.788636208E0,-8.389236450E0,-1.491924882E0
6.400189315E2,4.688735962E0,-8.438887596E0,-1.450050473E0
6.405189315E2,4.800002098E0,-8.420941353E0,-1.508674622E0
6.410189315E2,4.862215519E0,-8.338388443E0,-1.445264935E0
6.415189315E2,4.746163845E0,-8.414958954E0,-1.473978758E0
6.420189315E2,4.886143684E0,-8.301300049E0,-1.791027784E0
6.425189315E2,4.867001057E0,-8.162516594E0,-2.093121529E0
6.430189315E2,3.979862213E0,-8.623732567E0,-1.438684583E0
6.435189315E2,4.707280159E0,-8.711668968E0,-1.389631748E0
6.440189315E2,4.393222332E0,-8.183453560E0,-1.692921996E0
6.445189315E2,4.267001152E0,-8.744570732E0,-1.336989641E0
6.450189315E2,4.481158733E0,-8.299505234E0,-1.580459356E0
6.455189315E2,4.868795872E0,-8.478966713E0,-1.284347534E0
6.460189315E2,4.450650215E0,-8.649456024E0,-1.027717352E0
6.465189315E2,4.541577339E0,-8.498109818E0,-1.250848055E0
6.470189315E2,4.681557655E0,-8.612366676E0,-1.322034478E0
6.475189315E2,4.792225361E0,-8.580661774E0,-1.609771490E0
6.480189315E2,5.107480049E0,-8.258229256E0,-1.451845169E0
6.485189315E2,4.680361271E0,-8.462217331E0,-1.345962763E0
6.490189315E2,4.575077057E0,-8.511868477E0,-1.124626637E0
6.495189315E2,4.624129772E0,-8.521439552E0,-1.293320656E0
6.500189315E2,4.698307037E0,-8.511868477E0,-1.285543919E0
6.505189315E2,4.873581409E0,-8.387441635E0,-1.303490162E0
6.510189315E2,4.667200565E0,-8.538787842E0,-1.223330617E0
6.515189315E2,4.681557655E0,-8.529814720E0,-1.207777262E0
6.520189315E2,4.643272400E0,-8.510073662E0,-1.250848055E0
6.525189315E2,4.740779877E0,-8.529814720E0,-1.095912814E0
6.530189315E2,5.308476925E0,-8.419146538E0,-5.569294691E-1
6.535189315E2,4.241876125E0,-8.581858635E0,-1.219143152E0
6.540189315E2,4.455435753E0,-9.053244591E0,-1.548754454E0
6.545189315E2,4.518845558E0,-8.818747520E0,-8.997012973E-1
6.550189315E2,4.645066738E0,-8.564510345E0,-7.549355626E-1
6.555189315E2,4.537988186E0,-8.656036377E0,-9.571290612E-1
6.560189315E2,4.782055855E0,-8.450253487E0,-9.684949517E-1
6.565189315E2,4.651647091E0,-8.502297401E0,-1.055832982E0
6.570189315E2,4.726422787E0,-8.559724808E0,-1.133001566E0
6.575189315E2,4.796412945E0,-8.569893837E0,-1.049850941E0
6.580189315E2,4.971088886E0,-8.406583786E0,-9.810572863E-1
6.585189315E2,4.768297195E0,-8.598608017E0,-1.119840980E0
6.590189315E2,4.764708042E0,-8.536395073E0,-1.014556766E0
6.595189315E2,4.564309120E0,-8.567501068E0,-1.402194023E0
6.600189315E2,4.497310162E0,-8.558527946E0,-1.338186026E0
6.605189315E2,4.825725079E0,-8.504091263E0,-1.148554921E0
6.610189315E2,4.956732273E0,-8.431110382E0,-1.190429211E0
6.615189315E2,5.029713154E0,-8.377870560E0,-9.493523836E-1
6.620189315E2,4.637290478E0,-8.524430275E0,-1.116850019E0
6.625189315E2,4.534996986E0,-8.517251968E0,-1.332203984E0
6.630189315E2,4.730011940E0,-8.373682976E0,-1.290329576E0
6.635189315E2,4.710869789E0,-8.397610664E0,-1.241276741E0
6.640189315E2,4.779663086E0,-8.440681458E0,-1.302891970E0
6.645189315E2,4.560719967E0,-8.631509781E0,-1.221535921E0
6.650189315E2,5.029713154E0,-8.245666504E0,-1.081555843E0
6.655189315E2,4.801198483E0,-8.333004951E0,-1.142572761E0
6.660189315E2,4.417150497E0,-8.367102623E0,-1.257428288E0
6.665189315E2,5.176273346E0,-8.228319168E0,-1.533201098E0
6.670189315E2,4.515854359E0,-8.536395073E0,-1.367498159E0
6.675189315E2,4.506283283E0,-8.569295883E0,-1.233500123E0
6.680189315E2,4.934000492E0,-8.572885513E0,-1.222134113E0
6.685189315E2,4.723432064E0,-8.419146538E0,-1.289133191E0
6.690189315E2,4.682155609E0,-8.491529465E0,-1.432702541E0
6.695189315E2,4.936991215E0,-8.257032394E0,-1.365703583E0
6.700189315E2,4.823930264E0,-8.411968231E0,-8.835497499E-1
6.705189315E2,4.901697159E0,-8.467002869E0,-1.198205948E0
6.710189315E2,4.999803066E0,-8.335397720E0,-1.293320656E0
6.715189315E2,5.042275429E0,-8.321041107E0,-1.238285661E0
6.720189315E2,4.138386726E0,-8.873783112E0,-1.523629785E0
6.725189315E2,4.208376884E0,-8.660223007E0,-1.563111424E0
6.730189315E2,4.152743816E0,-8.749356270E0,-1.614557028E0
6.735189315E2,4.150949001E0,-8.773283958E0,-1.664208174E0
6.740189315E2,4.128217220E0,-8.998209953E0,-1.671386600E0
6.745189315E2,4.328018188E0,-8.727820396E0,-1.266999602E0
6.750189315E2,4.198207378E0,-8.660223007E0,-1.490130305E0
6.755189315E2,4.659423828E0,-8.521439552E0,-1.453639746E0
6.760189315E2,4.372285366E0,-8.674580574E0,-1.473978758E0
6.765189315E2,4.648057938E0,-8.593822479E0,-1.475773335E0
6.770189315E2,4.642076015E0,-8.602795601E0,-1.301695466E0
6.775189315E2,4.607379913E0,-8.502297401E0,-1.356132269E0
6.780189315E2,4.779065132E0,-8.360522270E0,-1.389033556E0
6.785189315E2,4.414159775E0,-8.495717049E0,-1.458425403E0
6.790189315E2,4.351347923E0,-8.562715530E0,-1.319043517E0
6.795189315E2,4.497310162E0,-8.626724243E0,-1.582253933E0
6.800189315E2,4.472783566E0,-8.611170769E0,-1.716850281E0
6.805189315E2,4.042075634E0,-8.773882866E0,-1.444068432E0
6.810189315E2,4.420739651E0,-8.738588333E0,-1.274776220E0
6.815189315E2,3.923032761E0,-8.828319550E0,-1.576271892E0
6.820189315E2,4.532006264E0,-8.282755852E0,-1.724028707E0
6.825189315E2,4.367499352E0,-8.568099976E0,-1.788634896E0
6.830189315E2,4.106083870E0,-8.678169250E0,-1.599601984E0
6.835189315E2,4.265206337E0,-8.601000786E0,-1.504487276E0
6.840189315E2,4.616353035E0,-8.513663292E0,-1.379462242E0
6.845189315E2,4.346562386E0,-8.601598740E0,-1.603191137E0
6.850189315E2,4.287938118E0,-8.662017822E0,-1.436890006E0
6.855189315E2,4.375276089E0,-8.670392990E0,-1.320838094E0
6.860189315E2,4.223930359E0,-8.742177963E0,-1.118046403E0
6.865189315E2,4.403990269E0,-8.755936623E0,-1.346560955E0
6.870189315E2,4.337589264E0,-8.712865829E0,-1.272981644E0
6.875189315E2,4.210171223E0,-8.703293800E0,-1.362114310E0
6.880189315E2,4.639084816E0,-8.636295319E0,-1.400997639E0
6.885189315E2,5.801398277E0,-8.263014793E0,4.103690982E-1
6.890189315E2,5.467001438E0,-7.450053215E0,2.989831924E0
6.895189315E2,5.389832973E0,-7.613961697E0,3.659822226E0
6.900189315E2,5.682355404E0,-7.387839794E0,3.485146284E0
6.905189315E2,5.595615864E0,-7.390830994E0,3.356531858E0
6.910189315E2,5.471786976E0,-7.489534855E0,3.361317635E0
6.915189315E2,5.304289818E0,-7.989036560E0,2.750549555E0
6.920189315E2,4.901697159E0,-8.070392609E0,1.250249863E0
6.925189315E2,4.586442947E0,-8.713463783E0,1.758724600E-1
6.930189315E2,4.548157692E0,-8.869595528E0,-8.721838593E-1
6.935189315E2,4.351347923E0,-8.877371788E0,-8.602197170E-1
6.940189315E2,4.104887009E0,-8.891729355E0,-9.924231768E-1
6.945189315E2,4.277170658E0,-8.759525299E0,-7.764709592E-1
6.950189315E2,4.461417675E0,-8.804390907E0,-3.655036688E-1
6.955189315E2,3.772284985E0,-9.038887978E0,-5.341976285E-1
6.960189315E2,3.884149313E0,-8.989236832E0,-1.531406492E-1
6.965189315E2,4.281956196E0,-8.823533058E0,-4.295116663E-1
6.970189315E2,4.216153622E0,-8.789435387E0,-9.535398483E-1
6.975189315E2,3.905086517E0,-8.748159409E0,-6.155536175E-1
6.980189315E2,4.076173306E0,-9.037093163E0,-7.896314859E-1
6.985189315E2,4.243670940E0,-8.625527382E0,-1.127617717E0
6.990189315E2,4.645665169E0,-8.722436905E0,-7.399803996E-1
6.995189315E2,3.809373617E0,-8.797810555E0,-1.676172256E0
7.000189315E2,4.394418716E0,-8.703892708E0,-1.006181955E0
7.005189315E2,4.563711166E0,-8.702097893E0,-6.281159520E-1
7.010189315E2,4.415356159E0,-8.879166603E0,-1.143769264E0
7.015189315E2,3.934996843E0,-8.926424980E0,-9.966106415E-1
7.020189315E2,4.404588223E0,-8.812167168E0,-6.825526357E-1
7.025189315E2,4.073780537E0,-8.892925262E0,-8.614161611E-1
7.030189315E2,4.272384644E0,-8.776873589E0,-9.296116233E-1
7.035189315E2,4.350151539E0,-8.780462265E0,-9.637092948E-1
7.040189315E2,4.147359848E0,-8.783453941E0,-1.113260746E0
7.045189315E2,4.234099865E0,-8.702097893E0,-8.901300430E-1
7.050189315E2,4.244867325E0,-8.674580574E0,-9.349954724E-1
7.055189315E2,4.246063709E0,-8.828319550E0,-8.997012973E-1
7.060189315E2,4.187439442E0,-8.770293236E0,-8.087740541E-1
7.065189315E2,4.315455437E0,-8.768498421E0,-9.667003751E-1
7.070189315E2,4.279563427E0,-8.691927910E0,-1.106680512E0
7.075189315E2,4.251447678E0,-8.804390907E0,-8.841479421E-1
7.080189315E2,4.248456478E0,-8.632107735E0,-9.583254457E-1
7.085189315E2,4.562514782E0,-8.655437469E0,-7.788637877E-1
7.090189315E2,4.156930923E0,-8.836095810E0,-7.686942816E-1
7.095189315E2,4.487739086E0,-8.720642090E0,-9.296116233E-1
7.100189315E2,4.276572227E0,-8.725427628E0,-7.573283911E-1
7.105189315E2,4.353740692E0,-8.674580574E0,-1.106680512E0
7.110189315E2,4.252644062E0,-8.716454506E0,-1.070189953E0
7.115189315E2,4.331008911E0,-8.745168686E0,-6.681957245E-1
7.120189315E2,4.290929317E0,-8.826524734E0,-8.099704385E-1
7.125189315E2,4.523631096E0,-8.697312355E0,-7.782655358E-1
7.130189315E2,4.588237286E0,-8.596813202E0,-8.721838593E-1
7.135189315E2,4.429712772E0,-8.701499939E0,-8.997012973E-1
7.140189315E2,4.182653904E0,-8.807381630E0,-8.482556343E-1
7.145189315E2,4.216153622E0,-8.778069496E0,-9.062815905E-1
7.150189315E2,4.380061626E0,-8.735597610E0,-7.465606928E-1
7.155189315E2,4.637290478E0,-8.663812637E0,-6.729813814E-1
7.160189315E2,4.377668858E0,-8.682356834E0,-6.664010882E-1
7.165189315E2,4.530211449E0,-8.719446182E0,-6.137589812E-1
7.170189315E2,4.418346882E0,-8.599804878E0,-7.962117195E-1
7.175189315E2,4.390231133E0,-8.706883430E0,-6.711867452E-1
7.180189315E2,4.624728203E0,-8.579465866E0,-6.634100676E-1
7.185189315E2,4.399802685E0,-8.612964630E0,-9.254241586E-1
7.190189315E2,4.356133461E0,-8.647661209E0,-7.334001660E-1
7.195189315E2,4.471587181E0,-8.558527946E0,-7.148557901E-1
7.200189315E2,4.497310162E0,-8.656036377E0,-7.932206988E-1
7.205189315E2,4.360919476E0,-8.653642654E0,-7.668996453E-1
7.210189315E2,4.543372154E0,-8.779864311E0,-7.477570772E-1
7.215189315E2,4.035495281E0,-9.166305542E0,-1.001396298E0
7.220189315E2,4.844867706E0,-8.454441071E0,-1.106680512E0
7.225189315E2,4.547559261E0,-8.606385231E0,-1.078564763E0
7.230189315E2,4.203591347E0,-8.775078773E0,-8.913264275E-1
7.235189315E2,4.681557655E0,-8.701499939E0,-9.505487680E-1
7.240189315E2,4.427918434E0,-8.912666321E0,-9.445667267E-1
7.245189315E2,4.236492634E0,-8.749356270E0,-7.788637877E-1
7.250189315E2,4.899304390E0,-8.559724808E0,-9.601200819E-1
7.255189315E2,4.391427994E0,-8.738588333E0,-1.125823021E0
7.260189315E2,4.337589264E0,-8.583653450E0,-9.684949517E-1
7.265189315E2,4.706083775E0,-8.395816803E0,-8.201399446E-1
7.270189315E2,4.274777889E0,-8.551948547E0,-8.679963946E-1
7.275189315E2,4.609772682E0,-8.524430275E0,-1.030708313E0
7.280189315E2,4.645066738E0,-8.647661209E0,-9.008977413E-1
7.285189315E2,4.680361271E0,-8.441878319E0,-1.081555843E0
7.290189315E2,4.393222332E0,-8.626724243E0,-8.757730722E-1
7.295189315E2,4.233501434E0,-8.676374435E0,-8.985049129E-1
7.300189315E2,4.485944271E0,-8.601000786E0,-9.822536707E-1
7.305189315E2,4.042674065E0,-8.605786324E0,-2.042274237E0
7.310189315E2,4.425525665E0,-8.692526817E0,-1.529611826E0
7.315189315E2,4.910071850E0,-8.467002869E0,-1.107278705E0
7.320189315E2,4.716851711E0,-8.271389961E0,-1.079761267E0
7.325189315E2,4.738985062E0,-8.507680893E0,-1.022333503E0
7.330189315E2,4.040280819E0,-8.673383713E0,-9.332008362E-1
7.335189315E2,4.498506546E0,-8.525029182E0,-1.035493970E0
7.340189315E2,4.729413986E0,-8.682356834E0,-1.259821177E0
7.345189315E2,4.547559261E0,-8.574680328E0,-1.199402332E0
7.350189315E2,4.868197441E0,-8.487939835E0,-1.079761267E0
7.355189315E2,4.368097782E0,-8.692526817E0,-1.109073281E0
7.360189315E2,4.426722050E0,-8.585447311E0,-1.381256819E0
7.365189315E2,4.499702930E0,-8.510073662E0,-1.084546804E0
7.370189315E2,4.706083775E0,-8.490931511E0,-9.667003751E-1
7.375189315E2,4.588237286E0,-8.331808090E0,-1.557129383E0
7.380189315E2,3.939782381E0,-8.900103569E0,-2.067398787E0
7.385189315E2,3.620938778E0,-8.794819832E0,-1.588834286E0
7.390189315E2,4.180859566E0,-8.653642654E0,-1.393819213E0
7.395189315E2,3.956532240E0,-8.741579056E0,-1.201196909E0
7.400189315E2,4.439284325E0,-8.651249886E0,-1.376471281E0
7.405189315E2,4.212564468E0,-8.741579056E0,-1.410568953E0
7.410189315E2,3.755535126E0,-8.775676727E0,-1.457827210E0
7.415189315E2,4.106083870E0,-8.628518105E0,-1.352542996E0
7.420189315E2,4.155136585E0,-8.772088051E0,-1.271187067E0
7.425189315E2,4.287938118E0,-8.678169250E0,-1.383051515E0
7.430189315E2,4.259224415E0,-8.734998703E0,-1.280758262E0
7.435189315E2,4.174877167E0,-8.668000221E0,-1.268195987E0
7.440189315E2,4.526023865E0,-8.487939835E0,-1.226321578E0
7.445189315E2,4.491926193E0,-8.537590981E0,-1.014556766E0
7.450189315E2,4.648057938E0,-8.711668968E0,-8.440681696E-1
7.455189315E2,4.385445595E0,-8.650651932E0,-1.038485050E0
7.460189315E2,4.530809879E0,-8.654241562E0,-1.204786181E0
7.465189315E2,4.264009953E0,-8.690732002E0,-1.039681435E0
7.470189315E2,4.365705013E0,-8.688937187E0,-1.103689432E0
7.475189315E2,4.357928276E0,-8.662017822E0,-1.158126116E0
7.480189315E2,4.284946918E0,-8.699107170E0,-1.141974568E0
7.485189315E2,4.581058979E0,-8.566305161E0,-1.285543919E0
7.490189315E2,4.363312244E0,-8.679964066E0,-1.021137118E0
7.495189315E2,4.286741734E0,-8.706883430E0,-1.143769264E0
7.500189315E2,4.455435753E0,-8.635098457E0,-1.175474167E0
7.505189315E2,4.817948341E0,-8.398807526E0,-1.479960799E0
7.510189315E2,4.682155609E0,-8.603393555E0,-1.453639746E0
7.515189315E2,4.380660057E0,-8.568099976E0,-1.453639746E0
7.520189315E2,4.658227444E0,-8.550153732E0,-1.345962763E0
7.525189315E2,4.385445595E0,-8.608179092E0,-1.258624673E0
7.530189315E2,4.405784607E0,-8.665008545E0,-1.189831018E0
7.535189315E2,4.223930359E0,-8.692526817E0,-1.305284739E0
7.540189315E2,4.374079704E0,-8.662017822E0,-1.423131227E0
7.545189315E2,4.284348965E0,-8.702097893E0,-1.232901812E0
7.550189315E2,4.546362877E0,-8.588438988E0,-1.290329576E0
7.555189315E2,4.487739086E0,-8.581858635E0,-1.379462242E0
7.560189315E2,4.167100430E0,-8.717651367E0,-1.367498159E0
7.565189315E2,4.236492634E0,-8.741579056E0,-1.295713425E0
7.570189315E2,4.762913704E0,-8.322237015E0,-1.572682738E0
7.575189315E2,4.615156651E0,-8.569893837E0,-1.360319614E0
7.580189315E2,4.293920040E0,-8.700303078E0,-1.509272933E0
7.585189315E2,4.375874519E0,-8.782855988E0,-1.875972986E0
7.590189315E2,4.262215137E0,-8.660223007E0,-1.796411633E0
7.595189315E2,4.195814610E0,-8.713463783E0,-1.758126378E0
7.600189315E2,4.265804768E0,-8.699107170E0,-1.465603828E0
7.605189315E2,4.630710125E0,-8.583653450E0,-1.709671736E0
7.610189315E2,4.439284325E0,-8.581858635E0,-1.715055585E0
7.615189315E2,4.271786690E0,-8.677571297E0,-1.623530149E0
7.620189315E2,4.554738045E0,-8.538787842E0,-1.727617979E0
7.625189315E2,4.561916351E0,-8.429315567E0,-1.436890006E0
7.630189315E2,4.485944271E0,-8.869595528E0,-1.149751306E0
7.635189315E2,3.568296671E0,-9.035298347E0,-2.279163599E0
7.640189315E2,4.543372154E0,-8.538787842E0,-1.807777524E0
7.645189315E2,4.122235298E0,-8.722436905E0,-1.427318692E0
7.650189315E2,4.293920040E0,-8.604590416E0,-1.470389485E0
7.655189315E2,4.013361931E0,-8.725427628E0,-1.595414519E0
7.660189315E2,4.122235298E0,-8.534600258E0,-1.196411371E0
7.665189315E2,4.509274483E0,-8.596813202E0,-1.298704505E0
7.670189315E2,4.212564468E0,-8.630312920E0,-1.609771490E0
7.675189315E2,4.358526230E0,-8.666803360E0,-1.348355532E0
7.680189315E2,4.701298237E0,-8.461020470E0,-1.245464206E0
7.685189315E2,4.348356724E0,-8.639883995E0,-1.235892892E0
7.690189315E2,4.603790760E0,-8.605786324E0,-8.805587292E-1
7.695189315E2,4.552943230E0,-8.569893837E0,-1.079761267E0
7.700189315E2,4.290929317E0,-8.599804878E0,-1.108475089E0
7.705189315E2,4.391427994E0,-8.662017822E0,-1.085145116E0
7.710189315E2,4.390231133E0,-8.638090134E0,-1.202991605E0
7.715189315E2,4.140779495E0,-8.816953659E0,-1.170688510E0
7.720189315E2,4.289134502E0,-8.684749603E0,-1.126421213E0
7.725189315E2,4.408775806E0,-8.638090134E0,-1.204187989E0
7.730189315E2,4.341776848E0,-8.733802795E0,-1.092921734E0
7.735189315E2,4.336990833E0,-8.650651932E0,-1.094118118E0
7.740189315E2,4.138386726E0,-8.826524734E0,-1.113260746E0
7.745189315E2,4.314857483E0,-8.689535141E0,-1.148554921E0
7.750189315E2,4.293920040E0,-8.700303078E0,-1.207179070E0
7.755189315E2,4.265804768E0,-8.732605934E0,-1.118046403E0
7.760189315E2,4.284946918E0,-9.121439934E0,-1.347757339E0
7.765189315E2,4.669593334E0,-8.730213165E0,-1.161117196E0
7.770189315E2,3.608376503E0,-8.926424980E0,-9.122636318E-1
7.775189315E2,3.492324591E0,-9.182456970E0,-1.609173268E-1
7.780189315E2,3.751945972E0,-8.980861664E0,-6.699903607E-1
7.785189315E2,4.093521118E0,-8.835497856E0,-8.183453679E-1
7.790189315E2,4.013959885E0,-8.872586250E0,-8.721838593E-1
7.795189315E2,4.117449760E0,-8.800801277E0,-7.722834945E-1
7.800189315E2,4.310071945E0,-8.726025581E0,-8.410771489E-1
7.805189315E2,4.250849247E0,-8.739784241E0,-8.697910309E-1
7.810189315E2,4.356731892E0,-8.732605934E0,-7.914260626E-1
7.815189315E2,4.207778454E0,-8.761320114E0,-8.470591903E-1
7.820189315E2,4.247858524E0,-8.782855988E0,-7.830511928E-1
7.825189315E2,4.212564468E0,-8.732007980E0,-8.937192559E-1
7.830189315E2,4.324428558E0,-8.724231720E0,-8.452646136E-1
7.835189315E2,4.315455437E0,-8.717651367E0,-8.901300430E-1
7.840189315E2,4.295714855E0,-8.741579056E0,-8.626125455E-1
7.845189315E2,4.320241451E0,-8.715856552E0,-9.535398483E-1
7.850189315E2,4.360919476E0,-8.758927345E0,-9.092726111E-1
7.855189315E2,4.314857483E0,-8.687142372E0,-9.583254457E-1
7.860189315E2,4.335794449E0,-8.715856552E0,-8.889335990E-1
7.865189315E2,4.366302967E0,-8.684151649E0,-8.578268886E-1
7.870189315E2,4.325026989E0,-8.705088615E0,-9.284151793E-1
7.875189315E2,4.304089546E0,-8.715856552E0,-9.379864931E-1
7.880189315E2,4.348955154E0,-8.700303078E0,-9.044869542E-1
7.885189315E2,4.310071945E0,-8.718249321E0,-9.343972206E-1
7.890189315E2,4.368097782E0,-8.691927910E0,-9.206385016E-1
7.895189315E2,4.406383038E0,-8.665008545E0,-9.457631707E-1
7.900189315E2,4.362713814E0,-8.708678246E0,-9.607182741E-1
7.905189315E2,4.343571186E0,-8.700303078E0,-9.296116233E-1
7.910189315E2,4.359723091E0,-8.668000221E0,-9.750752449E-1
7.915189315E2,4.401597023E0,-8.641678810E0,-9.032905698E-1
7.920189315E2,4.359723091E0,-8.693722725E0,-9.714859724E-1
7.925189315E2,4.393222332E0,-8.694320679E0,-9.696913958E-1
7.930189315E2,4.411168575E0,-8.660223007E0,-9.397810698E-1
7.935189315E2,4.380061626E0,-8.668598175E0,-9.876375198E-1
7.940189315E2,4.372883320E0,-8.713463783E0,-9.122636318E-1
7.945189315E2,4.442275047E0,-8.682954788E0,-9.966106415E-1
7.950189315E2,4.380061626E0,-8.691927910E0,-1.000199914E0
7.955189315E2,4.380660057E0,-8.642875671E0,-1.259821177E0
7.960189315E2,4.299304008E0,-8.641080856E0,-9.032905698E-1
7.965189315E2,4.336990833E0,-8.685946465E0,-1.073779106E0
7.970189315E2,4.305285931E0,-8.689535141E0,-1.036690354E0
7.975189315E2,4.298706055E0,-8.712865829E0,-1.088136077E0
7.980189315E2,4.290929317E0,-8.682356834E0,-1.144965649E0
7.985189315E2,4.354937077E0,-8.679366112E0,-1.070788145E0
7.990189315E2,4.444069862E0,-8.578866959E0,-1.296909928E0
7.995189315E2,4.490729809E0,-8.691927910E0,-9.607182741E-1
8.000189315E2,4.532006264E0,-8.612964630E0,-1.087537885E0
8.005189315E2,4.465006828E0,-8.639286041E0,-1.067198873E0
8.010189315E2,4.517649174E0,-8.604590416E0,-1.003789067E0
8.015189315E2,4.595416069E0,-8.555537224E0,-1.008574724E0
8.020189315E2,4.415954113E0,-8.779864311E0,-1.134197950E0
8.025189315E2,4.283152580E0,-8.569893837E0,-1.086341500E0
8.030189315E2,4.326223373E0,-8.642875671E0,-1.194616675E0
8.035189315E2,4.335794449E0,-8.641080856E0,-1.433898926E0
8.040189315E2,4.254438877E0,-8.626724243E0,-1.458425403E0
8.045189315E2,4.119244099E0,-8.691927910E0,-1.549352646E0
8.050189315E2,4.209573269E0,-8.705088615E0,-1.437488198E0
8.055189315E2,4.198207378E0,-8.620741844E0,-1.561316729E0
8.060189315E2,4.351946354E0,-8.617152214E0,-1.515254974E0
8.065189315E2,4.222135544E0,-8.675178528E0,-1.496710539E0
8.070189315E2,4.319643021E0,-8.641080856E0,-1.518245935E0
8.075189315E2,4.401597023E0,-8.584251404E0,-1.486541033E0
8.080189315E2,4.335794449E0,-8.611170769E0,-1.557129383E0
8.085189315E2,4.344169617E0,-8.620143890E0,-1.496710539E0
8.090189315E2,4.254438877E0,-8.636295319E0,-1.536192179E0
8.095189315E2,4.377070904E0,-8.598010063E0,-1.443470240E0
8.100189315E2,4.341776848E0,-8.620741844E0,-1.421336651E0
8.105189315E2,4.407579422E0,-8.584251404E0,-1.433898926E0
8.110189315E2,4.362713814E0,-8.612964630E0,-1.409970760E0
8.115189315E2,4.371088982E0,-8.628518105E0,-1.421336651E0
8.120189315E2,4.506283283E0,-8.564510345E0,-1.415354609E0
8.125189315E2,4.451846600E0,-8.547162056E0,-1.443470240E0
8.130189315E2,4.444069862E0,-8.595019341E0,-1.426122308E0
8.135189315E2,4.428516388E0,-8.587242126E0,-1.467398524E0
8.140189315E2,4.444668293E0,-8.593822479E0,-1.389033556E0
8.145189315E2,4.398007870E0,-8.615358353E0,-1.450050473E0
8.150189315E2,4.351347923E0,-8.649456024E0,-1.366899967E0
8.155189315E2,4.415356159E0,-8.602795601E0,-1.406979680E0
8.160189315E2,4.406383038E0,-8.615358353E0,-1.374676585E0
8.165189315E2,4.408775806E0,-8.610571861E0,-1.353141189E0
8.170189315E2,4.427918434E0,-8.611170769E0,-1.362114310E0
8.175189315E2,4.383651257E0,-8.645866394E0,-1.381256819E0
8.180189315E2,3.949353695E0,-8.876175880E0,-1.250848055E0
8.185189315E2,4.819144726E0,-8.544171333E0,-4.085744619E-1
8.190189315E2,4.238286972E0,-8.782855988E0,-7.692924738E-1
8.195189315E2,3.954737663E0,-8.907880783E0,-1.088136077E0
8.200189315E2,4.500301361E0,-8.669795036E0,-8.697910309E-1
8.205189315E2,4.326223373E0,-8.741579056E0,-7.429714203E-1
8.210189315E2,4.454239368E0,-8.765507698E0,-6.592226624E-1
8.215189315E2,4.631308079E0,-8.645866394E0,-6.299105883E-1
8.220189315E2,4.439284325E0,-8.739784241E0,-9.942178130E-1
8.225189315E2,4.528416634E0,-8.644071579E0,-9.463613629E-1
8.230189315E2,4.609772682E0,-8.668598175E0,-8.500502706E-1
8.235189315E2,4.546362877E0,-8.638090134E0,-8.823533654E-1
8.240189315E2,4.548157692E0,-8.648857117E0,-8.931210637E-1
8.245189315E2,4.487140656E0,-8.697312355E0,-8.889335990E-1
8.250189315E2,4.587639332E0,-8.648857117E0,-8.362914920E-1
8.255189315E2,4.552345276E0,-8.665008545E0,-8.889335990E-1
8.260189315E2,4.506881237E0,-8.712865829E0,-8.727820516E-1
8.265189315E2,4.722235680E0,-8.593822479E0,-8.404789567E-1
8.270189315E2,4.621737003E0,-8.684151649E0,-1.001994491E0
8.275189315E2,4.699503899E0,-8.636295319E0,-9.296116233E-1
8.280189315E2,4.523631096E0,-8.703293800E0,-1.037288666E0
8.285189315E2,4.779663086E0,-8.621937752E0,-1.052842021E0
8.290189315E2,4.692923546E0,-8.763712883E0,-9.140582681E-1
8.295189315E2,4.691128731E0,-8.677571297E0,-9.349954724E-1
8.300189315E2,4.675575256E0,-8.722436905E0,-8.386843204E-1
8.305189315E2,4.208376884E0,-8.843872070E0,-9.535398483E-1
8.310189315E2,4.817948341E0,-8.604590416E0,-8.021938205E-1
8.315189315E2,4.535595417E0,-8.754739761E0,-9.924231768E-1
8.320189315E2,4.353142738E0,-8.717651367E0,-1.025324464E0
8.325189315E2,4.572085857E0,-8.672785759E0,-8.745766878E-1
8.330189315E2,4.518845558E0,-8.729017258E0,-9.361918569E-1
8.335189315E2,4.180859566E0,-9.079565048E0,-1.306481123E0
8.340189315E2,4.499702930E0,-8.840283394E0,-6.334998012E-1
8.345189315E2,4.466801643E0,-8.497511864E0,-1.336391449E0
8.350189315E2,4.347160339E0,-8.694320679E0,-1.463211060E0
8.355189315E2,4.155734539E0,-8.788239479E0,-1.716252089E0
8.360189315E2,4.453640938E0,-8.516654015E0,-1.670190215E0
8.365189315E2,3.901497364E0,-8.737391472E0,-1.467398524E0
8.370189315E2,4.025924206E0,-8.678169250E0,-1.501496196E0
8.375189315E2,3.901497364E0,-8.698508263E0,-1.444068432E0
8.380189315E2,4.286741734E0,-8.551948547E0,-1.613958836E0
8.385189315E2,4.202992916E0,-8.642875671E0,-1.556531072E0
8.390189315E2,4.561916351E0,-8.892925262E0,-1.489532113E0
8.395189315E2,4.252644062E0,-8.596215248E0,-1.319641709E0
8.400189315E2,4.568496704E0,-8.514859200E0,-1.350748420E0
8.405189315E2,4.371088982E0,-9.113663673E0,-1.430907965E0
8.410189315E2,4.956133842E0,-8.974281311E0,-1.381855130E0
8.415189315E2,4.456632137E0,-8.550153732E0,-1.368694544E0
8.420189315E2,4.424927235E0,-8.513663292E0,-1.293918848E0
8.425189315E2,5.206781864E0,-8.445467949E0,-1.042074203E0
8.430189315E2,5.018347263E0,-8.459824562E0,-1.488335729E0
8.435189315E2,4.107280254E0,-8.416155815E0,-1.176072359E0
8.440189315E2,4.720440865E0,-8.885149002E0,-1.168893814E0
8.445189315E2,4.676771641E0,-8.876175880E0,-1.231705427E0
8.450189315E2,5.134997368E0,-8.432307243E0,-1.118046403E0
8.455189315E2,4.777868748E0,-8.416155815E0,-1.091127157E0
8.460189315E2,4.475774765E0,-8.511868477E0,-1.081555843E0
8.465189315E2,4.504488468E0,-8.468797684E0,-1.238285661E0
8.470189315E2,4.755734921E0,-8.438288689E0,-1.202393413E0
8.475189315E2,5.035695076E0,-8.325826645E0,-1.241276741E0
8.480189315E2,4.712066174E0,-8.406583786E0,-1.279561877E0
8.485189315E2,5.093122959E0,-8.419744492E0,-8.183453679E-1
8.490189315E2,4.512863636E0,-8.203792572E0,-1.351346612E0
8.495189315E2,5.034498692E0,-8.598010063E0,-1.408176184E0
8.500189315E2,4.710271358E0,-8.852247238E0,-1.087537885E0
8.505189315E2,5.029713154E0,-8.746364594E0,-1.341775298E0
8.510189315E2,5.236692429E0,-8.434102058E0,-1.148554921E0
8.515189315E2,4.907081127E0,-8.684749603E0,-1.084546804E0
8.520189315E2,4.878366947E0,-8.624929428E0,-1.220339537E0
8.525189315E2,4.631308079E0,-8.770293236E0,-1.095912814E0
8.530189315E2,4.750350952E0,-8.695517540E0,-1.199402332E0
8.535189315E2,4.643272400E0,-8.995817184E0,-8.596215248E-1
8.540189315E2,5.227120876E0,-8.615956306E0,-8.853443861E-1
8.545189315E2,4.503292084E0,-8.368897438E0,-1.126421213E0
8.550189315E2,4.892724037E0,-8.550751686E0,-1.276570916E0
8.555189315E2,4.494917393E0,-8.620741844E0,-1.049850941E0
8.560189315E2,4.602594376E0,-8.322237015E0,-1.133001566E0
8.565189315E2,4.576871395E0,-8.502297401E0,-1.116251707E0
8.570189315E2,4.303491592E0,-8.134400368E0,-1.138983607E0
8.575189315E2,4.469792843E0,-8.631509781E0,-1.444068432E0
8.580189315E2,4.351347923E0,-8.801998138E0,-1.228116274E0
8.585189315E2,5.047659397E0,-8.462217331E0,-1.413560033E0
8.590189315E2,4.012165546E0,-8.483752251E0,-1.285543919E0
8.595189315E2,5.200799942E0,-8.249256134E0,-1.092323542E0
8.600189315E2,4.305884361E0,-8.845068932E0,-1.110269666E0
8.605189315E2,4.254438877E0,-8.611170769E0,-1.156929731E0
8.610189315E2,4.631308079E0,-8.668000221E0,-1.079761267E0
8.615189315E2,4.922634602E0,-8.515457153E0,-1.043270707E0
8.620189315E2,4.682155609E0,-8.615956306E0,-9.798609018E-1
8.625189315E2,4.889732838E0,-8.512466431E0,-1.116251707E0
8.630189315E2,4.746163845E0,-8.515457153E0,-1.215553880E0
8.635189315E2,4.746163845E0,-8.454441071E0,-1.116251707E0
8.640189315E2,4.760520458E0,-8.431110382E0,-1.165902853E0
8.645189315E2,4.357928276E0,-8.671588898E0,-1.100698471E0
8.650189315E2,4.862215519E0,-8.417949677E0,-1.133001566E0
8.655189315E2,4.819144726E0,-8.659027100E0,-1.094716311E0
8.660189315E2,4.591228485E0,-8.449654579E0,-9.678967595E-1
8.665189315E2,4.541577339E0,-8.362317085E0,-1.126421213E0
8.670189315E2,4.436293125E0,-8.561519623E0,-1.239482164E0
8.675189315E2,4.800002098E0,-8.365307808E0,-1.070788145E0
8.680189315E2,4.682155609E0,-8.486743927E0,-1.241276741E0
8.685189315E2,4.833501816E0,-8.602795601E0,-1.071984529E0
8.690189315E2,4.680361271E0,-8.417949677E0,-1.104287624E0
8.695189315E2,4.669593334E0,-8.505886078E0,-1.223928809E0
8.700189315E2,4.782654285E0,-8.488538742E0,-1.204786181E0
8.705189315E2,4.863411903E0,-8.481958389E0,-1.051645517E0
8.710189315E2,4.849653244E0,-8.695517540E0,-1.113858938E0
8.715189315E2,4.811367989E0,-8.491529465E0,-8.949156404E-1
8.720189315E2,4.857429981E0,-8.483752251E0,-1.111466169E0
8.725189315E2,4.231706619E0,-8.414361000E0,-9.984052777E-1
8.730189315E2,4.545166492E0,-7.871190071E0,-1.381256819E0
8.735189315E2,4.740779877E0,-8.665607452E0,-1.429711580E0
8.740189315E2,5.044070244E0,-8.582456589E0,-8.153542876E-1
8.745189315E2,4.536791801E0,-8.386244774E0,-1.009771109E0
8.750189315E2,4.584648132E0,-8.456234932E0,-9.158528447E-1
8.755189315E2,4.170091629E0,-8.465806961E0,-1.073180914E0
8.760189315E2,5.023132801E0,-8.494520187E0,-1.010967612E0
8.765189315E2,4.528416634E0,-8.568099976E0,-1.202991605E0
8.770189315E2,4.820939541E0,-8.344370842E0,-1.089930773E0
8.775189315E2,4.543372154E0,-8.550751686E0,-1.063609719E0
8.780189315E2,4.852644444E0,-8.571090698E0,-9.415757060E-1
8.785189315E2,4.718646049E0,-8.559724808E0,-9.008977413E-1
8.790189315E2,4.499702930E0,-8.568099976E0,-9.110672474E-1
8.795189315E2,5.392225742E0,-8.440681458E0,-7.405785918E-1
8.800189315E2,3.978067636E0,-8.545966148E0,-9.254241586E-1
8.805189315E2,5.023731232E0,-8.721240044E0,-1.048056364E0
8.810189315E2,4.088137627E0,-8.428717613E0,-1.073779106E0
8.815189315E2,4.876572609E0,-8.280363083E0,-1.370489120E0
8.820189315E2,4.278367043E0,-8.569893837E0,-1.035493970E0
8.825189315E2,4.712066174E0,-8.498109818E0,-9.589236975E-1
8.830189315E2,4.380061626E0,-8.687741280E0,-1.079761267E0
8.835189315E2,4.602594376E0,-8.514859200E0,-1.098903775E0
8.840189315E2,4.795216560E0,-8.334799767E0,-1.222134113E0
8.845189315E2,4.715056896E0,-8.534002304E0,-1.216750264E0
8.850189315E2,4.791627407E0,-8.540582657E0,-1.000199914E0
8.855189315E2,4.800002098E0,-8.440681458E0,-1.146760225E0
8.860189315E2,5.200201988E0,-8.420941353E0,-1.049850941E0
8.865189315E2,4.783850670E0,-8.590232849E0,-1.293320656E0
8.870189315E2,4.643870354E0,-8.325227737E0,-1.149751306E0
8.875189315E2,4.738985062E0,-8.612964630E0,-1.464407444E0
8.880189315E2,4.774877548E0,-8.631509781E0,-1.115055323E0
8.885189315E2,4.871787071E0,-8.457431793E0,-1.156929731E0
8.890189315E2,4.635495663E0,-8.590232849E0,-1.466202021E0
8.895189315E2,4.800002098E0,-8.550153732E0,-1.271785259E0
8.900189315E2,4.869992256E0,-8.559724808E0,-1.702493310E0
8.905189315E2,4.680361271E0,-8.851649284E0,-1.469193101E0
8.910189315E2,4.653441906E0,-8.373085022E0,-8.644071817E-1
8.915189315E2,5.048855782E0,-8.825926781E0,-1.422533035E0
8.920189315E2,4.576871395E0,-8.899505615E0,-9.248259664E-1
8.925189315E2,4.910071850E0,-8.416753769E0,-1.001396298E0
8.930189315E2,4.455435753E0,-8.237890244E0,-2.096112728E0
8.935189315E2,4.992624283E0,-8.337790489E0,-1.444068432E0
8.940189315E2,4.560719967E0,-8.459226608E0,-9.774680734E-1
8.945189315E2,5.005784988E0,-8.200801849E0,-1.059422255E0
8.950189315E2,3.208176851E0,-8.518448830E0,-1.920838356E0
8.955189315E2,4.991427898E0,-8.394021988E0,-1.279561877E0
8.960189315E2,3.542573929E0,-8.780462265E0,-1.871187329E0
8.965189315E2,4.569094658E0,-8.564510345E0,-1.499701619E0
8.970189315E2,4.492524624E0,-8.449654579E0,-1.396211982E0
8.975189315E2,4.460221291E0,-9.003593445E0,-1.738385677E0
8.980189315E2,4.533202648E0,-8.758927345E0,-1.154536963E0
8.985189315E2,4.535595417E0,-8.702097893E0,-1.030110121E0
8.990189315E2,4.451846600E0,-8.584251404E0,-1.154536963E0
8.995189315E2,4.212564468E0,-8.547162056E0,-1.374676585E0
9.000189315E2,4.593023300E0,-8.327022552E0,-1.386042476E0
9.005189315E2,4.153940201E0,-8.486743927E0,-1.417747378E0
9.010189315E2,4.759922504E0,-8.187042236E0,-1.709671736E0
9.015189315E2,4.353740692E0,-8.602795601E0,-1.517049551E0
9.020189315E2,4.557130814E0,-8.467600822E0,-1.585843205E0
9.025189315E2,4.715056896E0,-8.652446747E0,-1.283749342E0
9.030189315E2,4.895715237E0,-8.481958389E0,-1.028913736E0
9.035189315E2,4.353142738E0,-8.595019341E0,-1.314257860E0
9.040189315E2,4.435096741E0,-8.585447311E0,-1.433898926E0
9.045189315E2,4.678566456E0,-8.428717613E0,-1.342971683E0
9.050189315E2,4.602594376E0,-8.501100540E0,-1.372283816E0
9.055189315E2,4.618147850E0,-8.380861282E0,-1.328614831E0
9.060189315E2,4.672584534E0,-8.601000786E0,-1.489532113E0
9.065189315E2,4.639084816E0,-8.732007980E0,-1.662413478E0
9.070189315E2,4.457230568E0,-8.759525299E0,-1.348355532E0
9.075189315E2,4.365705013E0,-8.507680893E0,-1.417747378E0
9.080189315E2,4.238885403E0,-8.513663292E0,-1.222134113E0
9.085189315E2,4.499702930E0,-8.413164139E0,-1.573280931E0
9.090189315E2,4.558925152E0,-8.698508263E0,-1.317248821E0
9.095189315E2,4.700700283E0,-8.478966713E0,-1.433898926E0
9.100189315E2,4.677370071E0,-8.586644173E0,-1.144965649E0
9.105189315E2,4.421936035E0,-8.497511864E0,-1.332203984E0
9.110189315E2,4.691128731E0,-8.582456589E0,-1.325623751E0
9.115189315E2,4.603790760E0,-8.493324280E0,-1.409970760E0
9.120189315E2,4.639084816E0,-8.494520187E0,-1.311266780E0
9.125189315E2,4.570291042E0,-8.451449394E0,-1.226919770E0
9.130189315E2,4.940580368E0,-8.347960472E0,-1.435693622E0
9.135189315E2,5.128417015E0,-8.590232849E0,-1.016351461E0
9.140189315E2,3.926023722E0,-8.850452423E0,-7.692924738E-1
9.145189315E2,5.205585480E0,-8.228319168E0,-4.127618968E-1
9.150189315E2,4.061816216E0,-9.153742790E0,2.057827413E-1
9.155189315E2,4.701298237E0,-8.185248375E0,4.725824594E-1
9.160189315E2,5.449653625E0,-8.191229820E0,5.084748268E-1
9.165189315E2,5.066802025E0,-8.038089752E0,3.505485058E-1
9.170189315E2,6.334399700E0,-7.456035137E0,-3.954139352E-1
9.175189315E2,6.532405853E0,-7.719245911E0,-4.528416991E-1
9.180189315E2,5.776273727E0,-7.767102242E0,1.692921966E-1
9.185189315E2,6.062216282E0,-7.838887215E0,3.553341627E-1
9.190189315E2,5.771488190E0,-8.023732185E0,1.914258152E-1
9.195189315E2,5.669195175E0,-8.009375572E0,-2.123630047E-1
9.200189315E2,5.667400360E0,-7.955537319E0,-2.237289101E-1
9.205189315E2,5.897709846E0,-7.868797302E0,-5.168496966E-1
9.210189315E2,5.619544029E0,-7.936394691E0,-7.118647099E-1
9.215189315E2,6.344569206E0,-7.192824841E0,-1.902294010E-1
9.220189315E2,6.784848690E0,-6.659823418E0,9.140582681E-1
9.225189315E2,7.049255371E0,-6.543173313E0,2.022533417E0
9.230189315E2,7.213163853E0,-5.379065514E0,4.150351048E0
9.235189315E2,6.306283951E0,-3.425325632E0,6.759125710E0
9.240189315E2,6.029912949E0,-3.536591768E0,6.923034191E0
9.245189315E2,6.124429703E0,-3.616153240E0,7.027122021E0
9.250189315E2,7.724031448E0,-5.219942570E0,3.590430260E0
9.255189315E2,6.684350014E0,-7.255038261E0,8.315058798E-2
9.260189315E2,6.098108292E0,-7.778468132E0,-3.655036688E-1
9.265189315E2,5.644070625E0,-7.966304779E0,-3.702892959E-1
9.270189315E2,5.675775528E0,-7.937591076E0,-2.356930375E-1
9.275189315E2,5.682355404E0,-7.940581799E0,-3.290131092E-1
9.280189315E2,5.841478348E0,-7.878368378E0,1.136590727E-2
9.285189315E2,5.455635548E0,-8.087740898E0,-4.959124923E-1
9.290189315E2,5.905486107E0,-7.837690353E0,-1.758724600E-1
9.295189315E2,5.758327484E0,-8.022536278E0,-2.219343036E-1
9.300189315E2,5.658427238E0,-7.971090317E0,-2.333002090E-1
9.305189315E2,5.876772404E0,-7.848458290E0,-1.932204217E-1
9.310189315E2,5.891129494E0,-7.849654675E0,-2.883351147E-1
9.315189315E2,5.873781204E0,-7.858029366E0,-2.650051117E-1
9.320189315E2,5.849255085E0,-7.877171993E0,-2.285145670E-1
9.325189315E2,5.796612740E0,-7.877171993E0,-2.787638307E-1
9.330189315E2,5.906682491E0,-7.829315662E0,-2.805584669E-1
9.335189315E2,5.879763603E0,-7.817949772E0,-2.805584669E-1
9.340189315E2,5.662614822E0,-7.912466049E0,-2.422732860E-1
9.345189315E2,5.717649937E0,-7.838887215E0,-2.297109663E-1
9.350189315E2,5.870790482E0,-7.805387497E0,-2.279163599E-1
9.355189315E2,5.873781204E0,-7.852047443E0,-3.864408433E-1
9.360189315E2,5.982056618E0,-7.719245911E0,-4.462614357E-1
9.365189315E2,5.921039581E0,-7.832306862E0,-4.097708762E-1
9.370189315E2,5.857629776E0,-7.830512047E0,-5.473581553E-1
9.375189315E2,5.888138294E0,-7.835896015E0,-3.894318938E-1
9.380189315E2,5.898906231E0,-7.720442295E0,-5.485545993E-1
9.385189315E2,6.031109333E0,-7.746763229E0,-4.480560422E-1
9.390189315E2,5.974279881E0,-7.737192154E0,-5.425725579E-1
9.395189315E2,6.056832314E0,-7.841877937E0,-2.739782035E-1
9.400189315E2,5.933003902E0,-7.838887215E0,9.272187948E-2
9.405189315E2,5.925825119E0,-7.775477409E0,-2.201396823E-1
9.410189315E2,5.861218929E0,-7.814958572E0,-3.098705411E-1
9.415189315E2,5.975476265E0,-7.789236069E0,-2.075773627E-1
9.420189315E2,5.824130535E0,-7.891529083E0,-1.854437590E-1
9.425189315E2,5.736194134E0,-7.843672752E0,-3.936193287E-1
9.430189315E2,5.918646812E0,-7.816154957E0,-4.271188378E-1
9.435189315E2,5.911468506E0,-7.784450054E0,-2.075773627E-1
9.440189315E2,6.072983742E0,-7.652246952E0,-3.170489967E-1
9.445189315E2,5.871986866E0,-7.835297585E0,-4.558327198E-1
9.450189315E2,5.969494343E0,-7.749155998E0,-4.528416991E-1
9.455189315E2,5.971288681E0,-7.658228874E0,-5.132604837E-1
9.460189315E2,5.928217888E0,-7.775477409E0,-5.694918036E-1
9.465189315E2,5.909075737E0,-7.764111042E0,-6.203392744E-1
9.470189315E2,5.730212212E0,-7.823333740E0,-1.218544960E0
9.475189315E2,6.234499454E0,-7.619943619E0,-9.870393276E-1
9.480189315E2,5.959922791E0,-7.749754429E0,-8.739784956E-1
9.485189315E2,6.247061729E0,-7.572087288E0,-9.511470199E-1
9.490189315E2,6.296114445E0,-7.454838753E0,-1.150349498E0
9.495189315E2,6.134000778E0,-7.551748276E0,-1.266401410E0
9.500189315E2,6.002993584E0,-7.642675400E0,-1.317847013E0
9.505189315E2,5.964110374E0,-7.526623726E0,-1.456630826E0
9.510189315E2,7.599604607E0,-6.619743824E0,-1.038485050E0
9.515189315E2,7.849654675E0,-5.181059361E0,-7.334001660E-1
9.520189315E2,8.085946083E0,-4.723432064E0,-6.155536175E-1
9.525189315E2,8.553742409E0,-5.111069202E0,4.671986103E-1
9.530189315E2,6.703492641E0,-5.341976285E-1,6.529414654E0
9.535189315E2,5.578267574E0,2.073979139E0,8.219944000E0
