"Time (s)","Gyroscope x (rad/s)","Gyroscope y (rad/s)","Gyroscope z (rad/s)"
2.743416870E-1,-2.958112657E-1,2.565632015E-2,-2.994764447E-1
7.784841350E-1,-2.948949635E-1,-3.752236962E-1,-2.322813272E-1
1.282627156E0,-4.676169753E-1,-1.157741427E0,4.546361268E-1
1.786770645E0,-7.851139307E-1,-1.146898627E0,1.076496482E0
2.290914499E0,9.248492718E-1,-1.235779405E0,1.893680729E-2
2.795058718E0,2.701549530E-1,3.436114490E-1,4.132500291E-1
3.299203041E0,-4.589121640E-1,1.627954692E-1,-1.324049383E-1
3.803347364E0,-1.082757786E-1,-1.679878123E-2,-2.379318327E-1
4.307491456E0,1.803578287E-1,1.299614757E-1,3.006981909E-1
4.811635779E0,-9.330959618E-2,-1.120936871E-1,-1.817322671E-1
5.315780050E0,-2.809978127E-1,-4.276053514E-3,-6.291907281E-2
5.819924164E0,-1.374445739E-3,-3.955349326E-2,-4.581485689E-2
6.324068123E0,-3.909534588E-2,-3.894263133E-2,4.428769648E-2
6.828211873E0,1.101083755E-1,-1.235474050E-1,-3.145953640E-2
7.332355154E0,2.390008420E-1,-2.716821134E-1,1.027780026E-1
7.836497758E0,2.073885947E-1,-4.164570570E-1,-2.449567765E-1
8.340639529E0,-2.107483521E-2,-1.299614757E-1,2.255618125E-1
8.844780675E0,1.160643063E-2,-5.390881747E-2,-8.536835015E-2
9.348921196E0,1.444695145E-1,-1.105665267E-1,-6.414080411E-2
9.853060935E0,-2.748891478E-3,-1.313359290E-2,-4.123337194E-2
1.035720005E1,2.275471389E-2,-1.262962967E-1,1.127045527E-1
1.086133854E1,1.944077164E-1,2.443459118E-3,-3.943132162E-1
1.136547635E1,-1.310304999E-1,-5.910116807E-2,4.421133697E-1
1.186961354E1,6.780599058E-2,5.742128938E-2,-3.368919194E-1
1.237374995E1,-8.842267841E-2,-3.359756200E-3,3.846921027E-1
1.287788562E1,8.872810751E-2,9.926552884E-3,-3.765981495E-1
1.338202073E1,-1.435532235E-2,8.399390616E-3,2.098320574E-1
1.388615521E1,-1.954767294E-2,-5.497782957E-3,-2.641990222E-2
1.439028901E1,4.398226365E-2,-1.075121984E-1,-1.146898642E-1
1.489442224E1,-1.557705179E-2,5.009091273E-2,2.977965772E-2
1.539855489E1,1.130099874E-2,4.398226365E-2,-1.284343153E-1
1.590268713E1,-1.299614757E-1,2.684750557E-1,1.611155868E-1
1.640681880E1,1.267544478E-1,-2.342666388E-1,3.726275265E-2
1.691095000E1,8.857538924E-3,-1.875354946E-1,-3.405570984E-2
1.741508068E1,3.970621154E-3,1.479819864E-1,-3.985892609E-2
1.791921078E1,-6.261364091E-3,3.344484791E-2,1.082757786E-1
1.842334047E1,1.389717404E-2,2.015853859E-2,-2.138026757E-3
1.892746969E1,1.878409274E-2,-2.519817278E-2,-1.664606482E-2
1.943159854E1,-2.932151034E-2,9.162971983E-4,1.466075517E-2
1.993572718E1,-6.566796452E-3,2.306014486E-2,4.459312931E-2
2.043985541E1,6.566796452E-2,-4.138609022E-2,-4.566214234E-2
2.094398333E1,1.221729536E-2,-3.695731983E-2,4.520399496E-2
2.144811088E1,2.641990222E-2,-9.162971750E-3,-4.810560122E-2
2.195223807E1,-2.611446939E-2,3.283398226E-2,1.420260593E-2
2.245636495E1,1.832594350E-2,-6.108647794E-4,-3.100138716E-2
2.296049161E1,2.886336111E-2,-4.581485689E-2,7.024944760E-3
2.346461802E1,-4.581485875E-3,2.061668597E-2,-6.688969582E-2
2.396874416E1,9.773836471E-3,-1.710421406E-2,-2.565632015E-2
2.447287005E1,-5.100720748E-2,5.329795182E-2,5.635227636E-2
2.497699562E1,-3.359756200E-3,2.825249545E-2,-1.695149764E-2
2.548112088E1,4.276053514E-3,-5.497782957E-3,-3.817904973E-3
2.598524573E1,-7.635809598E-4,-7.024944760E-3,-1.527161949E-4
2.648937026E1,-5.436696485E-2,3.756818548E-2,1.756236330E-2
2.699349437E1,-2.748891478E-3,1.237001177E-2,-1.771507785E-2
2.749761833E1,-4.199695215E-2,4.642572254E-2,-2.443459118E-3
2.800174192E1,4.428769648E-2,-3.084867075E-2,-3.023780696E-2
2.850586515E1,-2.382372692E-2,1.237001177E-2,6.673697382E-2
2.900998807E1,1.847865991E-2,-1.588248461E-2,-1.618791744E-2
2.951411068E1,1.725693047E-2,-3.665188700E-2,3.054323897E-4
3.001823297E1,3.084867075E-2,3.054323897E-4,-5.115992576E-2
3.052235500E1,9.162971983E-4,-1.466075517E-2,9.162971983E-4
3.102647672E1,1.267544460E-2,-1.511890348E-2,1.175914705E-2
3.153059823E1,3.940077871E-2,-5.772672221E-2,-3.222311661E-2
3.203471942E1,-1.069013402E-2,4.428769462E-3,6.872228812E-3
3.253884036E1,-2.321286127E-2,6.169734150E-2,-2.718348242E-2
3.304296094E1,-5.406153202E-2,4.612028971E-2,4.948004708E-2
3.354708130E1,-8.185587823E-2,2.474002354E-2,3.283398226E-2
3.405120135E1,5.696314201E-2,-4.199695215E-2,-5.574141070E-2
3.455532120E1,1.924224012E-2,-9.162971983E-4,7.177661173E-3
3.505944083E1,1.221729536E-2,-4.276053514E-3,-1.695149764E-2
3.556356036E1,1.206457894E-2,-1.634063199E-2,-1.191186346E-2
3.606767984E1,8.857538924E-3,-1.389717404E-2,1.649334840E-2
3.657179942E1,2.015853859E-2,-1.145371422E-2,4.581485991E-4
3.707591916E1,7.941242307E-3,-3.955349326E-2,-1.145371422E-2
3.758003906E1,-4.764745384E-2,8.048143238E-2,2.748891478E-3
3.808415911E1,-1.221729559E-3,-1.114828233E-2,4.581485991E-4
3.858827932E1,-8.857538924E-3,7.941242307E-3,1.130099874E-2
3.909239963E1,4.031707719E-2,-4.978547990E-2,-1.695149764E-2
3.959652000E1,-1.847865991E-2,3.970621154E-3,1.679878123E-2
4.010064031E1,2.611446939E-2,-1.145371422E-2,-1.298087649E-2
4.060476073E1,-2.519817278E-2,2.458730713E-2,1.069013379E-3
4.110888120E1,7.941242307E-3,-6.093376130E-2,-7.483093534E-3
4.161300166E1,-3.619373962E-2,8.093958721E-3,3.222311661E-2
4.211712224E1,3.543015569E-2,-4.001164436E-2,-3.176496923E-2
4.262124286E1,-5.345067009E-3,-1.374445739E-3,2.076940238E-2
4.312536344E1,1.603520103E-2,-2.229656465E-2,-7.330377586E-3
4.362948396E1,1.527161949E-4,-4.734201822E-3,-1.832594397E-3
4.413360427E1,-1.069013379E-3,-9.926552884E-3,-5.192350596E-3
4.463772437E1,6.566796452E-3,-1.588248461E-2,-1.130099874E-2
4.514184432E1,-6.872228812E-3,1.817322709E-2,8.246674202E-3
4.564596422E1,3.970621154E-3,7.177661173E-3,-4.276053514E-3
4.615008432E1,-6.872228812E-3,-2.168569900E-2,-1.069013379E-3
4.665420515E1,2.901607659E-3,-1.023198478E-2,-1.374445739E-3
4.715832672E1,3.130681813E-2,-3.558287397E-2,1.527161920E-3
4.766244922E1,2.871064469E-2,-3.390299529E-2,-6.414080039E-3
4.816657260E1,-1.282816008E-2,7.177661173E-3,-4.428769462E-3
4.867069682E1,1.863137633E-2,-1.481347065E-2,-9.468403645E-3
4.917482192E1,-3.100138716E-2,2.504545636E-2,1.130099874E-2
4.967894797E1,1.099556591E-2,-2.428187430E-2,-1.817322709E-2
5.018307495E1,-6.872228812E-3,-1.527161989E-2,1.252272818E-2
5.068720281E1,4.108065739E-2,-2.458730713E-2,-2.229656465E-2
5.119133140E1,-4.016435891E-2,6.856957078E-2,4.856374860E-2
5.169546041E1,3.161225095E-2,-7.391463965E-2,-8.933897316E-2
5.219958989E1,-4.581485689E-2,1.557705179E-2,4.184423760E-2
5.270371953E1,-1.710421406E-2,1.237001177E-2,9.957095981E-2
5.320784927E1,4.673115537E-2,-4.932733253E-2,-2.098320574E-1
5.371197901E1,1.038470119E-2,1.069013402E-2,1.366809905E-1
5.421610864E1,3.054323979E-2,-6.414080411E-2,-1.420260593E-2
5.472025052E1,2.596175298E-3,-4.108065739E-2,-6.414080039E-3
5.522436713E1,4.444041103E-2,1.893680729E-2,-2.107483521E-2
5.572849588E1,7.819069177E-2,-6.734783947E-2,-3.054323979E-2
5.623262437E1,-2.244928107E-2,4.520399496E-2,1.206457894E-2
5.673675260E1,-1.420260593E-2,-3.817904973E-3,5.650499370E-3
5.724088057E1,-2.122755162E-2,3.084867075E-2,-6.322450191E-2
5.774500828E1,2.290742844E-2,-1.343902480E-2,2.489273995E-2
5.824913583E1,2.916879393E-2,-1.710421406E-2,8.093958721E-3
5.875326364E1,2.412915789E-2,-3.436114267E-2,1.114828233E-2
5.925739234E1,4.444041103E-2,-3.741546720E-2,-6.062832847E-2
5.976152203E1,-8.536835015E-2,8.185587823E-2,5.696314201E-2
6.026565281E1,-9.162971983E-4,5.528326333E-2,4.581485875E-3
6.076978463E1,4.581485689E-2,-1.058323234E-1,4.428769462E-3
6.127391708E1,9.758564830E-2,-3.176496923E-2,-3.772090003E-2
6.177804984E1,-3.283398226E-2,-4.810560122E-2,6.246092543E-2
6.228218276E1,4.566214234E-2,1.863137633E-2,-1.362228394E-1
6.278631599E1,-1.162170246E-1,6.963858753E-2,1.574503928E-1
6.329044922E1,5.787943676E-2,1.572976820E-2,-1.936441362E-1
6.379458281E1,-1.401934624E-1,6.918043643E-2,3.824013472E-1
6.429871622E1,8.567378670E-2,-5.497782957E-3,-3.711003661E-1
6.480285029E1,1.679878100E-3,-3.741546720E-2,1.498145908E-1
6.530698440E1,1.160643063E-2,-1.634063199E-2,-1.191186346E-2
6.581111872E1,-5.192350596E-3,1.603520103E-2,4.581485991E-4
6.631525320E1,4.780016840E-2,-6.368265301E-2,-6.108647794E-4
6.681938774E1,2.535088919E-2,-1.527161989E-2,-3.344484791E-2
6.732352211E1,-5.345066637E-2,2.657261863E-2,4.001164436E-2
6.782765628E1,1.832594397E-3,1.679878123E-2,-2.244928107E-2
6.833179029E1,-3.359756246E-2,7.483093534E-3,3.329212964E-2
6.883592399E1,8.613193035E-2,-8.368847519E-2,-8.659008145E-2
6.934005722E1,-0.000000000E0,2.138026757E-3,3.940077871E-2
6.984419008E1,4.428769462E-3,-1.114828233E-2,-1.496618707E-2
7.034832248E1,-1.038470119E-2,2.718348242E-2,1.679878100E-3
7.085245440E1,-6.123919412E-2,4.856374860E-2,7.742711157E-2
7.135658597E1,5.253437161E-2,-3.985892609E-2,-9.178243577E-2
7.186071711E1,-9.162971983E-4,-1.237001177E-2,2.840521187E-2
7.236484789E1,-1.725693047E-2,-1.374445739E-3,1.374445762E-2
7.286897831E1,3.313941509E-2,-9.315688163E-3,-1.863137633E-2
7.337310841E1,-7.635809481E-2,7.773254067E-2,2.443459071E-2
7.387723836E1,3.054323897E-4,-2.596175298E-3,2.901607659E-3
7.438136847E1,2.382372692E-2,-1.908952370E-2,2.748891478E-3
7.488549888E1,4.428769462E-3,-5.955931731E-3,1.435532235E-2
7.538962987E1,-6.154462695E-2,5.177079141E-2,3.298669681E-2
7.589376190E1,-9.407317638E-2,1.134681329E-1,1.261435747E-1
7.639789529E1,1.572976820E-2,2.061668597E-2,-7.452550530E-2
7.690203055E1,-8.399390616E-3,-4.581485991E-4,3.252854943E-2
7.740616794E1,7.101303339E-2,-4.245510325E-2,-8.811724186E-2
7.791030784E1,-4.963276163E-2,5.650499091E-2,7.238747925E-2
7.841445044E1,8.124501258E-2,3.726275265E-2,-4.932733253E-2
7.891859565E1,-6.582067907E-2,4.841103405E-2,7.192932814E-2
7.942274341E1,-1.374445762E-2,-4.749473557E-2,-5.390881747E-2
7.992689367E1,-2.947422490E-2,7.635809947E-3,4.489856213E-2
8.043104669E1,-5.558869615E-2,8.674279600E-2,3.145953640E-2
8.093520274E1,2.168569900E-2,-4.367683083E-2,3.130681813E-2
8.143936185E1,5.421425030E-2,-2.855792828E-2,1.267544460E-2
8.194352378E1,-3.756818548E-2,2.535088919E-2,-9.468403645E-3
8.244768862E1,-1.466075517E-2,3.634645417E-2,-2.596175298E-3
8.295185664E1,-5.894844979E-2,7.177661359E-2,3.512472380E-3
8.345602873E1,-4.581485875E-3,1.832594350E-2,3.543015569E-2
8.396020524E1,7.941242307E-3,-4.886918236E-3,9.162971750E-3
8.446438555E1,-2.290742937E-3,9.162971750E-3,4.428769462E-3
8.496856873E1,-4.306596518E-2,2.092211880E-2,2.275471389E-2
8.547275456E1,1.893680729E-2,8.399390616E-3,1.206457894E-2
8.597694305E1,3.649916872E-2,-9.162971750E-3,-5.650499370E-3
8.648113451E1,1.023198478E-2,1.237001177E-2,-2.596175298E-2
8.698532893E1,-3.039052337E-2,2.779434808E-2,2.199113183E-2
8.756333654E1,-5.528326333E-2,1.310304999E-1,7.437278330E-2
8.763056284E1,-5.696314201E-2,1.206457913E-1,1.325576603E-1
8.769778925E1,-9.789107740E-2,1.038470119E-1,1.098029464E-1
8.819778925E1,3.970621154E-3,1.527161989E-2,-1.725693047E-2
8.869778925E1,-1.174387559E-1,1.029307172E-1,5.803215504E-2
8.919778925E1,1.954767294E-2,-4.199695215E-2,-4.963276163E-2
8.969778925E1,-1.328630932E-2,4.199695215E-2,-3.848448023E-2
9.019778925E1,1.157588735E-1,-1.120936871E-1,-1.035415828E-1
9.069778925E1,8.491020650E-2,7.192932814E-2,1.655443609E-1
9.119778925E1,-4.718930274E-2,-1.466075517E-2,-2.993237413E-2
9.169778925E1,2.122755162E-2,-4.948004708E-2,1.632536054E-1
9.219778925E1,-5.070177838E-2,-2.321286127E-2,2.596175298E-2
9.269778925E1,8.643736690E-2,-1.026252806E-1,-8.445205539E-2
9.319778925E1,-7.406735420E-2,6.872228533E-2,5.115992576E-2
9.369778925E1,6.872228812E-3,-1.450803876E-2,-5.604684353E-2
9.419778925E1,-1.710421406E-2,2.657261863E-2,-1.175914705E-2
9.469778925E1,-1.094975099E-1,6.643154472E-2,4.703658819E-2
9.519778925E1,4.382954910E-2,-4.169152305E-2,-1.282816008E-2
9.569778925E1,-5.955931544E-2,6.307178736E-2,1.160643063E-2
9.619778925E1,5.787943676E-2,-7.987056673E-2,-5.222893879E-2
9.669778925E1,-5.574141070E-2,4.489856213E-2,5.772672221E-2
9.719778925E1,-4.993819445E-2,8.826996386E-2,4.428769648E-2
9.769778925E1,-6.612611562E-2,5.268708616E-2,1.090393662E-1
9.819778925E1,1.163697392E-1,-4.780016840E-2,-7.819069177E-2
9.869778925E1,1.313359290E-2,-9.346231073E-2,-6.902772188E-2
9.919778925E1,9.132428467E-2,-7.788525894E-3,-3.772090003E-2
9.969778925E1,-2.519817278E-2,5.650499091E-2,2.809977904E-2
1.001977892E2,-2.580903657E-2,4.734201822E-3,6.520981342E-2
1.006977892E2,1.756236330E-2,-1.221729536E-2,-1.221729536E-2
1.011977892E2,-2.138026757E-3,-6.719512399E-3,2.519817278E-2
1.016977892E2,-5.497782957E-3,-5.039634649E-3,8.246674202E-3
1.021977892E2,-6.414080039E-3,2.916879393E-2,2.275471389E-2
1.026977892E2,3.649916872E-2,-4.627300799E-2,-4.092793912E-2
1.031977892E2,1.786779426E-2,-5.558869615E-2,-2.977965772E-2
1.036977892E2,-6.017018110E-2,2.214384824E-2,4.199695215E-2
1.041977892E2,3.207040019E-3,-1.007926930E-2,-7.360920310E-2
1.046977892E2,-7.849612087E-2,4.795288667E-2,1.041524485E-1
1.051977892E2,-1.374445762E-2,2.855792828E-2,5.115992576E-2
1.056977892E2,4.123337101E-3,1.893680729E-2,-1.481347065E-2
1.061977892E2,5.803215317E-3,-9.315688163E-3,-1.450803876E-2
1.066977892E2,4.718930274E-2,-1.319467872E-1,-3.619373962E-2
1.071977892E2,6.872228533E-2,3.512472659E-2,4.062250629E-2
1.076977892E2,-8.399390429E-2,1.970038936E-2,-8.093958721E-3
1.081977892E2,-3.848448023E-2,1.970038936E-2,6.566796452E-3
1.086977892E2,1.710421406E-2,-7.941242307E-3,3.940077871E-2
1.091977892E2,-3.848448023E-2,-2.840521187E-2,5.955931731E-3
1.096977892E2,-1.404988952E-2,3.573558852E-2,-9.773836471E-3
1.101977892E2,4.398226365E-2,-6.322450191E-2,-1.221729536E-2
1.106977892E2,-3.390299529E-2,2.901607752E-2,1.114828233E-2
1.111977892E2,-6.261364091E-3,4.108065739E-2,-1.893680729E-2
1.116977892E2,-4.306596518E-2,7.147117704E-2,-7.330377586E-3
1.121977892E2,-1.797469556E-1,-2.886336111E-2,-1.038470119E-2
1.126977892E2,9.666935354E-2,-2.764163166E-2,-6.017018110E-2
1.131977892E2,-2.031125315E-2,1.725693047E-2,6.414080039E-3
1.136977892E2,2.748891478E-3,6.719512399E-3,-5.054906011E-2
1.141977892E2,-4.046979174E-2,6.200277433E-2,2.489273995E-2
1.146977892E2,-9.926552884E-3,-4.795288667E-2,6.963858753E-2
1.151977892E2,-2.458730713E-2,2.015853859E-2,1.817322709E-2
1.156977892E2,-1.420260593E-2,7.330377586E-3,2.474002354E-2
1.161977892E2,-3.054323897E-4,4.291325063E-2,1.664606482E-2
1.166977892E2,-5.803215317E-3,-1.084284950E-2,2.916879393E-2
1.171977892E2,2.596175298E-2,-1.832594397E-3,7.040216774E-2
1.176977892E2,-5.497782957E-3,-2.582430840E-1,-2.073885947E-1
1.181977892E2,6.734783947E-2,-1.435532235E-2,-1.221729559E-3
1.186977892E2,-9.926552884E-3,2.840521187E-2,1.466075517E-2
1.191977892E2,-3.329212964E-2,1.832594350E-2,-9.682206810E-2
1.196977892E2,6.291907281E-2,-4.566214234E-2,4.856374860E-2
1.201977892E2,7.024944760E-3,1.374445739E-3,-1.343902480E-2
1.206977892E2,1.374445762E-2,2.504545636E-2,-2.596175298E-3
1.211977892E2,1.954767294E-2,3.023780696E-2,-3.268126398E-2
1.216977892E2,-1.786779426E-2,-3.207040019E-3,-4.581485689E-2
1.221977892E2,-1.802051067E-2,4.673115537E-2,4.734201822E-3
1.226977892E2,5.039634649E-3,1.023198478E-2,2.138026757E-3
1.231977892E2,-4.428769462E-3,-2.000582218E-2,1.221729536E-2
1.236977892E2,1.511890348E-2,-3.054323839E-3,3.207040019E-3
1.241977892E2,2.443459071E-2,1.481347065E-2,-7.941242307E-3
1.246977892E2,-2.489273995E-2,6.872228812E-3,1.435532235E-2
1.251977892E2,-1.175914705E-2,1.404988952E-2,-4.123337101E-3
1.256977892E2,2.290742937E-3,-1.710421406E-2,1.206457894E-2
1.261977892E2,-4.428769462E-3,-1.053741761E-2,-1.664606482E-2
1.266977892E2,1.343902480E-2,2.932151034E-2,2.596175298E-3
1.271977892E2,-3.084867075E-2,3.680460155E-2,-7.635809598E-4
1.276977892E2,6.414080039E-3,-6.566796452E-2,-1.343902480E-2
1.281977892E2,-5.803215317E-3,-1.221729536E-2,7.024944760E-3
1.286977892E2,-6.566796452E-3,2.657261863E-2,2.367101051E-2
1.291977892E2,1.786779426E-2,-1.527161949E-4,-3.817904973E-3
1.296977892E2,-9.315688163E-3,-1.069013402E-2,7.788525894E-3
1.301977892E2,1.985310577E-3,1.023198478E-2,-8.552107029E-3
1.306977892E2,9.162971983E-4,-3.741546720E-2,-3.054323897E-4
1.311977892E2,1.039997265E-1,-1.175914705E-1,-2.596175298E-3
1.316977892E2,1.603520103E-2,-1.459966749E-1,4.581485689E-2
1.321977892E2,-3.298669681E-2,2.214384824E-2,3.619373962E-2
1.326977892E2,1.278234571E-1,-2.738201320E-1,-3.026835024E-1
1.331977892E2,4.535670951E-2,3.023780696E-2,4.489856213E-2
1.336977892E2,4.520399496E-2,1.527161920E-3,-6.719512492E-2
1.341977892E2,-1.542433538E-2,-1.313359290E-2,8.689551800E-2
1.346977892E2,1.962403059E-1,-9.437860548E-2,-2.443459183E-1
1.351977892E2,-3.373500705E-1,6.392700076E-1,4.321868420E-1
1.356977892E2,-2.425133139E-1,2.864955962E-1,3.084867075E-2
1.361977892E2,1.007926930E-2,-4.138609022E-2,1.679878100E-3
1.366977892E2,-8.399390616E-3,2.046396956E-2,-7.483093534E-3
1.371977892E2,-7.101303339E-2,-1.618791744E-2,-7.040216774E-2
1.376977892E2,-5.955931731E-3,4.886918236E-3,-3.115410358E-2
1.381977892E2,4.902189970E-2,-9.376774728E-2,-1.908952370E-2
1.386977892E2,1.450803876E-2,-3.726275265E-2,-2.061668597E-2
1.391977892E2,-1.420260593E-2,3.604102135E-2,-1.420260593E-2
1.396977892E2,-3.191768378E-2,4.169152305E-2,-2.993237413E-2
1.401977892E2,3.054323897E-4,4.581485991E-4,1.832594350E-2
1.406977892E2,3.115410358E-2,-3.039052337E-2,2.779434808E-2
1.411977892E2,6.704241037E-2,-3.463603258E-1,9.498947114E-2
1.416977892E2,1.259908676E-1,-7.941242307E-3,2.443459071E-2
1.421977892E2,-7.788526267E-2,2.918406427E-1,1.583666950E-1
1.426977892E2,9.605848789E-2,-2.079994529E-1,-2.696968019E-1
1.431977892E2,-5.910116807E-2,1.597411335E-1,2.373209596E-1
1.436977892E2,3.039052337E-2,-9.682206810E-2,-1.757763475E-1
1.441977892E2,4.932733253E-2,-5.558869615E-2,4.764745384E-2
1.446977892E2,-5.039634649E-3,1.177441850E-1,-3.405570984E-2
1.451977892E2,-2.107483521E-2,-4.169152305E-2,-7.620538026E-2
1.456977892E2,-7.040216774E-2,1.679878123E-2,-2.367101051E-2
1.461977892E2,-2.443459071E-2,-1.298087649E-2,2.641990222E-2
1.466977892E2,2.550360374E-2,-2.031125315E-2,-6.566796452E-3
1.471977892E2,-1.710421406E-2,5.940660089E-2,3.512472380E-3
1.476977892E2,2.916879393E-2,-9.926552325E-2,1.175914705E-1
1.481977892E2,3.711003438E-2,-6.352993846E-2,2.275471389E-2
1.486977892E2,6.078104675E-2,-1.511890348E-2,1.041524485E-1
1.491977892E2,2.321286127E-2,-1.339320987E-1,-6.062832847E-2
1.496977892E2,2.977965772E-2,-5.558869615E-2,7.116574794E-2
1.501977892E2,-2.199113183E-2,9.315688163E-3,-4.001164436E-2
1.506977892E2,-2.046396956E-2,7.635809947E-3,2.397644334E-2
1.511977892E2,2.519817278E-2,8.246674202E-3,-2.993237413E-2
1.516977892E2,-4.734201822E-3,2.687804960E-2,-3.237583488E-2
1.521977892E2,-4.550942779E-2,8.994983882E-2,-8.231402934E-2
1.526977892E2,4.001164436E-2,-4.230238497E-2,1.175914705E-2
1.531977892E2,3.329212964E-2,-1.191186309E-1,-1.343902480E-2
1.536977892E2,-3.787361458E-2,5.757400393E-2,1.499672979E-1
1.541977892E2,5.986474827E-2,-3.543015569E-2,-1.207985133E-1
1.546977892E2,6.230820715E-2,1.649334840E-2,1.695149690E-1
1.551977892E2,2.871064469E-2,-4.825831577E-2,-3.512472380E-3
1.556977892E2,7.009673119E-2,-3.084867075E-2,-5.406153202E-2
1.561977892E2,4.321868345E-2,-4.566214234E-2,7.483093441E-2
1.566977892E2,3.359756200E-3,-1.771507785E-2,7.803797722E-2
1.571977892E2,-9.315688163E-3,1.802051067E-2,3.695731983E-2
1.576977892E2,7.635809947E-3,-2.504545636E-2,2.871064469E-2
1.581977892E2,5.345067009E-3,1.695149764E-2,-3.207040019E-3
1.586977892E2,-2.076940238E-2,-8.704823442E-3,6.337722391E-2
1.591977892E2,-1.832594350E-2,5.513054505E-2,1.374445739E-3
1.596977892E2,-1.450803876E-2,4.612028971E-2,3.039052337E-2
1.601977892E2,-3.069595434E-2,4.734201822E-3,-1.237001177E-2
1.606977892E2,-4.095848203E-1,6.145299673E-1,2.440404743E-1
1.611977892E2,7.483093441E-2,-2.962694131E-2,-1.858556122E-1
1.616977892E2,1.719584316E-1,-9.605848789E-2,8.674279600E-2
1.621977892E2,4.825831577E-2,1.163697392E-1,-3.132209182E-1
1.626977892E2,1.069013379E-3,-2.840521187E-2,4.276053514E-3
1.631977892E2,-4.627300799E-2,-1.481347065E-2,-1.817322709E-2
1.636977892E2,-3.436114267E-2,-2.214384824E-2,5.467239767E-2
1.641977892E2,1.007926911E-1,-1.453858167E-1,-7.834340632E-2
1.646977892E2,2.641990222E-2,6.215549260E-2,3.466657549E-2
1.651977892E2,-1.084284950E-2,4.031707719E-2,6.093376130E-2
1.656977892E2,4.993819445E-2,4.734201822E-3,3.497200832E-2
1.661977892E2,4.993819445E-2,4.734201822E-3,3.497200832E-2
1.666977892E2,4.993819445E-2,4.734201822E-3,3.497200832E-2
1.671977892E2,4.993819445E-2,4.734201822E-3,3.497200832E-2
1.676977892E2,4.993819445E-2,4.734201822E-3,3.497200832E-2
1.681977892E2,4.993819445E-2,4.734201822E-3,3.497200832E-2
1.686977892E2,4.993819445E-2,4.734201822E-3,3.497200832E-2
1.691977892E2,4.993819445E-2,4.734201822E-3,3.497200832E-2
1.696977892E2,4.993819445E-2,4.734201822E-3,3.497200832E-2
1.701977892E2,4.993819445E-2,4.734201822E-3,3.497200832E-2
1.706977892E2,4.993819445E-2,4.734201822E-3,3.497200832E-2
1.711977892E2,4.993819445E-2,4.734201822E-3,3.497200832E-2
1.716977892E2,4.993819445E-2,4.734201822E-3,3.497200832E-2
1.721977892E2,4.993819445E-2,4.734201822E-3,3.497200832E-2
1.726977892E2,4.993819445E-2,4.734201822E-3,3.497200832E-2
1.731977892E2,4.993819445E-2,4.734201822E-3,3.497200832E-2
1.736977892E2,4.993819445E-2,4.734201822E-3,3.497200832E-2
1.741977892E2,4.993819445E-2,4.734201822E-3,3.497200832E-2
1.746977892E2,4.993819445E-2,4.734201822E-3,3.497200832E-2
1.751977892E2,4.993819445E-2,4.734201822E-3,3.497200832E-2
1.756977892E2,4.993819445E-2,4.734201822E-3,3.497200832E-2
1.761977892E2,4.993819445E-2,4.734201822E-3,3.497200832E-2
1.766977892E2,4.993819445E-2,4.734201822E-3,3.497200832E-2
1.771977892E2,4.993819445E-2,4.734201822E-3,3.497200832E-2
1.776977892E2,4.993819445E-2,4.734201822E-3,3.497200832E-2
1.781977892E2,4.993819445E-2,4.734201822E-3,3.497200832E-2
1.786977892E2,4.993819445E-2,4.734201822E-3,3.497200832E-2
1.791977892E2,4.993819445E-2,4.734201822E-3,3.497200832E-2
1.796977892E2,4.993819445E-2,4.734201822E-3,3.497200832E-2
1.801977892E2,4.993819445E-2,4.734201822E-3,3.497200832E-2
1.806977892E2,4.993819445E-2,4.734201822E-3,3.497200832E-2
1.811977892E2,4.993819445E-2,4.734201822E-3,3.497200832E-2
1.816977892E2,4.993819445E-2,4.734201822E-3,3.497200832E-2
1.821977892E2,4.993819445E-2,4.734201822E-3,3.497200832E-2
1.826977892E2,4.993819445E-2,4.734201822E-3,3.497200832E-2
1.831977892E2,4.993819445E-2,4.734201822E-3,3.497200832E-2
1.836977892E2,4.993819445E-2,4.734201822E-3,3.497200832E-2
1.841977892E2,4.993819445E-2,4.734201822E-3,3.497200832E-2
1.846977892E2,4.993819445E-2,4.734201822E-3,3.497200832E-2
1.851977892E2,4.993819445E-2,4.734201822E-3,3.497200832E-2
1.856977892E2,4.993819445E-2,4.734201822E-3,3.497200832E-2
1.861977892E2,4.993819445E-2,4.734201822E-3,3.497200832E-2
1.866977892E2,4.993819445E-2,4.734201822E-3,3.497200832E-2
1.871977892E2,4.993819445E-2,4.734201822E-3,3.497200832E-2
1.876977892E2,4.993819445E-2,4.734201822E-3,3.497200832E-2
1.881977892E2,4.993819445E-2,4.734201822E-3,3.497200832E-2
1.886977892E2,4.993819445E-2,4.734201822E-3,3.497200832E-2
1.891977892E2,4.993819445E-2,4.734201822E-3,3.497200832E-2
1.896977892E2,4.993819445E-2,4.734201822E-3,3.497200832E-2
1.901977892E2,4.993819445E-2,4.734201822E-3,3.497200832E-2
1.906977892E2,4.993819445E-2,4.734201822E-3,3.497200832E-2
1.911977892E2,4.993819445E-2,4.734201822E-3,3.497200832E-2
1.916977892E2,4.993819445E-2,4.734201822E-3,3.497200832E-2
1.921977892E2,4.993819445E-2,4.734201822E-3,3.497200832E-2
1.926977892E2,4.993819445E-2,4.734201822E-3,3.497200832E-2
1.931977892E2,-1.221729536E-2,1.695149764E-2,7.330377586E-3
1.936977892E2,-1.786779426E-2,1.679878123E-2,1.069013402E-2
1.941977892E2,1.649334840E-2,-2.015853859E-2,-1.802051067E-2
1.946977892E2,-2.871064469E-2,3.283398226E-2,3.176496923E-2
1.951977892E2,8.246674202E-3,2.596175298E-3,-1.130099874E-2
1.956977892E2,-2.794706449E-2,2.351829410E-2,1.389717404E-2
1.961977892E2,-3.115410358E-2,3.543015569E-2,-1.557705179E-2
1.966977892E2,2.290742937E-3,-2.596175298E-3,8.093958721E-3
1.971977892E2,-1.206457894E-2,1.863137633E-2,-9.926552884E-3
1.976977892E2,4.413498193E-2,-5.879573524E-2,-2.901607659E-3
1.981977892E2,3.665188793E-3,4.886918236E-3,2.748891478E-3
1.986977892E2,2.596175298E-3,-1.634063199E-2,-9.621120058E-3
1.991977892E2,-0.000000000E0,1.374445739E-3,-3.970621154E-3
1.996977892E2,-1.007926930E-2,1.725693047E-2,-6.414080039E-3
2.001977892E2,1.679878123E-2,-1.817322709E-2,-1.374445739E-3
2.006977892E2,-1.420260593E-2,2.275471389E-2,-1.679878100E-3
2.011977892E2,2.138026804E-2,-3.069595434E-2,7.635809598E-4
2.016977892E2,-3.054323839E-3,2.138026757E-3,7.635809947E-3
2.021977892E2,-2.535088919E-2,2.504545636E-2,-3.207040019E-3
2.026977892E2,2.840521187E-2,-2.580903657E-2,3.054323839E-3
2.031977892E2,-2.367101051E-2,9.315688163E-3,-1.221729559E-3
2.036977892E2,-1.404988952E-2,2.580903657E-2,-1.191186346E-2
2.041977892E2,-2.168569900E-2,1.267544460E-2,1.374445762E-2
2.046977892E2,2.932151034E-2,-2.886336111E-2,-8.704823442E-3
2.051977892E2,3.283398226E-2,-7.299833745E-2,-2.138026757E-3
2.056977892E2,1.603520103E-2,8.246674202E-3,1.893680729E-2
2.061977892E2,1.053741761E-2,-1.221729536E-2,8.704823442E-3
2.066977892E2,-9.010255337E-3,-5.497782957E-3,-2.397644334E-2
2.071977892E2,2.809977904E-2,-4.382954910E-2,-1.771507785E-2
2.076977892E2,5.268708616E-2,-9.804379940E-2,-1.029307172E-1
2.081977892E2,-4.780016840E-2,2.458730713E-2,8.674279600E-2
2.086977892E2,-2.901607752E-2,5.635227636E-2,-3.588830680E-2
2.091977892E2,-7.589995116E-2,8.918625861E-2,3.543015569E-2
2.096977892E2,1.389717404E-2,-2.718348242E-2,1.175914705E-2
2.101977892E2,5.497782957E-3,-9.468403645E-3,2.260199748E-2
2.106977892E2,2.412915789E-2,-9.773836471E-3,-2.367101051E-2
2.111977892E2,2.031125315E-2,-3.573558852E-2,-2.290742937E-3
2.116977892E2,1.328630932E-2,-2.199113183E-2,2.748891478E-3
2.121977892E2,-1.313359290E-2,8.704823442E-3,1.527161920E-3
2.126977892E2,-2.687804960E-2,1.481347065E-2,-1.084284950E-2
2.131977892E2,-1.557705179E-2,1.847865991E-2,4.092793912E-2
2.136977892E2,-5.955931731E-3,6.108647678E-3,-1.588248461E-2
2.141977892E2,-5.955931731E-3,1.664606482E-2,4.428769462E-3
2.146977892E2,-5.528326333E-2,-1.985310577E-3,1.496618707E-2
2.151977892E2,3.588830680E-2,-3.176496923E-2,-2.382372692E-2
2.156977892E2,3.420842811E-2,-6.582067907E-2,-4.810560122E-2
2.161977892E2,4.001164436E-2,-5.681042373E-2,-4.917461425E-2
2.166977892E2,5.085449293E-2,-2.687804960E-2,3.359756200E-3
2.171977892E2,1.634063199E-2,-2.183841541E-2,1.725693047E-2
2.176977892E2,-7.635809947E-3,3.985892609E-2,7.941242307E-3
2.181977892E2,3.207040206E-2,-2.046396956E-2,9.773836471E-3
2.186977892E2,5.650499370E-3,-3.207040206E-2,2.290742844E-2
2.191977892E2,1.832594397E-3,-2.046396956E-2,-2.626718581E-2
2.196977892E2,1.099556591E-2,-1.374445739E-3,-5.955931731E-3
2.201977892E2,-8.704823442E-3,7.635809947E-3,1.832594397E-3
2.206977892E2,2.504545636E-2,-2.535088919E-2,-2.214384824E-2
2.211977892E2,2.748891478E-3,-8.552107029E-3,3.970621154E-3
2.216977892E2,5.543597788E-2,-5.650499091E-2,-1.007926930E-2
2.221977892E2,1.359174121E-2,9.010255337E-3,3.313941509E-2
2.226977892E2,3.634645417E-2,-4.673115537E-2,-3.680460155E-2
2.231977892E2,3.634645417E-2,-4.673115537E-2,-3.680460155E-2
2.236977892E2,3.634645417E-2,-4.673115537E-2,-3.680460155E-2
2.241977892E2,3.634645417E-2,-4.673115537E-2,-3.680460155E-2
2.246977892E2,3.634645417E-2,-4.673115537E-2,-3.680460155E-2
2.251977892E2,3.634645417E-2,-4.673115537E-2,-3.680460155E-2
2.256977892E2,3.634645417E-2,-4.673115537E-2,-3.680460155E-2
2.261977892E2,3.634645417E-2,-4.673115537E-2,-3.680460155E-2
2.266977892E2,3.634645417E-2,-4.673115537E-2,-3.680460155E-2
2.271977892E2,3.634645417E-2,-4.673115537E-2,-3.680460155E-2
2.276977892E2,3.634645417E-2,-4.673115537E-2,-3.680460155E-2
2.281977892E2,3.634645417E-2,-4.673115537E-2,-3.680460155E-2
2.286977892E2,3.634645417E-2,-4.673115537E-2,-3.680460155E-2
2.291977892E2,3.634645417E-2,-4.673115537E-2,-3.680460155E-2
2.296977892E2,3.634645417E-2,-4.673115537E-2,-3.680460155E-2
2.301977892E2,3.634645417E-2,-4.673115537E-2,-3.680460155E-2
2.306977892E2,3.634645417E-2,-4.673115537E-2,-3.680460155E-2
2.311977892E2,3.634645417E-2,-4.673115537E-2,-3.680460155E-2
2.316977892E2,3.634645417E-2,-4.673115537E-2,-3.680460155E-2
2.321977892E2,3.634645417E-2,-4.673115537E-2,-3.680460155E-2
2.326977892E2,3.634645417E-2,-4.673115537E-2,-3.680460155E-2
2.331977892E2,3.634645417E-2,-4.673115537E-2,-3.680460155E-2
2.336977892E2,3.634645417E-2,-4.673115537E-2,-3.680460155E-2
2.341977892E2,3.634645417E-2,-4.673115537E-2,-3.680460155E-2
2.346977892E2,3.634645417E-2,-4.673115537E-2,-3.680460155E-2
2.351977892E2,3.634645417E-2,-4.673115537E-2,-3.680460155E-2
2.356977892E2,3.634645417E-2,-4.673115537E-2,-3.680460155E-2
2.361977892E2,3.634645417E-2,-4.673115537E-2,-3.680460155E-2
2.366977892E2,3.634645417E-2,-4.673115537E-2,-3.680460155E-2
2.371977892E2,3.634645417E-2,-4.673115537E-2,-3.680460155E-2
2.376977892E2,3.634645417E-2,-4.673115537E-2,-3.680460155E-2
2.381977892E2,3.634645417E-2,-4.673115537E-2,-3.680460155E-2
2.386977892E2,3.634645417E-2,-4.673115537E-2,-3.680460155E-2
2.391977892E2,3.634645417E-2,-4.673115537E-2,-3.680460155E-2
2.396977892E2,3.634645417E-2,-4.673115537E-2,-3.680460155E-2
2.401977892E2,3.634645417E-2,-4.673115537E-2,-3.680460155E-2
2.406977892E2,3.634645417E-2,-4.673115537E-2,-3.680460155E-2
2.411977892E2,3.634645417E-2,-4.673115537E-2,-3.680460155E-2
2.416977892E2,3.634645417E-2,-4.673115537E-2,-3.680460155E-2
2.421977892E2,3.634645417E-2,-4.673115537E-2,-3.680460155E-2
2.426977892E2,3.634645417E-2,-4.673115537E-2,-3.680460155E-2
2.431977892E2,3.634645417E-2,-4.673115537E-2,-3.680460155E-2
2.436977892E2,3.634645417E-2,-4.673115537E-2,-3.680460155E-2
2.441977892E2,3.634645417E-2,-4.673115537E-2,-3.680460155E-2
2.446977892E2,3.634645417E-2,-4.673115537E-2,-3.680460155E-2
2.451977892E2,3.634645417E-2,-4.673115537E-2,-3.680460155E-2
2.456977892E2,3.634645417E-2,-4.673115537E-2,-3.680460155E-2
2.461977892E2,3.634645417E-2,-4.673115537E-2,-3.680460155E-2
2.466977892E2,3.634645417E-2,-4.673115537E-2,-3.680460155E-2
2.471977892E2,3.634645417E-2,-4.673115537E-2,-3.680460155E-2
2.476977892E2,3.634645417E-2,-4.673115537E-2,-3.680460155E-2
2.481977892E2,3.634645417E-2,-4.673115537E-2,-3.680460155E-2
2.486977892E2,3.634645417E-2,-4.673115537E-2,-3.680460155E-2
2.491977892E2,3.634645417E-2,-4.673115537E-2,-3.680460155E-2
2.496977892E2,3.634645417E-2,-4.673115537E-2,-3.680460155E-2
2.501977892E2,3.634645417E-2,-4.673115537E-2,-3.680460155E-2
2.506977892E2,3.634645417E-2,-4.673115537E-2,-3.680460155E-2
2.511977892E2,3.634645417E-2,-4.673115537E-2,-3.680460155E-2
2.516977892E2,3.634645417E-2,-4.673115537E-2,-3.680460155E-2
2.521977892E2,3.634645417E-2,-4.673115537E-2,-3.680460155E-2
2.526977892E2,3.634645417E-2,-4.673115537E-2,-3.680460155E-2
2.531977892E2,3.634645417E-2,-4.673115537E-2,-3.680460155E-2
2.536977892E2,-2.138026757E-3,3.817904973E-3,6.108647794E-4
2.541977892E2,2.596175298E-3,1.817322709E-2,1.191186346E-2
2.546977892E2,-3.054323897E-4,1.069013379E-3,-5.955931731E-3
2.551977892E2,-1.282816008E-2,3.283398226E-2,-3.481929377E-2
2.556977892E2,2.718348242E-2,3.817904741E-2,-1.296560466E-1
2.561977892E2,-7.788525894E-3,1.508836001E-1,9.972367436E-2
2.566977892E2,2.764163166E-2,5.451968312E-2,-1.313359290E-2
2.571977892E2,8.704823442E-3,-3.909534588E-2,1.450803876E-2
2.576977892E2,3.940077871E-2,7.483093534E-3,6.872228812E-3
2.581977892E2,1.901316643E-1,-2.703076601E-1,-8.246674389E-2
2.586977892E2,6.001746282E-2,-2.519817278E-2,2.474002354E-2
2.591977892E2,4.123337101E-3,-1.603520103E-2,3.268126398E-2
2.596977892E2,-1.832594397E-3,-4.673115537E-2,6.566796452E-3
2.601977892E2,1.227838174E-1,-1.989891976E-1,-1.094975099E-1
2.606977892E2,-1.178968996E-1,1.191186309E-1,1.285870373E-1
2.611977892E2,-1.049160287E-1,3.863719851E-2,-8.078686893E-2
2.616977892E2,-1.563813835E-1,2.163988501E-1,-3.252854943E-2
2.621977892E2,-8.323032409E-2,1.591302752E-1,-4.276053514E-3
2.626977892E2,-1.249218509E-1,1.175914705E-1,7.360920310E-2
2.631977892E2,-7.330377586E-3,-1.954767294E-2,-1.417206228E-1
2.636977892E2,1.084285006E-1,-9.498947114E-2,-1.221729591E-1
2.641977892E2,4.356993139E-1,-5.939132571E-1,-2.364046723E-1
2.646977892E2,6.157516837E-1,-3.952295184E-1,-7.073814273E-1
2.651977892E2,1.443168074E-1,-4.688387364E-2,-2.139553875E-1
2.656977892E2,5.115992576E-2,-6.872228533E-2,4.703658819E-2
2.661977892E2,-7.895427197E-2,1.702785641E-1,-3.008509055E-2
2.666977892E2,-3.207040206E-2,3.970621154E-2,3.466657549E-2
2.671977892E2,-2.069304436E-1,2.597702444E-1,1.724165827E-1
2.676977892E2,-2.136499584E-1,1.893680729E-2,3.698786199E-1
2.681977892E2,1.664606482E-2,-5.833758786E-2,-8.032871783E-2
2.686977892E2,-9.193515033E-2,7.788526267E-2,8.857538924E-3
2.691977892E2,-2.840521187E-2,1.145371422E-2,4.245510325E-2
2.696977892E2,1.069013402E-2,-1.298087649E-2,2.748891525E-2
2.701977892E2,2.061668597E-2,-2.199113183E-2,1.832594397E-3
2.706977892E2,-3.359756200E-3,-1.343902480E-2,3.512472380E-3
2.711977892E2,-6.261364091E-3,-2.290742844E-2,3.649916872E-2
2.716977892E2,1.023198478E-2,-2.275471389E-2,-1.527161949E-4
2.721977892E2,2.962694131E-2,-2.596175298E-3,1.114828233E-2
2.726977892E2,1.679878100E-3,5.115992576E-2,7.330377586E-3
2.731977892E2,8.231402934E-2,-1.088866442E-1,1.015562713E-1
2.736977892E2,1.099556591E-2,-1.053741761E-2,5.910116807E-2
2.741977892E2,7.086031139E-2,-6.062832847E-2,1.908952370E-2
2.746977892E2,-1.114828233E-2,1.542433538E-2,2.657261863E-2
2.751977892E2,4.169152305E-2,-2.947422490E-2,6.261364091E-3
2.756977892E2,2.290742937E-3,1.221729559E-3,4.123337101E-3
2.761977892E2,1.038470119E-2,-2.412915789E-2,-2.138026757E-3
2.766977892E2,-2.764163166E-2,-6.108647794E-4,-2.748891478E-3
2.771977892E2,-5.467239767E-2,1.160643063E-2,5.497782957E-3
2.776977892E2,-5.451968312E-2,8.552107029E-3,4.734201822E-3
2.781977892E2,-1.644753367E-1,8.445205539E-2,1.542433538E-2
2.786977892E2,-4.291325063E-2,1.939495653E-2,-4.734201822E-3
2.791977892E2,1.069013379E-3,-4.123337101E-3,9.926552884E-3
2.796977892E2,1.206457894E-2,-1.802051067E-2,-9.162971983E-4
2.801977892E2,-8.552107029E-3,1.527161920E-3,-6.108647794E-4
2.806977892E2,-3.054323839E-3,5.345067009E-3,-7.483093534E-3
2.811977892E2,-4.276053514E-3,-5.345067009E-3,1.832594397E-3
2.816977892E2,-4.948004708E-2,-5.894844979E-2,1.221729559E-3
2.821977892E2,1.650862098E-1,-3.665188700E-2,5.681042373E-2
2.826977892E2,5.696314201E-2,-5.253437161E-2,5.818486959E-2
2.831977892E2,3.054323897E-4,5.650499091E-2,3.634645417E-2
2.836977892E2,3.054323897E-4,5.650499091E-2,3.634645417E-2
2.841977892E2,3.054323897E-4,5.650499091E-2,3.634645417E-2
2.846977892E2,3.054323897E-4,5.650499091E-2,3.634645417E-2
2.851977892E2,3.054323897E-4,5.650499091E-2,3.634645417E-2
2.856977892E2,3.054323897E-4,5.650499091E-2,3.634645417E-2
2.861977892E2,3.054323897E-4,5.650499091E-2,3.634645417E-2
2.866977892E2,3.054323897E-4,5.650499091E-2,3.634645417E-2
2.871977892E2,3.054323897E-4,5.650499091E-2,3.634645417E-2
2.876977892E2,3.054323897E-4,5.650499091E-2,3.634645417E-2
2.881977892E2,3.054323897E-4,5.650499091E-2,3.634645417E-2
2.886977892E2,3.054323897E-4,5.650499091E-2,3.634645417E-2
2.891977892E2,3.054323897E-4,5.650499091E-2,3.634645417E-2
2.896977892E2,3.054323897E-4,5.650499091E-2,3.634645417E-2
2.901977892E2,3.054323897E-4,5.650499091E-2,3.634645417E-2
2.906977892E2,3.054323897E-4,5.650499091E-2,3.634645417E-2
2.911977892E2,3.054323897E-4,5.650499091E-2,3.634645417E-2
2.916977892E2,3.054323897E-4,5.650499091E-2,3.634645417E-2
2.921977892E2,3.054323897E-4,5.650499091E-2,3.634645417E-2
2.926977892E2,3.054323897E-4,5.650499091E-2,3.634645417E-2
2.931977892E2,3.054323897E-4,5.650499091E-2,3.634645417E-2
2.936977892E2,3.054323897E-4,5.650499091E-2,3.634645417E-2
2.941977892E2,3.054323897E-4,5.650499091E-2,3.634645417E-2
2.946977892E2,3.054323897E-4,5.650499091E-2,3.634645417E-2
2.951977892E2,3.054323897E-4,5.650499091E-2,3.634645417E-2
2.956977892E2,3.054323897E-4,5.650499091E-2,3.634645417E-2
2.961977892E2,3.054323897E-4,5.650499091E-2,3.634645417E-2
2.966977892E2,3.054323897E-4,5.650499091E-2,3.634645417E-2
2.971977892E2,3.054323897E-4,5.650499091E-2,3.634645417E-2
2.976977892E2,3.054323897E-4,5.650499091E-2,3.634645417E-2
2.981977892E2,3.054323897E-4,5.650499091E-2,3.634645417E-2
2.986977892E2,3.054323897E-4,5.650499091E-2,3.634645417E-2
2.991977892E2,3.054323897E-4,5.650499091E-2,3.634645417E-2
2.996977892E2,3.054323897E-4,5.650499091E-2,3.634645417E-2
3.001977892E2,3.054323897E-4,5.650499091E-2,3.634645417E-2
3.006977892E2,3.054323897E-4,5.650499091E-2,3.634645417E-2
3.011977892E2,3.054323897E-4,5.650499091E-2,3.634645417E-2
3.016977892E2,3.054323897E-4,5.650499091E-2,3.634645417E-2
3.021977892E2,3.054323897E-4,5.650499091E-2,3.634645417E-2
3.026977892E2,3.054323897E-4,5.650499091E-2,3.634645417E-2
3.031977892E2,3.054323897E-4,5.650499091E-2,3.634645417E-2
3.036977892E2,3.054323897E-4,5.650499091E-2,3.634645417E-2
3.041977892E2,3.054323897E-4,5.650499091E-2,3.634645417E-2
3.046977892E2,3.054323897E-4,5.650499091E-2,3.634645417E-2
3.051977892E2,3.054323897E-4,5.650499091E-2,3.634645417E-2
3.056977892E2,3.054323897E-4,5.650499091E-2,3.634645417E-2
3.061977892E2,3.054323897E-4,5.650499091E-2,3.634645417E-2
3.066977892E2,3.054323897E-4,5.650499091E-2,3.634645417E-2
3.071977892E2,3.054323897E-4,5.650499091E-2,3.634645417E-2
3.076977892E2,3.054323897E-4,5.650499091E-2,3.634645417E-2
3.081977892E2,3.054323897E-4,5.650499091E-2,3.634645417E-2
3.086977892E2,3.054323897E-4,5.650499091E-2,3.634645417E-2
3.091977892E2,3.054323897E-4,5.650499091E-2,3.634645417E-2
3.096977892E2,3.054323897E-4,5.650499091E-2,3.634645417E-2
3.101977892E2,3.054323897E-4,5.650499091E-2,3.634645417E-2
3.106977892E2,3.054323897E-4,5.650499091E-2,3.634645417E-2
3.111977892E2,3.054323897E-4,5.650499091E-2,3.634645417E-2
3.116977892E2,3.054323897E-4,5.650499091E-2,3.634645417E-2
3.121977892E2,3.054323897E-4,5.650499091E-2,3.634645417E-2
3.126977892E2,3.054323897E-4,5.650499091E-2,3.634645417E-2
3.131977892E2,3.054323897E-4,5.650499091E-2,3.634645417E-2
3.136977892E2,3.054323897E-4,5.650499091E-2,3.634645417E-2
3.141977892E2,3.054323897E-4,5.650499091E-2,3.634645417E-2
3.146977892E2,6.887500733E-2,-4.367683083E-2,-6.001746282E-2
3.151977892E2,-5.253437161E-2,-5.757400393E-2,4.764745384E-2
3.156977892E2,8.078686893E-2,-7.544180006E-2,-1.047633067E-1
3.161977892E2,-9.972367436E-2,1.699731201E-1,3.588830680E-2
3.166977892E2,1.466075517E-2,5.345066637E-2,8.552107029E-3
3.171977892E2,1.162170246E-1,-1.452330947E-1,-1.493564397E-1
3.176977892E2,-1.811214089E-1,-1.408043355E-1,2.487746775E-1
3.181977892E2,-8.552107029E-3,-1.227838174E-1,7.880155742E-2
3.186977892E2,3.543015569E-2,-3.375028074E-2,-1.572976820E-2
3.191977892E2,-9.804379940E-2,1.114828214E-1,5.100720748E-2
3.196977892E2,2.046396956E-2,-4.428769648E-2,-8.811724186E-2
3.201977892E2,9.468403645E-3,2.443459071E-2,5.024362728E-2
3.206977892E2,-1.114828233E-2,-1.328630932E-2,-7.040216774E-2
3.211977892E2,-1.572976820E-2,7.452550530E-2,1.178968996E-1
3.216977892E2,-6.566796452E-3,1.038470119E-2,-1.053741761E-2
3.221977892E2,-1.099556591E-2,5.925388262E-2,2.122755162E-2
3.226977892E2,-1.221729559E-3,1.160643063E-2,-6.566796452E-3
3.231977892E2,-1.740964688E-2,2.290742937E-3,-4.993819445E-2
3.236977892E2,-4.902189970E-2,7.330377400E-2,7.544180006E-2
3.241977892E2,2.977965772E-2,-3.405570984E-2,1.832594350E-2
3.246977892E2,-1.221729536E-2,6.704241037E-2,5.238165334E-2
3.251977892E2,7.024944760E-3,-1.084284950E-2,-2.993237413E-2
3.256977892E2,-7.941242307E-3,2.412915789E-2,3.359756200E-3
3.261977892E2,-1.252272818E-2,3.756818548E-2,4.886918236E-3
3.266977892E2,-2.764163166E-2,5.742128938E-2,7.024944760E-3
3.271977892E2,-2.336557768E-2,5.711585656E-2,3.833176568E-2
3.276977892E2,-4.123337194E-2,5.650499091E-2,-1.420260593E-2
3.281977892E2,-8.857538924E-3,2.443459071E-2,2.916879393E-2
3.286977892E2,1.389717404E-2,3.298669681E-2,3.390299529E-2
3.291977892E2,-1.374445739E-3,6.719512492E-2,4.627300799E-2
3.296977892E2,7.635809598E-4,3.782780170E-1,-3.161225095E-2
3.301977892E2,1.679878123E-2,1.357647032E-1,-1.328630932E-2
3.306977892E2,8.246674202E-3,-1.298087649E-2,-2.871064469E-2
3.311977892E2,-1.145371422E-2,2.947422490E-2,-1.221729559E-3
3.316977892E2,-8.704823442E-3,2.367101051E-2,3.039052337E-2
3.321977892E2,-1.252272818E-2,1.160643063E-2,-2.977965772E-2
3.326977892E2,-1.130099874E-2,1.817322709E-2,-1.924224012E-2
3.331977892E2,-2.321286127E-2,2.657261863E-2,-1.527161949E-4
3.336977892E2,-3.329212964E-2,2.244928107E-2,-3.436114267E-2
3.341977892E2,5.345067009E-3,1.313359290E-2,4.276053514E-3
3.346977892E2,1.832594350E-2,-3.481929377E-2,-6.719512399E-3
3.351977892E2,9.773836471E-3,-3.741546720E-2,-2.336557768E-2
3.356977892E2,1.542433538E-2,-4.917461425E-2,-5.574141070E-2
3.361977892E2,-1.740964688E-2,8.704823442E-3,3.420842811E-2
3.366977892E2,1.588248461E-2,-1.893680729E-2,-5.742128938E-2
3.371977892E2,3.390299529E-2,-5.528326333E-2,-5.115992576E-2
3.376977892E2,-2.061668597E-2,5.497782957E-3,9.162971750E-3
3.381977892E2,3.802633286E-2,-5.467239767E-2,-1.649334840E-2
3.386977892E2,3.497200832E-2,-5.054906011E-2,-8.582650125E-2
3.391977892E2,1.511890348E-2,-6.108647678E-3,7.773254067E-2
3.396977892E2,3.817904741E-2,-2.947422490E-2,-3.039052337E-2
3.401977892E2,1.145371422E-2,2.428187430E-2,9.010255337E-3
3.406977892E2,2.138026757E-3,5.039634649E-3,3.054323839E-3
3.411977892E2,-0.000000000E0,3.359756200E-3,4.871646687E-2
3.416977892E2,2.031125315E-2,-1.389717404E-2,-1.374445739E-3
3.421977892E2,2.794706449E-2,-2.901607752E-2,6.261364091E-3
3.426977892E2,1.130099874E-2,-1.679878100E-3,2.901607752E-2
3.431977892E2,-2.122755162E-2,3.527744114E-2,9.773836471E-3
3.436977892E2,2.901607659E-3,-3.207040019E-3,-3.359756200E-3
3.441977892E2,2.901607659E-3,-3.207040019E-3,-3.359756200E-3
3.446977892E2,2.901607659E-3,-3.207040019E-3,-3.359756200E-3
3.451977892E2,2.901607659E-3,-3.207040019E-3,-3.359756200E-3
3.456977892E2,2.901607659E-3,-3.207040019E-3,-3.359756200E-3
3.461977892E2,2.901607659E-3,-3.207040019E-3,-3.359756200E-3
3.466977892E2,2.901607659E-3,-3.207040019E-3,-3.359756200E-3
3.471977892E2,2.901607659E-3,-3.207040019E-3,-3.359756200E-3
3.476977892E2,2.901607659E-3,-3.207040019E-3,-3.359756200E-3
3.481977892E2,2.901607659E-3,-3.207040019E-3,-3.359756200E-3
3.486977892E2,2.901607659E-3,-3.207040019E-3,-3.359756200E-3
3.491977892E2,2.901607659E-3,-3.207040019E-3,-3.359756200E-3
3.496977892E2,2.901607659E-3,-3.207040019E-3,-3.359756200E-3
3.501977892E2,2.901607659E-3,-3.207040019E-3,-3.359756200E-3
3.506977892E2,2.901607659E-3,-3.207040019E-3,-3.359756200E-3
3.511977892E2,2.901607659E-3,-3.207040019E-3,-3.359756200E-3
3.516977892E2,2.901607659E-3,-3.207040019E-3,-3.359756200E-3
3.521977892E2,2.901607659E-3,-3.207040019E-3,-3.359756200E-3
3.526977892E2,2.901607659E-3,-3.207040019E-3,-3.359756200E-3
3.531977892E2,2.901607659E-3,-3.207040019E-3,-3.359756200E-3
3.536977892E2,2.901607659E-3,-3.207040019E-3,-3.359756200E-3
3.541977892E2,2.901607659E-3,-3.207040019E-3,-3.359756200E-3
3.546977892E2,2.901607659E-3,-3.207040019E-3,-3.359756200E-3
3.551977892E2,2.901607659E-3,-3.207040019E-3,-3.359756200E-3
3.556977892E2,2.901607659E-3,-3.207040019E-3,-3.359756200E-3
3.561977892E2,2.901607659E-3,-3.207040019E-3,-3.359756200E-3
3.566977892E2,2.901607659E-3,-3.207040019E-3,-3.359756200E-3
3.571977892E2,2.901607659E-3,-3.207040019E-3,-3.359756200E-3
3.576977892E2,2.901607659E-3,-3.207040019E-3,-3.359756200E-3
3.581977892E2,2.901607659E-3,-3.207040019E-3,-3.359756200E-3
3.586977892E2,2.901607659E-3,-3.207040019E-3,-3.359756200E-3
3.591977892E2,2.901607659E-3,-3.207040019E-3,-3.359756200E-3
3.596977892E2,2.901607659E-3,-3.207040019E-3,-3.359756200E-3
3.601977892E2,2.901607659E-3,-3.207040019E-3,-3.359756200E-3
3.606977892E2,2.901607659E-3,-3.207040019E-3,-3.359756200E-3
3.611977892E2,2.901607659E-3,-3.207040019E-3,-3.359756200E-3
3.616977892E2,2.901607659E-3,-3.207040019E-3,-3.359756200E-3
3.621977892E2,2.901607659E-3,-3.207040019E-3,-3.359756200E-3
3.626977892E2,2.901607659E-3,-3.207040019E-3,-3.359756200E-3
3.631977892E2,2.901607659E-3,-3.207040019E-3,-3.359756200E-3
3.636977892E2,2.901607659E-3,-3.207040019E-3,-3.359756200E-3
3.641977892E2,2.901607659E-3,-3.207040019E-3,-3.359756200E-3
3.646977892E2,2.901607659E-3,-3.207040019E-3,-3.359756200E-3
3.651977892E2,2.901607659E-3,-3.207040019E-3,-3.359756200E-3
3.656977892E2,2.901607659E-3,-3.207040019E-3,-3.359756200E-3
3.661977892E2,2.901607659E-3,-3.207040019E-3,-3.359756200E-3
3.666977892E2,2.901607659E-3,-3.207040019E-3,-3.359756200E-3
3.671977892E2,2.901607659E-3,-3.207040019E-3,-3.359756200E-3
3.676977892E2,2.901607659E-3,-3.207040019E-3,-3.359756200E-3
3.681977892E2,2.901607659E-3,-3.207040019E-3,-3.359756200E-3
3.686977892E2,2.901607659E-3,-3.207040019E-3,-3.359756200E-3
3.691977892E2,2.901607659E-3,-3.207040019E-3,-3.359756200E-3
3.696977892E2,2.901607659E-3,-3.207040019E-3,-3.359756200E-3
3.701977892E2,2.901607659E-3,-3.207040019E-3,-3.359756200E-3
3.706977892E2,2.901607659E-3,-3.207040019E-3,-3.359756200E-3
3.711977892E2,2.901607659E-3,-3.207040019E-3,-3.359756200E-3
3.716977892E2,2.901607659E-3,-3.207040019E-3,-3.359756200E-3
3.721977892E2,2.901607659E-3,-3.207040019E-3,-3.359756200E-3
3.726977892E2,2.901607659E-3,-3.207040019E-3,-3.359756200E-3
3.731977892E2,2.901607659E-3,-3.207040019E-3,-3.359756200E-3
3.736977892E2,2.901607659E-3,-3.207040019E-3,-3.359756200E-3
3.741977892E2,2.901607659E-3,-3.207040019E-3,-3.359756200E-3
3.746977892E2,2.901607659E-3,-3.207040019E-3,-3.359756200E-3
3.751977892E2,-9.621120058E-3,-2.764163166E-2,-2.580903657E-2
3.756977892E2,6.108647678E-3,2.061668597E-2,8.857538924E-3
3.761977892E2,-7.635809947E-3,1.863137633E-2,3.817904973E-3
3.766977892E2,3.115410358E-2,-5.161807314E-2,1.588248461E-2
3.771977892E2,-1.771507785E-2,2.947422490E-2,-5.955931731E-3
3.776977892E2,-3.512472659E-2,4.459312931E-2,1.191186346E-2
3.781977892E2,4.764745384E-2,-8.582650125E-2,1.328630932E-2
3.786977892E2,1.557705179E-2,-1.099556591E-2,-3.711003438E-2
3.791977892E2,-8.246674202E-3,1.206457894E-2,-1.343902480E-2
3.796977892E2,-7.483093534E-3,1.771507785E-2,-1.679878123E-2
3.801977892E2,-1.954767294E-2,3.451386094E-2,9.621120058E-3
3.806977892E2,1.664606482E-2,-3.237583488E-2,-9.621120058E-3
3.811977892E2,-2.748891478E-3,-1.328630932E-2,2.855792828E-2
3.816977892E2,-1.237001177E-2,5.482511222E-2,-1.267544460E-2
3.821977892E2,-1.511890348E-2,3.344484791E-2,-6.719512399E-3
3.826977892E2,1.069013379E-3,-3.970621154E-3,3.512472380E-3
3.831977892E2,-5.192350596E-3,7.330377586E-3,1.282816008E-2
3.836977892E2,5.039634649E-3,-1.053741761E-2,-5.192350596E-3
3.841977892E2,-3.817904973E-3,5.955931731E-3,-4.734201822E-3
3.846977892E2,-2.504545636E-2,2.199113183E-2,1.038470119E-2
3.851977892E2,-9.162971983E-4,-4.734201822E-3,9.010255337E-3
3.856977892E2,3.207040019E-3,-1.053741761E-2,5.192350596E-3
3.861977892E2,2.748891478E-3,-5.803215317E-3,-1.527161949E-4
3.866977892E2,-6.108647678E-3,1.481347065E-2,3.359756200E-3
3.871977892E2,4.581485991E-4,-9.926552884E-3,-1.420260593E-2
3.876977892E2,-1.740964688E-2,1.893680729E-2,1.099556591E-2
3.881977892E2,-6.108647678E-3,5.192350596E-3,3.054323897E-4
3.886977892E2,-1.817322709E-2,2.306014486E-2,3.054323897E-4
3.891977892E2,-5.039634649E-3,-1.221729536E-2,-1.389717404E-2
3.896977892E2,-3.512472380E-3,-1.740964688E-2,2.550360374E-2
3.901977892E2,-1.053741761E-2,3.940077871E-2,1.817322709E-2
3.906977892E2,6.872228812E-3,-1.695149764E-2,-1.527161920E-3
3.911977892E2,1.832594397E-3,9.010255337E-3,2.290742937E-3
3.916977892E2,8.552107029E-3,-2.046396956E-2,2.290742937E-3
3.921977892E2,-1.267544460E-2,2.321286127E-2,3.817904973E-3
3.926977892E2,-3.970621154E-3,6.108647794E-4,1.679878100E-3
3.931977892E2,-9.162971983E-4,2.290742937E-3,1.679878100E-3
3.936977892E2,-3.359756200E-3,2.428187430E-2,2.825249545E-2
3.941977892E2,4.108065739E-2,-1.149952933E-1,-3.100138716E-2
3.946977892E2,-2.153298259E-2,4.825831577E-2,2.901607752E-2
3.951977892E2,-1.359174121E-2,-1.722638607E-1,6.673697382E-2
3.956977892E2,-2.199113183E-2,7.131846249E-2,-1.343902480E-2
3.961977892E2,-1.053741723E-1,7.925970852E-2,4.169152305E-2
3.966977892E2,7.513637096E-2,1.023198478E-2,-2.412915789E-2
3.971977892E2,1.131627038E-1,-2.238819450E-1,-1.059850380E-1
3.976977892E2,-1.023198478E-2,1.591302752E-1,5.222893879E-2
3.981977892E2,-6.337722391E-2,3.604102135E-2,4.581485991E-4
3.986977892E2,-1.542433538E-2,1.843284518E-1,5.360338464E-2
3.991977892E2,-4.276053607E-2,4.917461425E-2,-5.833758786E-2
3.996977892E2,9.315688163E-3,5.497782957E-3,4.963276163E-2
4.001977892E2,-1.847865991E-2,-7.788525894E-3,-1.420260593E-2
4.006977892E2,-3.512472380E-3,1.084284950E-2,5.650499370E-3
4.011977892E2,0.000000000E0,1.114828233E-2,-1.679878100E-3
4.016977892E2,4.886918236E-3,-9.773836471E-3,-6.261364091E-3
4.021977892E2,-1.328630932E-2,1.939495653E-2,9.621120058E-3
4.026977892E2,1.069013379E-3,6.108647794E-4,-4.886918236E-3
4.031977892E2,2.901607659E-3,-3.054323839E-3,-3.665188793E-3
4.036977892E2,2.550360374E-2,-3.313941509E-2,-3.054323897E-4
4.041977892E2,-9.162971983E-4,-1.053741761E-2,-6.566796452E-3
4.046977892E2,-3.970621154E-3,1.252272818E-2,8.246674202E-3
4.051977892E2,-9.926552884E-3,1.985310577E-3,9.162971983E-4
4.056977892E2,-9.926552884E-3,1.985310577E-3,9.162971983E-4
4.061977892E2,-9.926552884E-3,1.985310577E-3,9.162971983E-4
4.066977892E2,-9.926552884E-3,1.985310577E-3,9.162971983E-4
4.071977892E2,-9.926552884E-3,1.985310577E-3,9.162971983E-4
4.076977892E2,-9.926552884E-3,1.985310577E-3,9.162971983E-4
4.081977892E2,-9.926552884E-3,1.985310577E-3,9.162971983E-4
4.086977892E2,-9.926552884E-3,1.985310577E-3,9.162971983E-4
4.091977892E2,-9.926552884E-3,1.985310577E-3,9.162971983E-4
4.096977892E2,-9.926552884E-3,1.985310577E-3,9.162971983E-4
4.101977892E2,-9.926552884E-3,1.985310577E-3,9.162971983E-4
4.106977892E2,-9.926552884E-3,1.985310577E-3,9.162971983E-4
4.111977892E2,-9.926552884E-3,1.985310577E-3,9.162971983E-4
4.116977892E2,-9.926552884E-3,1.985310577E-3,9.162971983E-4
4.121977892E2,-9.926552884E-3,1.985310577E-3,9.162971983E-4
4.126977892E2,-9.926552884E-3,1.985310577E-3,9.162971983E-4
4.131977892E2,-9.926552884E-3,1.985310577E-3,9.162971983E-4
4.136977892E2,-9.926552884E-3,1.985310577E-3,9.162971983E-4
4.141977892E2,-9.926552884E-3,1.985310577E-3,9.162971983E-4
4.146977892E2,-9.926552884E-3,1.985310577E-3,9.162971983E-4
4.151977892E2,-9.926552884E-3,1.985310577E-3,9.162971983E-4
4.156977892E2,-9.926552884E-3,1.985310577E-3,9.162971983E-4
4.161977892E2,-9.926552884E-3,1.985310577E-3,9.162971983E-4
4.166977892E2,-9.926552884E-3,1.985310577E-3,9.162971983E-4
4.171977892E2,-9.926552884E-3,1.985310577E-3,9.162971983E-4
4.176977892E2,-9.926552884E-3,1.985310577E-3,9.162971983E-4
4.181977892E2,-9.926552884E-3,1.985310577E-3,9.162971983E-4
4.186977892E2,-9.926552884E-3,1.985310577E-3,9.162971983E-4
4.191977892E2,-9.926552884E-3,1.985310577E-3,9.162971983E-4
4.196977892E2,-9.926552884E-3,1.985310577E-3,9.162971983E-4
4.201977892E2,-9.926552884E-3,1.985310577E-3,9.162971983E-4
4.206977892E2,-9.926552884E-3,1.985310577E-3,9.162971983E-4
4.211977892E2,-9.926552884E-3,1.985310577E-3,9.162971983E-4
4.216977892E2,-9.926552884E-3,1.985310577E-3,9.162971983E-4
4.221977892E2,-9.926552884E-3,1.985310577E-3,9.162971983E-4
4.226977892E2,-9.926552884E-3,1.985310577E-3,9.162971983E-4
4.231977892E2,-9.926552884E-3,1.985310577E-3,9.162971983E-4
4.236977892E2,-9.926552884E-3,1.985310577E-3,9.162971983E-4
4.241977892E2,-9.926552884E-3,1.985310577E-3,9.162971983E-4
4.246977892E2,-9.926552884E-3,1.985310577E-3,9.162971983E-4
4.251977892E2,-9.926552884E-3,1.985310577E-3,9.162971983E-4
4.256977892E2,-9.926552884E-3,1.985310577E-3,9.162971983E-4
4.261977892E2,-9.926552884E-3,1.985310577E-3,9.162971983E-4
4.266977892E2,-9.926552884E-3,1.985310577E-3,9.162971983E-4
4.271977892E2,-9.926552884E-3,1.985310577E-3,9.162971983E-4
4.276977892E2,-9.926552884E-3,1.985310577E-3,9.162971983E-4
4.281977892E2,-9.926552884E-3,1.985310577E-3,9.162971983E-4
4.286977892E2,-9.926552884E-3,1.985310577E-3,9.162971983E-4
4.291977892E2,-9.926552884E-3,1.985310577E-3,9.162971983E-4
4.296977892E2,-9.926552884E-3,1.985310577E-3,9.162971983E-4
4.301977892E2,-9.926552884E-3,1.985310577E-3,9.162971983E-4
4.306977892E2,-9.926552884E-3,1.985310577E-3,9.162971983E-4
4.311977892E2,-9.926552884E-3,1.985310577E-3,9.162971983E-4
4.316977892E2,-9.926552884E-3,1.985310577E-3,9.162971983E-4
4.321977892E2,-9.926552884E-3,1.985310577E-3,9.162971983E-4
4.326977892E2,-9.926552884E-3,1.985310577E-3,9.162971983E-4
4.331977892E2,-9.926552884E-3,1.985310577E-3,9.162971983E-4
4.336977892E2,-9.926552884E-3,1.985310577E-3,9.162971983E-4
4.341977892E2,-9.926552884E-3,1.985310577E-3,9.162971983E-4
4.346977892E2,-9.926552884E-3,1.985310577E-3,9.162971983E-4
4.351977892E2,-9.926552884E-3,1.985310577E-3,9.162971983E-4
4.356977892E2,-9.926552884E-3,1.985310577E-3,9.162971983E-4
4.361977892E2,4.764745384E-2,-4.062250629E-2,-4.932733253E-2
4.366977892E2,-5.039634649E-3,-5.894844979E-2,-1.725693047E-2
4.371977892E2,4.810560122E-2,-7.254019380E-2,-2.214384824E-2
4.376977892E2,6.566796452E-3,-6.963858753E-2,-7.177661173E-3
4.381977892E2,7.238747925E-2,-1.041524485E-1,-3.298669681E-2
4.386977892E2,-1.985310577E-3,-1.542433538E-2,2.748891478E-3
4.391977892E2,2.153298259E-2,-2.580903657E-2,2.290742937E-3
4.396977892E2,4.337139800E-2,-9.529490769E-2,-2.901607659E-3
4.401977892E2,4.398226365E-2,-4.673115537E-2,-2.076940238E-2
4.406977892E2,3.619373962E-2,-7.987056673E-2,9.010255337E-3
4.411977892E2,1.435532235E-2,-2.076940238E-2,3.069595434E-2
4.416977892E2,2.367101051E-2,-3.924806044E-2,-4.062250629E-2
4.421977892E2,-1.847865991E-2,4.535670951E-2,4.169152305E-2
4.426977892E2,1.802051067E-2,-3.436114267E-2,1.374445739E-3
4.431977892E2,2.596175298E-3,1.160643063E-2,2.428187430E-2
4.436977892E2,4.337139800E-2,-7.391463965E-2,-2.412915789E-2
4.441977892E2,2.474002354E-2,-2.428187430E-2,-1.511890348E-2
4.446977892E2,-2.076940238E-2,3.100138716E-2,3.711003438E-2
4.451977892E2,3.420842811E-2,-3.481929377E-2,-1.985310577E-3
4.456977892E2,-3.252854943E-2,5.070177838E-2,2.199113183E-2
4.461977892E2,-7.635809598E-4,4.306596518E-2,9.773836471E-3
4.466977892E2,-2.779434808E-2,4.062250629E-2,9.162971983E-4
4.471977892E2,-1.221729559E-3,6.215549260E-2,3.787361458E-2
4.476977892E2,7.635809947E-3,1.404988952E-2,1.527161949E-4
4.481977892E2,4.276053514E-3,5.009091273E-2,3.054323897E-4
4.486977892E2,-4.550942779E-2,9.147699922E-2,-4.810560122E-2
4.491977892E2,-9.926552884E-3,3.359756246E-2,2.138026804E-2
4.496977892E2,-5.039634556E-2,8.139773458E-2,6.398808211E-2
4.501977892E2,-9.162971983E-4,3.604102135E-2,-2.916879393E-2
4.506977892E2,-8.032871783E-2,1.592829973E-1,3.817904741E-2
4.511977892E2,-2.244928107E-2,5.543597788E-2,1.527161949E-4
4.516977892E2,-1.924224012E-2,5.589412898E-2,2.412915789E-2
4.521977892E2,1.908952370E-2,-1.099556591E-2,4.428769462E-3
4.526977892E2,-2.199113183E-2,4.337139800E-2,7.024944760E-3
4.531977892E2,1.710421406E-2,-1.053741761E-2,-2.657261863E-2
4.536977892E2,-6.673697382E-2,1.440113783E-1,1.084284950E-2
4.541977892E2,-6.261364091E-3,2.596175298E-2,-1.817322709E-2
4.546977892E2,-8.552107029E-3,5.757400393E-2,1.084284950E-2
4.551977892E2,-6.261364091E-3,5.039634649E-3,-2.061668597E-2
4.556977892E2,-6.185005978E-2,8.857539296E-2,-2.443459118E-3
4.561977892E2,-2.474002354E-2,4.596757516E-2,-2.351829410E-2
4.566977892E2,-4.963276163E-2,5.589412898E-2,2.794706449E-2
4.571977892E2,7.880155742E-2,-8.704823256E-2,-3.802633286E-2
4.576977892E2,-3.543015569E-2,4.718930274E-2,1.618791744E-2
4.581977892E2,2.214384824E-2,-4.367683083E-2,-6.246092543E-2
4.586977892E2,-8.323032409E-2,1.511890292E-1,1.038470119E-2
4.591977892E2,-6.429351866E-2,-3.344484791E-2,1.435532235E-2
4.596977892E2,1.374445762E-2,6.154462695E-2,-4.428769648E-2
4.601977892E2,2.672533318E-2,-3.817904973E-3,-1.267544460E-2
4.606977892E2,4.123337101E-3,1.069013379E-3,1.206457894E-2
4.611977892E2,4.123337101E-3,3.359756200E-3,4.886918236E-3
4.616977892E2,3.054323897E-4,-2.122755162E-2,-0.000000000E0
4.621977892E2,2.886336111E-2,-5.772672221E-2,-3.359756200E-3
4.626977892E2,-5.497782957E-3,9.468403645E-3,2.901607752E-2
4.631977892E2,1.970038936E-2,-2.886336111E-2,-1.343902480E-2
4.636977892E2,-9.162971983E-4,-6.719512399E-3,7.330377586E-3
4.641977892E2,-2.336557768E-2,6.368265301E-2,1.847865991E-2
4.646977892E2,1.466075517E-2,-6.902772188E-2,-5.604684353E-2
4.651977892E2,-2.351829410E-2,8.139773458E-2,6.108647957E-2
4.656977892E2,2.825249545E-2,-5.833758786E-2,-4.520399496E-2
4.661977892E2,-1.099556591E-2,2.611446939E-2,2.443459071E-2
4.666977892E2,-1.099556591E-2,2.611446939E-2,2.443459071E-2
4.671977892E2,-1.099556591E-2,2.611446939E-2,2.443459071E-2
4.676977892E2,-1.099556591E-2,2.611446939E-2,2.443459071E-2
4.681977892E2,-1.099556591E-2,2.611446939E-2,2.443459071E-2
4.686977892E2,-1.099556591E-2,2.611446939E-2,2.443459071E-2
4.691977892E2,-1.099556591E-2,2.611446939E-2,2.443459071E-2
4.696977892E2,-1.099556591E-2,2.611446939E-2,2.443459071E-2
4.701977892E2,-1.099556591E-2,2.611446939E-2,2.443459071E-2
4.706977892E2,-1.099556591E-2,2.611446939E-2,2.443459071E-2
4.711977892E2,-1.099556591E-2,2.611446939E-2,2.443459071E-2
4.716977892E2,-1.099556591E-2,2.611446939E-2,2.443459071E-2
4.721977892E2,-1.099556591E-2,2.611446939E-2,2.443459071E-2
4.726977892E2,-1.099556591E-2,2.611446939E-2,2.443459071E-2
4.731977892E2,-1.099556591E-2,2.611446939E-2,2.443459071E-2
4.736977892E2,-1.099556591E-2,2.611446939E-2,2.443459071E-2
4.741977892E2,-1.099556591E-2,2.611446939E-2,2.443459071E-2
4.746977892E2,-1.099556591E-2,2.611446939E-2,2.443459071E-2
4.751977892E2,-1.099556591E-2,2.611446939E-2,2.443459071E-2
4.756977892E2,-1.099556591E-2,2.611446939E-2,2.443459071E-2
4.761977892E2,-1.099556591E-2,2.611446939E-2,2.443459071E-2
4.766977892E2,-1.099556591E-2,2.611446939E-2,2.443459071E-2
4.771977892E2,-1.099556591E-2,2.611446939E-2,2.443459071E-2
4.776977892E2,-1.099556591E-2,2.611446939E-2,2.443459071E-2
4.781977892E2,-1.099556591E-2,2.611446939E-2,2.443459071E-2
4.786977892E2,-1.099556591E-2,2.611446939E-2,2.443459071E-2
4.791977892E2,-1.099556591E-2,2.611446939E-2,2.443459071E-2
4.796977892E2,-1.099556591E-2,2.611446939E-2,2.443459071E-2
4.801977892E2,-1.099556591E-2,2.611446939E-2,2.443459071E-2
4.806977892E2,-1.099556591E-2,2.611446939E-2,2.443459071E-2
4.811977892E2,-1.099556591E-2,2.611446939E-2,2.443459071E-2
4.816977892E2,-1.099556591E-2,2.611446939E-2,2.443459071E-2
4.821977892E2,-1.099556591E-2,2.611446939E-2,2.443459071E-2
4.826977892E2,-1.099556591E-2,2.611446939E-2,2.443459071E-2
4.831977892E2,-1.099556591E-2,2.611446939E-2,2.443459071E-2
4.836977892E2,-1.099556591E-2,2.611446939E-2,2.443459071E-2
4.841977892E2,-1.099556591E-2,2.611446939E-2,2.443459071E-2
4.846977892E2,-1.099556591E-2,2.611446939E-2,2.443459071E-2
4.851977892E2,-1.099556591E-2,2.611446939E-2,2.443459071E-2
4.856977892E2,-1.099556591E-2,2.611446939E-2,2.443459071E-2
4.861977892E2,-1.099556591E-2,2.611446939E-2,2.443459071E-2
4.866977892E2,-1.099556591E-2,2.611446939E-2,2.443459071E-2
4.871977892E2,-1.099556591E-2,2.611446939E-2,2.443459071E-2
4.876977892E2,-1.099556591E-2,2.611446939E-2,2.443459071E-2
4.881977892E2,-1.099556591E-2,2.611446939E-2,2.443459071E-2
4.886977892E2,-1.099556591E-2,2.611446939E-2,2.443459071E-2
4.891977892E2,-1.099556591E-2,2.611446939E-2,2.443459071E-2
4.896977892E2,-1.099556591E-2,2.611446939E-2,2.443459071E-2
4.901977892E2,-1.099556591E-2,2.611446939E-2,2.443459071E-2
4.906977892E2,-1.099556591E-2,2.611446939E-2,2.443459071E-2
4.911977892E2,-1.099556591E-2,2.611446939E-2,2.443459071E-2
4.916977892E2,-1.099556591E-2,2.611446939E-2,2.443459071E-2
4.921977892E2,-1.099556591E-2,2.611446939E-2,2.443459071E-2
4.926977892E2,-1.099556591E-2,2.611446939E-2,2.443459071E-2
4.931977892E2,-1.099556591E-2,2.611446939E-2,2.443459071E-2
4.936977892E2,-1.099556591E-2,2.611446939E-2,2.443459071E-2
4.941977892E2,-1.099556591E-2,2.611446939E-2,2.443459071E-2
4.946977892E2,-1.099556591E-2,2.611446939E-2,2.443459071E-2
4.951977892E2,-1.099556591E-2,2.611446939E-2,2.443459071E-2
4.956977892E2,-1.099556591E-2,2.611446939E-2,2.443459071E-2
4.961977892E2,-1.099556591E-2,2.611446939E-2,2.443459071E-2
4.966977892E2,-1.099556591E-2,2.611446939E-2,2.443459071E-2
4.971977892E2,1.588248461E-2,2.046396956E-2,-5.345067009E-3
4.976977892E2,7.941242307E-3,-1.771507785E-2,-2.886336111E-2
4.981977892E2,-8.093958721E-3,1.939495653E-2,2.672533318E-2
4.986977892E2,3.772090003E-2,-4.214967042E-2,-1.160643063E-2
4.991977892E2,-4.382954910E-2,4.306596518E-2,2.168569900E-2
4.996977892E2,-2.901607659E-3,-1.404988952E-2,-3.130681813E-2
5.001977892E2,3.512472380E-3,3.375028074E-2,3.145953640E-2
5.006977892E2,1.145371422E-2,-2.748891525E-2,-3.420842811E-2
5.011977892E2,-1.572976820E-2,1.939495653E-2,3.466657549E-2
5.016977892E2,-3.054323839E-3,3.970621154E-3,-6.872228812E-3
5.021977892E2,-6.979130208E-2,6.276635826E-2,1.343902480E-2
5.026977892E2,-1.740964688E-2,3.283398226E-2,3.970621154E-3
5.031977892E2,-4.444041103E-2,7.101303339E-2,5.833758786E-2
5.036977892E2,2.229656465E-2,-3.100138716E-2,-4.199695215E-2
5.041977892E2,-3.512472380E-3,-3.680460155E-2,2.748891478E-3
5.046977892E2,5.558869615E-2,-6.307178736E-2,-3.329212964E-2
5.051977892E2,-3.558287397E-2,5.849030241E-2,2.214384824E-2
5.056977892E2,1.740964688E-2,-6.826414168E-2,-3.008509055E-2
5.061977892E2,-2.367101051E-2,4.642572254E-2,3.817904973E-3
5.066977892E2,-8.689551800E-2,1.209512278E-1,2.092211880E-2
5.071977892E2,9.010255337E-3,-3.130681813E-2,1.435532235E-2
5.076977892E2,2.443459118E-3,-4.734202102E-2,-1.557705179E-2
5.081977892E2,-2.794706449E-2,4.505127668E-2,1.069013379E-3
5.086977892E2,-3.268126398E-2,2.825249545E-2,-2.779434808E-2
5.091977892E2,3.344484791E-2,-6.139190868E-2,1.450803876E-2
5.096977892E2,-4.123337101E-3,2.779434808E-2,8.857538924E-3
5.101977892E2,-3.084867075E-2,3.344484791E-2,-4.581485875E-3
5.106977892E2,2.168569900E-2,-3.344484791E-2,-4.886918236E-3
5.111977892E2,1.603520103E-2,-1.206457894E-2,-7.788525894E-3
5.116977892E2,3.054323839E-3,-9.162971750E-3,-2.443459118E-3
5.121977892E2,2.474002354E-2,-2.122755162E-2,-5.345067009E-3
5.126977892E2,2.748891478E-3,-6.872228812E-3,5.039634649E-3
5.131977892E2,2.596175298E-2,-2.764163166E-2,-7.788525894E-3
5.136977892E2,-3.817904973E-3,6.459894776E-2,-2.703076601E-2
5.141977892E2,5.681042373E-2,-5.619955808E-2,-4.734201822E-3
5.146977892E2,4.581485875E-3,2.367101051E-2,1.756236330E-2
5.151977892E2,-1.466075517E-2,2.183841541E-2,-4.474584386E-2
5.156977892E2,-5.497782957E-3,1.359174121E-2,1.527161989E-2
5.161977892E2,6.154462695E-2,-8.445205539E-2,1.343902480E-2
5.166977892E2,2.901607752E-2,-7.330377586E-3,-4.428769462E-3
5.171977892E2,-5.543597788E-2,1.059850380E-1,-1.786779426E-2
5.176977892E2,-3.512472380E-3,-3.955349326E-2,1.298087649E-2
5.181977892E2,6.551524997E-2,-6.612611562E-2,2.748891478E-3
5.186977892E2,2.687804960E-2,-2.474002354E-2,-1.099556591E-2
5.191977892E2,-1.206457894E-2,4.123337101E-3,1.221729559E-3
5.196977892E2,3.084867075E-2,-3.481929377E-2,-1.069013402E-2
5.201977892E2,-1.069013402E-2,3.100138716E-2,9.315688163E-3
5.206977892E2,-8.597921580E-2,7.834340632E-2,8.857538924E-3
5.211977892E2,-2.290742937E-3,2.626718581E-2,1.007926930E-2
5.216977892E2,2.015853859E-2,-1.832594350E-2,-1.679878123E-2
5.221977892E2,5.955931731E-3,6.261364091E-3,-1.160643063E-2
5.226977892E2,9.010255337E-3,1.817322709E-2,-3.665188793E-3
5.231977892E2,-2.367101051E-2,1.725693047E-2,1.466075517E-2
5.236977892E2,5.070177838E-2,-1.035415828E-1,3.283398226E-2
5.241977892E2,7.956513762E-2,-1.441640854E-1,2.367101051E-2
5.246977892E2,-4.520399496E-2,-2.932151034E-2,2.550360374E-2
5.251977892E2,-1.053741761E-2,-1.878409274E-2,5.177079141E-2
5.256977892E2,3.512472659E-2,-5.787943676E-2,-7.742711157E-2
5.261977892E2,-2.535088919E-2,5.345067009E-3,5.803215317E-3
5.266977892E2,-2.916879393E-2,3.649916872E-2,-1.786779426E-2
5.271977892E2,-3.283398226E-2,-8.994983882E-2,1.475238502E-1
5.276977892E2,-3.283398226E-2,-8.994983882E-2,1.475238502E-1
5.281977892E2,-3.283398226E-2,-8.994983882E-2,1.475238502E-1
5.286977892E2,-3.283398226E-2,-8.994983882E-2,1.475238502E-1
5.291977892E2,-3.283398226E-2,-8.994983882E-2,1.475238502E-1
5.296977892E2,-3.283398226E-2,-8.994983882E-2,1.475238502E-1
5.301977892E2,-3.283398226E-2,-8.994983882E-2,1.475238502E-1
5.306977892E2,-3.283398226E-2,-8.994983882E-2,1.475238502E-1
5.311977892E2,-3.283398226E-2,-8.994983882E-2,1.475238502E-1
5.316977892E2,-3.283398226E-2,-8.994983882E-2,1.475238502E-1
5.321977892E2,-3.283398226E-2,-8.994983882E-2,1.475238502E-1
5.326977892E2,-3.283398226E-2,-8.994983882E-2,1.475238502E-1
5.331977892E2,-3.283398226E-2,-8.994983882E-2,1.475238502E-1
5.336977892E2,-3.283398226E-2,-8.994983882E-2,1.475238502E-1
5.341977892E2,-3.283398226E-2,-8.994983882E-2,1.475238502E-1
5.346977892E2,-3.283398226E-2,-8.994983882E-2,1.475238502E-1
5.351977892E2,-3.283398226E-2,-8.994983882E-2,1.475238502E-1
5.356977892E2,-3.283398226E-2,-8.994983882E-2,1.475238502E-1
5.361977892E2,-3.283398226E-2,-8.994983882E-2,1.475238502E-1
5.366977892E2,-3.283398226E-2,-8.994983882E-2,1.475238502E-1
5.371977892E2,-3.283398226E-2,-8.994983882E-2,1.475238502E-1
5.376977892E2,-3.283398226E-2,-8.994983882E-2,1.475238502E-1
5.381977892E2,-3.283398226E-2,-8.994983882E-2,1.475238502E-1
5.386977892E2,-3.283398226E-2,-8.994983882E-2,1.475238502E-1
5.391977892E2,-3.283398226E-2,-8.994983882E-2,1.475238502E-1
5.396977892E2,-3.283398226E-2,-8.994983882E-2,1.475238502E-1
5.401977892E2,-3.283398226E-2,-8.994983882E-2,1.475238502E-1
5.406977892E2,-3.283398226E-2,-8.994983882E-2,1.475238502E-1
5.411977892E2,-3.283398226E-2,-8.994983882E-2,1.475238502E-1
5.416977892E2,-3.283398226E-2,-8.994983882E-2,1.475238502E-1
5.421977892E2,-3.283398226E-2,-8.994983882E-2,1.475238502E-1
5.426977892E2,-3.283398226E-2,-8.994983882E-2,1.475238502E-1
5.431977892E2,-3.283398226E-2,-8.994983882E-2,1.475238502E-1
5.436977892E2,-3.283398226E-2,-8.994983882E-2,1.475238502E-1
5.441977892E2,-3.283398226E-2,-8.994983882E-2,1.475238502E-1
5.446977892E2,-3.283398226E-2,-8.994983882E-2,1.475238502E-1
5.451977892E2,-3.283398226E-2,-8.994983882E-2,1.475238502E-1
5.456977892E2,-3.283398226E-2,-8.994983882E-2,1.475238502E-1
5.461977892E2,-3.283398226E-2,-8.994983882E-2,1.475238502E-1
5.466977892E2,-3.283398226E-2,-8.994983882E-2,1.475238502E-1
5.471977892E2,-3.283398226E-2,-8.994983882E-2,1.475238502E-1
5.476977892E2,-3.283398226E-2,-8.994983882E-2,1.475238502E-1
5.481977892E2,-3.283398226E-2,-8.994983882E-2,1.475238502E-1
5.486977892E2,-3.283398226E-2,-8.994983882E-2,1.475238502E-1
5.491977892E2,-3.283398226E-2,-8.994983882E-2,1.475238502E-1
5.496977892E2,-3.283398226E-2,-8.994983882E-2,1.475238502E-1
5.501977892E2,-3.283398226E-2,-8.994983882E-2,1.475238502E-1
5.506977892E2,-3.283398226E-2,-8.994983882E-2,1.475238502E-1
5.511977892E2,-3.283398226E-2,-8.994983882E-2,1.475238502E-1
5.516977892E2,-3.283398226E-2,-8.994983882E-2,1.475238502E-1
5.521977892E2,-3.283398226E-2,-8.994983882E-2,1.475238502E-1
5.526977892E2,-3.283398226E-2,-8.994983882E-2,1.475238502E-1
5.531977892E2,-3.283398226E-2,-8.994983882E-2,1.475238502E-1
5.536977892E2,-3.283398226E-2,-8.994983882E-2,1.475238502E-1
5.541977892E2,-3.283398226E-2,-8.994983882E-2,1.475238502E-1
5.546977892E2,-3.283398226E-2,-8.994983882E-2,1.475238502E-1
5.551977892E2,-3.283398226E-2,-8.994983882E-2,1.475238502E-1
5.556977892E2,-3.283398226E-2,-8.994983882E-2,1.475238502E-1
5.561977892E2,-3.283398226E-2,-8.994983882E-2,1.475238502E-1
5.566977892E2,-3.283398226E-2,-8.994983882E-2,1.475238502E-1
5.571977892E2,-3.283398226E-2,-8.994983882E-2,1.475238502E-1
5.576977892E2,-3.283398226E-2,-8.994983882E-2,1.475238502E-1
5.581977892E2,4.581485875E-3,-2.031125315E-2,7.773254067E-2
5.586977892E2,7.330377586E-3,5.955931731E-3,-4.581485991E-4
5.591977892E2,-2.092211880E-2,1.970038936E-2,-9.926552884E-3
5.596977892E2,4.581485991E-4,-1.878409274E-2,7.941242307E-3
5.601977892E2,3.176496923E-2,-2.840521187E-2,-4.550942779E-2
5.606977892E2,-6.261364091E-3,-9.621120058E-3,2.916879393E-2
5.611977892E2,7.635809598E-4,-1.374445739E-3,-1.038470119E-2
5.616977892E2,9.773836471E-3,-1.481347065E-2,-8.704823442E-3
5.621977892E2,-2.290742937E-3,7.024944760E-3,1.802051067E-2
5.626977892E2,-1.908952370E-2,1.221729559E-3,-2.061668597E-2
5.631977892E2,-1.817322709E-2,1.695149764E-2,1.695149764E-2
5.636977892E2,5.345067009E-3,-1.481347065E-2,-2.764163166E-2
5.641977892E2,1.160643063E-2,-1.252272818E-2,2.748891478E-3
5.646977892E2,-1.481347065E-2,2.229656465E-2,2.443459118E-3
5.651977892E2,1.786779426E-2,2.748891478E-3,-2.031125315E-2
5.656977892E2,-5.009091273E-2,6.979130208E-2,3.543015569E-2
5.661977892E2,1.069013402E-2,1.206457894E-2,2.306014486E-2
5.666977892E2,2.443459071E-2,-1.939495653E-2,6.719512399E-3
5.671977892E2,1.572976820E-2,-8.170316368E-2,-3.878991306E-2
5.676977892E2,2.443459071E-2,-5.421425030E-2,-3.268126398E-2
5.681977892E2,-4.199695215E-2,1.221729591E-1,2.641990222E-2
5.686977892E2,-1.105665267E-1,2.209803313E-1,7.238747925E-2
5.691977892E2,1.802051067E-2,-6.505709887E-2,1.863137633E-2
5.696977892E2,1.143844277E-1,-1.715002805E-1,-5.787943676E-2
5.701977892E2,-1.710421406E-2,3.497200832E-2,-2.886336111E-2
5.706977892E2,4.138609022E-2,-6.230820715E-2,-2.214384824E-2
5.711977892E2,1.679878100E-3,-4.016435891E-2,-2.168569900E-2
5.716977892E2,3.451386094E-2,3.665188793E-3,-4.276053514E-3
5.721977892E2,4.581485875E-3,-1.252272818E-2,-5.955931731E-3
5.726977892E2,-3.054323897E-4,4.718930274E-2,-1.053741761E-2
5.731977892E2,1.191186346E-2,-2.886336111E-2,-4.092793912E-2
5.736977892E2,-2.596175298E-3,2.199113183E-2,4.062250629E-2
5.741977892E2,8.093958721E-3,-2.015853859E-2,-2.138026804E-2
5.746977892E2,6.108647678E-3,-9.162971750E-3,-3.665188793E-3
5.751977892E2,2.321286127E-2,-3.023780696E-2,6.872228812E-3
5.756977892E2,1.252272818E-2,-2.061668597E-2,5.803215317E-3
5.761977892E2,5.497782957E-3,9.162971983E-4,-1.328630932E-2
5.766977892E2,3.970621154E-3,4.581485875E-3,-1.221729536E-2
5.771977892E2,-1.649334840E-2,3.145953640E-2,-6.872228812E-3
5.776977892E2,-4.581485991E-4,9.010255337E-3,-2.443459071E-2
5.781977892E2,-1.985310577E-3,1.420260593E-2,3.970621154E-2
5.786977892E2,2.046396956E-2,-3.955349326E-2,-6.108647794E-4
5.791977892E2,-1.420260593E-2,2.794706449E-2,5.803215317E-3
5.796977892E2,7.330377586E-3,-1.267544460E-2,-3.054323839E-3
5.801977892E2,8.704823442E-3,3.970621154E-3,-6.414080039E-3
5.806977892E2,2.412915789E-2,-1.588248461E-2,-3.481929377E-2
5.811977892E2,-3.191768378E-2,1.771507785E-2,1.359174121E-2
5.816977892E2,-4.734201822E-3,4.108065739E-2,1.557705179E-2
5.821977892E2,1.267544460E-2,-1.038470119E-2,-2.977965772E-2
5.826977892E2,-4.276053514E-3,2.290742844E-2,2.809977904E-2
5.831977892E2,-1.374445739E-3,2.138026757E-3,-3.680460155E-2
5.836977892E2,-1.679878123E-2,3.207040206E-2,4.260781780E-2
5.841977892E2,1.985310577E-2,-4.489856213E-2,-1.970038936E-2
5.846977892E2,-1.695149764E-2,2.107483521E-2,1.985310577E-3
5.851977892E2,1.206457894E-2,-3.665188793E-3,-3.817904973E-3
5.856977892E2,-1.924224012E-2,2.626718581E-2,1.985310577E-3
5.861977892E2,1.420260593E-2,-1.588248461E-2,-2.061668597E-2
5.866977892E2,2.748891478E-3,-1.145371422E-2,2.382372692E-2
5.871977892E2,-2.748891478E-3,2.061668597E-2,8.093958721E-3
5.876977892E2,2.214384824E-2,-4.230238497E-2,-2.733619884E-2
5.881977892E2,2.214384824E-2,-4.230238497E-2,-2.733619884E-2
5.886977892E2,2.214384824E-2,-4.230238497E-2,-2.733619884E-2
5.891977892E2,2.214384824E-2,-4.230238497E-2,-2.733619884E-2
5.896977892E2,2.214384824E-2,-4.230238497E-2,-2.733619884E-2
5.901977892E2,2.214384824E-2,-4.230238497E-2,-2.733619884E-2
5.906977892E2,2.214384824E-2,-4.230238497E-2,-2.733619884E-2
5.911977892E2,2.214384824E-2,-4.230238497E-2,-2.733619884E-2
5.916977892E2,2.214384824E-2,-4.230238497E-2,-2.733619884E-2
5.921977892E2,2.214384824E-2,-4.230238497E-2,-2.733619884E-2
5.926977892E2,2.214384824E-2,-4.230238497E-2,-2.733619884E-2
5.931977892E2,2.214384824E-2,-4.230238497E-2,-2.733619884E-2
5.936977892E2,2.214384824E-2,-4.230238497E-2,-2.733619884E-2
5.941977892E2,2.214384824E-2,-4.230238497E-2,-2.733619884E-2
5.946977892E2,2.214384824E-2,-4.230238497E-2,-2.733619884E-2
5.951977892E2,2.214384824E-2,-4.230238497E-2,-2.733619884E-2
5.956977892E2,2.214384824E-2,-4.230238497E-2,-2.733619884E-2
5.961977892E2,2.214384824E-2,-4.230238497E-2,-2.733619884E-2
5.966977892E2,2.214384824E-2,-4.230238497E-2,-2.733619884E-2
5.971977892E2,2.214384824E-2,-4.230238497E-2,-2.733619884E-2
5.976977892E2,2.214384824E-2,-4.230238497E-2,-2.733619884E-2
5.981977892E2,2.214384824E-2,-4.230238497E-2,-2.733619884E-2
5.986977892E2,2.214384824E-2,-4.230238497E-2,-2.733619884E-2
5.991977892E2,2.214384824E-2,-4.230238497E-2,-2.733619884E-2
5.996977892E2,2.214384824E-2,-4.230238497E-2,-2.733619884E-2
6.001977892E2,2.214384824E-2,-4.230238497E-2,-2.733619884E-2
6.006977892E2,2.214384824E-2,-4.230238497E-2,-2.733619884E-2
6.011977892E2,2.214384824E-2,-4.230238497E-2,-2.733619884E-2
6.016977892E2,2.214384824E-2,-4.230238497E-2,-2.733619884E-2
6.021977892E2,2.214384824E-2,-4.230238497E-2,-2.733619884E-2
6.026977892E2,2.214384824E-2,-4.230238497E-2,-2.733619884E-2
6.031977892E2,2.214384824E-2,-4.230238497E-2,-2.733619884E-2
6.036977892E2,2.214384824E-2,-4.230238497E-2,-2.733619884E-2
6.041977892E2,2.214384824E-2,-4.230238497E-2,-2.733619884E-2
6.046977892E2,2.214384824E-2,-4.230238497E-2,-2.733619884E-2
6.051977892E2,2.214384824E-2,-4.230238497E-2,-2.733619884E-2
6.056977892E2,2.214384824E-2,-4.230238497E-2,-2.733619884E-2
6.061977892E2,2.214384824E-2,-4.230238497E-2,-2.733619884E-2
6.066977892E2,2.214384824E-2,-4.230238497E-2,-2.733619884E-2
6.071977892E2,2.214384824E-2,-4.230238497E-2,-2.733619884E-2
6.076977892E2,2.214384824E-2,-4.230238497E-2,-2.733619884E-2
6.081977892E2,2.214384824E-2,-4.230238497E-2,-2.733619884E-2
6.086977892E2,2.214384824E-2,-4.230238497E-2,-2.733619884E-2
6.091977892E2,2.214384824E-2,-4.230238497E-2,-2.733619884E-2
6.096977892E2,2.214384824E-2,-4.230238497E-2,-2.733619884E-2
6.101977892E2,2.214384824E-2,-4.230238497E-2,-2.733619884E-2
6.106977892E2,2.214384824E-2,-4.230238497E-2,-2.733619884E-2
6.111977892E2,2.214384824E-2,-4.230238497E-2,-2.733619884E-2
6.116977892E2,2.214384824E-2,-4.230238497E-2,-2.733619884E-2
6.121977892E2,2.214384824E-2,-4.230238497E-2,-2.733619884E-2
6.126977892E2,2.214384824E-2,-4.230238497E-2,-2.733619884E-2
6.131977892E2,2.214384824E-2,-4.230238497E-2,-2.733619884E-2
6.136977892E2,2.214384824E-2,-4.230238497E-2,-2.733619884E-2
6.141977892E2,2.214384824E-2,-4.230238497E-2,-2.733619884E-2
6.146977892E2,2.214384824E-2,-4.230238497E-2,-2.733619884E-2
6.151977892E2,2.214384824E-2,-4.230238497E-2,-2.733619884E-2
6.156977892E2,2.214384824E-2,-4.230238497E-2,-2.733619884E-2
6.161977892E2,2.214384824E-2,-4.230238497E-2,-2.733619884E-2
6.166977892E2,2.214384824E-2,-4.230238497E-2,-2.733619884E-2
6.171977892E2,2.214384824E-2,-4.230238497E-2,-2.733619884E-2
6.176977892E2,2.214384824E-2,-4.230238497E-2,-2.733619884E-2
6.181977892E2,2.214384824E-2,-4.230238497E-2,-2.733619884E-2
6.186977892E2,2.214384824E-2,-4.230238497E-2,-2.733619884E-2
6.191977892E2,2.214384824E-2,-4.230238497E-2,-2.733619884E-2
6.196977892E2,1.374445762E-2,-2.764163166E-2,1.023198478E-2
6.201977892E2,-2.535088919E-2,1.175914705E-2,-8.857538924E-3
6.206977892E2,-7.284562290E-2,1.588248461E-1,-1.542433538E-2
6.211977892E2,-4.031707719E-2,3.344484791E-2,6.246092543E-2
6.216977892E2,-8.002328873E-2,1.320995092E-1,-1.511890348E-2
6.221977892E2,-7.956513762E-2,8.155044913E-2,5.054906011E-2
6.226977892E2,7.819069177E-2,-6.933315098E-2,-6.780599058E-2
6.231977892E2,7.024945319E-2,-9.941824526E-2,2.153298259E-2
6.236977892E2,6.429351866E-2,-5.070177838E-2,-1.313359290E-2
6.241977892E2,-1.374445762E-2,-3.054323839E-3,6.414080039E-3
6.246977892E2,-2.076940238E-2,3.405570984E-2,1.832594397E-3
6.251977892E2,-2.397644334E-2,-1.189659163E-1,-6.811141968E-2
6.256977892E2,-5.390881747E-2,8.109229803E-2,7.589995116E-2
6.261977892E2,4.734201822E-3,-1.038470119E-2,-1.221729536E-2
6.266977892E2,-4.581485875E-3,3.375028074E-2,-2.015853859E-2
6.271977892E2,-2.825249545E-2,-1.614210159E-1,5.085449293E-2
6.276977892E2,3.115410358E-2,6.780599058E-2,-3.558287397E-2
6.281977892E2,-2.351829410E-2,7.101303339E-2,3.054323979E-2
6.286977892E2,9.621120058E-3,-3.985892609E-2,1.985310577E-2
6.291977892E2,4.230238497E-2,-8.674279600E-2,-8.552107029E-3
6.296977892E2,6.719512399E-3,-1.404988952E-2,-9.468403645E-3
6.301977892E2,-1.603520103E-2,2.748891525E-2,-6.872228812E-3
6.306977892E2,-1.756236330E-2,2.993237413E-2,-2.596175298E-3
6.311977892E2,8.093958721E-3,-3.512472380E-3,-2.672533318E-2
6.316977892E2,-6.261364091E-3,7.788525894E-3,1.038470119E-2
6.321977892E2,3.512472380E-3,1.832594397E-3,1.527161949E-4
6.326977892E2,-2.443459118E-3,-9.773836471E-3,5.345067009E-3
6.331977892E2,8.093958721E-3,-8.704823442E-3,-1.832594397E-3
6.336977892E2,-9.010255337E-3,1.374445762E-2,-1.832594397E-3
6.341977892E2,1.221729559E-3,5.039634649E-3,2.290742937E-3
6.346977892E2,-4.123337101E-3,1.985310577E-3,-6.872228812E-3
6.351977892E2,-7.941242307E-3,1.206457894E-2,-2.596175298E-3
6.356977892E2,-1.038470119E-2,1.145371422E-2,1.069013379E-3
6.361977892E2,3.054323897E-4,-1.832594397E-3,2.443459118E-3
6.366977892E2,-1.985310577E-3,-1.374445739E-3,-4.581485875E-3
6.371977892E2,1.221729536E-2,-1.420260593E-2,2.596175298E-3
6.376977892E2,-4.581485991E-4,6.108647794E-4,-2.443459118E-3
6.381977892E2,1.007926930E-2,-8.857538924E-3,2.596175298E-3
6.386977892E2,-7.635809947E-3,1.023198478E-2,-9.162971983E-4
6.391977892E2,-3.512472380E-3,5.497782957E-3,6.414080039E-3
6.396977892E2,-1.221729559E-3,5.192350596E-3,4.428769462E-3
6.401977892E2,6.414080039E-3,-1.420260593E-2,-0.000000000E0
6.406977892E2,-5.192350596E-3,1.389717404E-2,-1.527161920E-3
6.411977892E2,-7.635809947E-3,1.252272818E-2,-3.512472380E-3
6.416977892E2,-2.290742937E-3,1.160643063E-2,5.650499370E-3
6.421977892E2,1.038470119E-2,-2.351829410E-2,1.099556591E-2
6.426977892E2,1.737910360E-1,-4.439459741E-1,-2.535088919E-2
6.431977892E2,3.497200906E-1,-5.375609994E-1,-5.894844979E-2
6.436977892E2,-5.268708616E-2,2.455676347E-1,6.872228812E-3
6.441977892E2,-4.581485875E-3,6.154462695E-2,1.634063199E-2
6.446977892E2,-1.215620935E-1,1.421787739E-1,-5.757400393E-2
6.451977892E2,3.298669681E-2,-3.436114267E-2,-7.941242307E-3
6.456977892E2,2.641990222E-2,-6.383536756E-2,2.932151034E-2
6.461977892E2,1.084284950E-2,-4.153880477E-2,-1.878409274E-2
6.466977892E2,-4.886918236E-3,1.252272818E-2,1.863137633E-2
6.471977892E2,-1.802051067E-2,4.413498193E-2,-1.298087649E-2
6.476977892E2,2.794706449E-2,-5.024362728E-2,-7.864884287E-2
6.481977892E2,-4.260781780E-2,5.390881747E-2,8.597921580E-2
6.486977892E2,-6.108647794E-4,-3.665188793E-3,-2.107483521E-2
6.491977892E2,1.557705179E-2,-2.214384824E-2,-1.496618707E-2
6.496977892E2,1.557705179E-2,-2.214384824E-2,-1.496618707E-2
6.501977892E2,1.557705179E-2,-2.214384824E-2,-1.496618707E-2
6.506977892E2,1.557705179E-2,-2.214384824E-2,-1.496618707E-2
6.511977892E2,1.557705179E-2,-2.214384824E-2,-1.496618707E-2
6.516977892E2,1.557705179E-2,-2.214384824E-2,-1.496618707E-2
6.521977892E2,1.557705179E-2,-2.214384824E-2,-1.496618707E-2
6.526977892E2,1.557705179E-2,-2.214384824E-2,-1.496618707E-2
6.531977892E2,1.557705179E-2,-2.214384824E-2,-1.496618707E-2
6.536977892E2,1.557705179E-2,-2.214384824E-2,-1.496618707E-2
6.541977892E2,1.557705179E-2,-2.214384824E-2,-1.496618707E-2
6.546977892E2,1.557705179E-2,-2.214384824E-2,-1.496618707E-2
6.551977892E2,1.557705179E-2,-2.214384824E-2,-1.496618707E-2
6.556977892E2,1.557705179E-2,-2.214384824E-2,-1.496618707E-2
6.561977892E2,1.557705179E-2,-2.214384824E-2,-1.496618707E-2
6.566977892E2,1.557705179E-2,-2.214384824E-2,-1.496618707E-2
6.571977892E2,1.557705179E-2,-2.214384824E-2,-1.496618707E-2
6.576977892E2,1.557705179E-2,-2.214384824E-2,-1.496618707E-2
6.581977892E2,1.557705179E-2,-2.214384824E-2,-1.496618707E-2
6.586977892E2,1.557705179E-2,-2.214384824E-2,-1.496618707E-2
6.591977892E2,1.557705179E-2,-2.214384824E-2,-1.496618707E-2
6.596977892E2,1.557705179E-2,-2.214384824E-2,-1.496618707E-2
6.601977892E2,1.557705179E-2,-2.214384824E-2,-1.496618707E-2
6.606977892E2,1.557705179E-2,-2.214384824E-2,-1.496618707E-2
6.611977892E2,1.557705179E-2,-2.214384824E-2,-1.496618707E-2
6.616977892E2,1.557705179E-2,-2.214384824E-2,-1.496618707E-2
6.621977892E2,1.557705179E-2,-2.214384824E-2,-1.496618707E-2
6.626977892E2,1.557705179E-2,-2.214384824E-2,-1.496618707E-2
6.631977892E2,1.557705179E-2,-2.214384824E-2,-1.496618707E-2
6.636977892E2,1.557705179E-2,-2.214384824E-2,-1.496618707E-2
6.641977892E2,1.557705179E-2,-2.214384824E-2,-1.496618707E-2
6.646977892E2,1.557705179E-2,-2.214384824E-2,-1.496618707E-2
6.651977892E2,1.557705179E-2,-2.214384824E-2,-1.496618707E-2
6.656977892E2,1.557705179E-2,-2.214384824E-2,-1.496618707E-2
6.661977892E2,1.557705179E-2,-2.214384824E-2,-1.496618707E-2
6.666977892E2,1.557705179E-2,-2.214384824E-2,-1.496618707E-2
6.671977892E2,1.557705179E-2,-2.214384824E-2,-1.496618707E-2
6.676977892E2,1.557705179E-2,-2.214384824E-2,-1.496618707E-2
6.681977892E2,1.557705179E-2,-2.214384824E-2,-1.496618707E-2
6.686977892E2,1.557705179E-2,-2.214384824E-2,-1.496618707E-2
6.691977892E2,1.557705179E-2,-2.214384824E-2,-1.496618707E-2
6.696977892E2,1.557705179E-2,-2.214384824E-2,-1.496618707E-2
6.701977892E2,1.557705179E-2,-2.214384824E-2,-1.496618707E-2
6.706977892E2,1.557705179E-2,-2.214384824E-2,-1.496618707E-2
6.711977892E2,1.557705179E-2,-2.214384824E-2,-1.496618707E-2
6.716977892E2,1.557705179E-2,-2.214384824E-2,-1.496618707E-2
6.721977892E2,1.557705179E-2,-2.214384824E-2,-1.496618707E-2
6.726977892E2,1.557705179E-2,-2.214384824E-2,-1.496618707E-2
6.731977892E2,1.557705179E-2,-2.214384824E-2,-1.496618707E-2
6.736977892E2,1.557705179E-2,-2.214384824E-2,-1.496618707E-2
6.741977892E2,1.557705179E-2,-2.214384824E-2,-1.496618707E-2
6.746977892E2,1.557705179E-2,-2.214384824E-2,-1.496618707E-2
6.751977892E2,1.557705179E-2,-2.214384824E-2,-1.496618707E-2
6.756977892E2,1.557705179E-2,-2.214384824E-2,-1.496618707E-2
6.761977892E2,1.557705179E-2,-2.214384824E-2,-1.496618707E-2
6.766977892E2,1.557705179E-2,-2.214384824E-2,-1.496618707E-2
6.771977892E2,1.557705179E-2,-2.214384824E-2,-1.496618707E-2
6.776977892E2,1.557705179E-2,-2.214384824E-2,-1.496618707E-2
6.781977892E2,1.557705179E-2,-2.214384824E-2,-1.496618707E-2
6.786977892E2,1.557705179E-2,-2.214384824E-2,-1.496618707E-2
6.791977892E2,1.557705179E-2,-2.214384824E-2,-1.496618707E-2
6.796977892E2,1.557705179E-2,-2.214384824E-2,-1.496618707E-2
6.801977892E2,1.557705179E-2,-2.214384824E-2,-1.496618707E-2
6.806977892E2,3.283398226E-2,2.290742937E-3,-7.483093534E-3
6.811977892E2,-9.162971983E-4,5.039634649E-3,5.879573524E-2
6.816977892E2,1.817322709E-2,-3.741546720E-2,-6.215549260E-2
6.821977892E2,-4.749473557E-2,-1.160643063E-2,5.574141070E-2
6.826977892E2,3.115410358E-2,-5.955931731E-3,1.069013402E-2
6.831977892E2,8.093958721E-3,-3.940077871E-2,-2.214384824E-2
6.836977892E2,2.031125315E-2,-3.848448023E-2,8.399390616E-3
6.841977892E2,1.924224012E-2,-2.015853859E-2,-3.298669681E-2
6.846977892E2,1.023198478E-2,-2.382372692E-2,-4.459312931E-2
6.851977892E2,-2.443459118E-3,-6.108647794E-4,7.177661173E-3
6.856977892E2,7.941242307E-3,2.947422490E-2,-3.665188793E-3
6.861977892E2,-1.847865991E-2,-1.527161989E-2,-5.940660089E-2
6.866977892E2,-2.199113183E-2,6.582067907E-2,3.252854943E-2
6.871977892E2,-4.612028971E-2,5.894844979E-2,1.939495653E-2
6.876977892E2,-8.704823442E-3,-6.108647794E-4,-1.099556591E-2
6.881977892E2,-7.788525894E-3,1.114828233E-2,1.298087649E-2
6.886977892E2,-2.226602137E-1,8.463531733E-1,-1.941022873E-1
6.891977892E2,2.890917659E-1,8.352048993E-1,-9.224057943E-2
6.896977892E2,2.199113183E-2,1.313359290E-2,-9.926552884E-3
6.901977892E2,4.734201822E-3,3.970621154E-3,-2.290742937E-3
6.906977892E2,-1.924224012E-2,2.397644334E-2,-9.315688163E-3
6.911977892E2,1.527161920E-3,-1.038470119E-2,6.719512399E-3
6.916977892E2,-7.864884287E-2,-1.814268380E-1,4.841103405E-2
6.921977892E2,-1.771507785E-2,-2.273944169E-1,1.237001196E-1
6.926977892E2,-1.038470119E-1,-3.472766280E-1,1.525634825E-1
6.931977892E2,3.634645417E-2,-4.824304581E-1,2.299905866E-1
6.936977892E2,2.916879393E-2,-1.838703007E-1,-6.643154472E-2
6.941977892E2,-4.184423760E-2,3.252854943E-2,-8.093958721E-3
6.946977892E2,-1.542433538E-2,-2.596175298E-2,-2.107483521E-2
6.951977892E2,-1.878409274E-2,2.076940238E-2,2.107483521E-2
6.956977892E2,5.375609919E-2,2.993237413E-2,-6.734783947E-2
6.961977892E2,-1.908952370E-2,-1.527161949E-4,2.428187430E-2
6.966977892E2,-1.007926930E-2,3.909534588E-2,6.490438432E-2
6.971977892E2,6.047561392E-2,-5.772672221E-2,-6.963858753E-2
6.976977892E2,-1.588248461E-2,-9.315688163E-3,4.138609022E-2
6.981977892E2,-1.359174121E-2,7.987056673E-2,7.635809947E-3
6.986977892E2,-2.153298259E-2,-1.832594397E-3,-3.680460155E-2
6.991977892E2,-6.734783947E-2,-5.146535859E-2,1.417206228E-1
6.996977892E2,-4.718930274E-2,9.544762224E-2,-1.067486182E-1
7.001977892E2,-2.626718581E-2,3.268126398E-2,2.580903657E-2
7.006977892E2,8.979712427E-2,-2.411388755E-1,-2.993237413E-2
7.011977892E2,-2.092211880E-2,7.925970852E-2,6.841685623E-2
7.016977892E2,1.954767294E-2,-2.183841541E-2,-1.004872546E-1
7.021977892E2,-3.207040206E-2,3.405570984E-2,6.185005978E-2
7.026977892E2,2.138026804E-2,-2.443459118E-3,-4.092793912E-2
7.031977892E2,2.748891478E-3,-7.635809947E-3,7.177661173E-3
7.036977892E2,7.635809598E-4,-2.703076601E-2,1.878409274E-2
7.041977892E2,3.054323897E-4,7.788525894E-3,-1.970038936E-2
7.046977892E2,2.596175298E-3,6.108647678E-3,4.581485991E-4
7.051977892E2,-1.374445762E-2,7.788525894E-3,3.054323839E-3
7.056977892E2,5.345067009E-3,9.621120058E-3,-1.527161949E-4
7.061977892E2,-1.985310577E-3,-9.315688163E-3,4.428769462E-3
7.066977892E2,2.901607659E-3,2.168569900E-2,-6.108647678E-3
7.071977892E2,-1.282816008E-2,1.802051067E-2,-1.863137633E-2
7.076977892E2,6.414080039E-3,-1.618791744E-2,-1.130099874E-2
7.081977892E2,-6.566796452E-3,2.290742937E-3,-1.221729559E-3
7.086977892E2,-1.481347065E-2,2.336557768E-2,1.832594350E-2
7.091977892E2,-9.162971983E-4,-3.802633286E-2,-1.527161920E-3
7.096977892E2,5.650499370E-3,6.536252797E-2,2.076940238E-2
7.101977892E2,-1.557705179E-2,2.428187430E-2,-9.010255337E-3
7.106977892E2,-3.313941509E-2,7.803797722E-2,2.306014486E-2
7.111977892E2,2.474002354E-2,-1.771507785E-2,-7.024944760E-3
7.116977892E2,2.474002354E-2,-1.771507785E-2,-7.024944760E-3
7.121977892E2,2.474002354E-2,-1.771507785E-2,-7.024944760E-3
7.126977892E2,2.474002354E-2,-1.771507785E-2,-7.024944760E-3
7.131977892E2,2.474002354E-2,-1.771507785E-2,-7.024944760E-3
7.136977892E2,2.474002354E-2,-1.771507785E-2,-7.024944760E-3
7.141977892E2,2.474002354E-2,-1.771507785E-2,-7.024944760E-3
7.146977892E2,2.474002354E-2,-1.771507785E-2,-7.024944760E-3
7.151977892E2,2.474002354E-2,-1.771507785E-2,-7.024944760E-3
7.156977892E2,2.474002354E-2,-1.771507785E-2,-7.024944760E-3
7.161977892E2,2.474002354E-2,-1.771507785E-2,-7.024944760E-3
7.166977892E2,2.474002354E-2,-1.771507785E-2,-7.024944760E-3
7.171977892E2,2.474002354E-2,-1.771507785E-2,-7.024944760E-3
7.176977892E2,2.474002354E-2,-1.771507785E-2,-7.024944760E-3
7.181977892E2,2.474002354E-2,-1.771507785E-2,-7.024944760E-3
7.186977892E2,2.474002354E-2,-1.771507785E-2,-7.024944760E-3
7.191977892E2,2.474002354E-2,-1.771507785E-2,-7.024944760E-3
7.196977892E2,2.474002354E-2,-1.771507785E-2,-7.024944760E-3
7.201977892E2,2.474002354E-2,-1.771507785E-2,-7.024944760E-3
7.206977892E2,2.474002354E-2,-1.771507785E-2,-7.024944760E-3
7.211977892E2,2.474002354E-2,-1.771507785E-2,-7.024944760E-3
7.216977892E2,2.474002354E-2,-1.771507785E-2,-7.024944760E-3
7.221977892E2,2.474002354E-2,-1.771507785E-2,-7.024944760E-3
7.226977892E2,2.474002354E-2,-1.771507785E-2,-7.024944760E-3
7.231977892E2,2.474002354E-2,-1.771507785E-2,-7.024944760E-3
7.236977892E2,2.474002354E-2,-1.771507785E-2,-7.024944760E-3
7.241977892E2,2.474002354E-2,-1.771507785E-2,-7.024944760E-3
7.246977892E2,2.474002354E-2,-1.771507785E-2,-7.024944760E-3
7.251977892E2,2.474002354E-2,-1.771507785E-2,-7.024944760E-3
7.256977892E2,2.474002354E-2,-1.771507785E-2,-7.024944760E-3
7.261977892E2,2.474002354E-2,-1.771507785E-2,-7.024944760E-3
7.266977892E2,2.474002354E-2,-1.771507785E-2,-7.024944760E-3
7.271977892E2,2.474002354E-2,-1.771507785E-2,-7.024944760E-3
7.276977892E2,2.474002354E-2,-1.771507785E-2,-7.024944760E-3
7.281977892E2,2.474002354E-2,-1.771507785E-2,-7.024944760E-3
7.286977892E2,2.474002354E-2,-1.771507785E-2,-7.024944760E-3
7.291977892E2,2.474002354E-2,-1.771507785E-2,-7.024944760E-3
7.296977892E2,2.474002354E-2,-1.771507785E-2,-7.024944760E-3
7.301977892E2,2.474002354E-2,-1.771507785E-2,-7.024944760E-3
7.306977892E2,2.474002354E-2,-1.771507785E-2,-7.024944760E-3
7.311977892E2,2.474002354E-2,-1.771507785E-2,-7.024944760E-3
7.316977892E2,2.474002354E-2,-1.771507785E-2,-7.024944760E-3
7.321977892E2,2.474002354E-2,-1.771507785E-2,-7.024944760E-3
7.326977892E2,2.474002354E-2,-1.771507785E-2,-7.024944760E-3
7.331977892E2,2.474002354E-2,-1.771507785E-2,-7.024944760E-3
7.336977892E2,2.474002354E-2,-1.771507785E-2,-7.024944760E-3
7.341977892E2,2.474002354E-2,-1.771507785E-2,-7.024944760E-3
7.346977892E2,2.474002354E-2,-1.771507785E-2,-7.024944760E-3
7.351977892E2,2.474002354E-2,-1.771507785E-2,-7.024944760E-3
7.356977892E2,2.474002354E-2,-1.771507785E-2,-7.024944760E-3
7.361977892E2,2.474002354E-2,-1.771507785E-2,-7.024944760E-3
7.366977892E2,2.474002354E-2,-1.771507785E-2,-7.024944760E-3
7.371977892E2,2.474002354E-2,-1.771507785E-2,-7.024944760E-3
7.376977892E2,2.474002354E-2,-1.771507785E-2,-7.024944760E-3
7.381977892E2,2.474002354E-2,-1.771507785E-2,-7.024944760E-3
7.386977892E2,2.474002354E-2,-1.771507785E-2,-7.024944760E-3
7.391977892E2,2.474002354E-2,-1.771507785E-2,-7.024944760E-3
7.396977892E2,2.474002354E-2,-1.771507785E-2,-7.024944760E-3
7.401977892E2,2.474002354E-2,-1.771507785E-2,-7.024944760E-3
7.406977892E2,2.474002354E-2,-1.771507785E-2,-7.024944760E-3
7.411977892E2,2.474002354E-2,-1.771507785E-2,-7.024944760E-3
7.416977892E2,-2.901607659E-3,3.909534588E-2,2.580903657E-2
7.421977892E2,-6.414080039E-3,9.468403645E-3,-2.748891478E-3
7.426977892E2,9.315688163E-3,-3.283398226E-2,9.773836471E-3
7.431977892E2,4.734201822E-3,-6.566796452E-3,-6.872228812E-3
7.436977892E2,-3.054323897E-4,-2.901607752E-2,-2.031125315E-2
7.441977892E2,-4.001164436E-2,9.957095981E-2,4.230238497E-2
7.446977892E2,3.817904973E-3,-8.857538924E-3,1.970038936E-2
7.451977892E2,-2.718348242E-2,8.338304609E-2,-8.704823442E-3
7.456977892E2,1.511890348E-2,-4.703658819E-2,-2.626718581E-2
7.461977892E2,6.261364091E-3,1.954767294E-2,2.229656465E-2
7.466977892E2,-3.817904973E-3,-2.229656465E-2,-1.588248461E-2
7.471977892E2,-2.748891478E-3,4.581485991E-4,1.374445762E-2
7.476977892E2,-3.359756200E-3,-9.926552884E-3,-5.955931731E-3
7.481977892E2,2.183841541E-2,-2.672533318E-2,-1.710421406E-2
7.486977892E2,-2.840521187E-2,5.024362728E-2,6.719512399E-3
7.491977892E2,5.955931731E-3,-2.443459071E-2,-7.941242307E-3
7.496977892E2,1.450803876E-2,-3.405570984E-2,1.298087649E-2
7.501977892E2,-1.588248461E-2,3.711003438E-2,-1.069013379E-3
7.506977892E2,1.298087649E-2,-3.527744114E-2,-2.886336111E-2
7.511977892E2,-2.474002354E-2,3.512472380E-3,-3.970621154E-2
7.516977892E2,-7.788525894E-3,-1.389717404E-2,8.399390616E-3
7.521977892E2,-1.527161949E-4,3.237583488E-2,2.244928107E-2
7.526977892E2,4.352411628E-2,-6.032289565E-2,-4.123337101E-3
7.531977892E2,7.788525894E-3,1.191186346E-2,1.542433538E-2
7.536977892E2,8.552107029E-3,-2.183841541E-2,-5.497782957E-3
7.541977892E2,-2.382372692E-2,3.329212964E-2,-3.512472380E-3
7.546977892E2,2.321286127E-2,-2.748891525E-2,-1.450803876E-2
7.551977892E2,5.039634649E-3,1.160643063E-2,1.252272818E-2
7.556977892E2,1.221729559E-3,2.855792828E-2,-3.894263133E-2
7.561977892E2,-2.428187430E-2,8.552107029E-3,2.183841541E-2
7.566977892E2,2.306014486E-2,-3.298669681E-2,4.886918236E-3
7.571977892E2,-1.527161920E-3,1.298087649E-2,2.260199748E-2
7.576977892E2,4.841103405E-2,-1.061377525E-1,-1.634063199E-2
7.581977892E2,-1.160643063E-2,7.131846249E-2,-1.099556591E-2
7.586977892E2,-9.773836471E-3,-9.468403645E-3,-4.153880477E-2
7.591977892E2,-1.527161989E-2,-3.115410358E-2,1.908952370E-2
7.596977892E2,6.414080039E-3,2.748891478E-3,-4.886918236E-3
7.601977892E2,-4.123337101E-3,-5.558869615E-2,2.458730713E-2
7.606977892E2,-1.939495653E-2,9.040798992E-2,4.856374860E-2
7.611977892E2,-2.260199748E-2,2.275471389E-2,-4.948004708E-2
7.616977892E2,-2.244928107E-2,1.695149764E-2,4.581485875E-3
7.621977892E2,-2.107483521E-2,4.016435891E-2,1.084284950E-2
7.626977892E2,-5.345067009E-3,-7.101303339E-2,1.695149764E-2
7.631977892E2,-8.399390429E-2,4.581485875E-3,1.342375278E-1
7.636977892E2,1.053741723E-1,-5.955931544E-2,-1.733328849E-1
7.641977892E2,-7.971785218E-2,3.940077871E-2,1.850920320E-1
7.646977892E2,2.428187430E-2,-8.307760954E-2,-7.147117704E-2
7.651977892E2,-4.734201822E-3,4.489856213E-2,-1.634063199E-2
7.656977892E2,-6.872228812E-3,3.817904973E-3,-5.955931731E-3
7.661977892E2,-3.222311661E-2,2.489273995E-2,-6.368265301E-2
7.666977892E2,1.084284950E-2,3.573558852E-2,5.299251899E-2
7.671977892E2,-2.138026804E-2,1.908952370E-2,3.054323897E-4
7.676977892E2,6.658425927E-2,-9.773836471E-3,-5.528326333E-2
7.681977892E2,-2.290742844E-2,3.069595434E-2,5.619955808E-2
7.686977892E2,-1.832594350E-2,1.091920808E-1,2.672533318E-2
7.691977892E2,4.184423760E-2,-6.230820715E-2,-1.267544460E-2
7.696977892E2,-1.710421406E-2,2.916879393E-2,1.313359290E-2
7.701977892E2,-4.581485991E-4,3.359756200E-3,-1.145371422E-2
7.706977892E2,-1.328630932E-2,9.315688163E-3,7.024944760E-3
7.711977892E2,6.261364091E-3,-6.719512492E-2,1.832594350E-2
7.716977892E2,-3.970621154E-3,2.092211880E-2,1.985310577E-3
7.721977892E2,-3.970621154E-3,2.092211880E-2,1.985310577E-3
7.726977892E2,-3.970621154E-3,2.092211880E-2,1.985310577E-3
7.731977892E2,-3.970621154E-3,2.092211880E-2,1.985310577E-3
7.736977892E2,-3.970621154E-3,2.092211880E-2,1.985310577E-3
7.741977892E2,-3.970621154E-3,2.092211880E-2,1.985310577E-3
7.746977892E2,-3.970621154E-3,2.092211880E-2,1.985310577E-3
7.751977892E2,-3.970621154E-3,2.092211880E-2,1.985310577E-3
7.756977892E2,-3.970621154E-3,2.092211880E-2,1.985310577E-3
7.761977892E2,-3.970621154E-3,2.092211880E-2,1.985310577E-3
7.766977892E2,-3.970621154E-3,2.092211880E-2,1.985310577E-3
7.771977892E2,-3.970621154E-3,2.092211880E-2,1.985310577E-3
7.776977892E2,-3.970621154E-3,2.092211880E-2,1.985310577E-3
7.781977892E2,-3.970621154E-3,2.092211880E-2,1.985310577E-3
7.786977892E2,-3.970621154E-3,2.092211880E-2,1.985310577E-3
7.791977892E2,-3.970621154E-3,2.092211880E-2,1.985310577E-3
7.796977892E2,-3.970621154E-3,2.092211880E-2,1.985310577E-3
7.801977892E2,-3.970621154E-3,2.092211880E-2,1.985310577E-3
7.806977892E2,-3.970621154E-3,2.092211880E-2,1.985310577E-3
7.811977892E2,-3.970621154E-3,2.092211880E-2,1.985310577E-3
7.816977892E2,-3.970621154E-3,2.092211880E-2,1.985310577E-3
7.821977892E2,-3.970621154E-3,2.092211880E-2,1.985310577E-3
7.826977892E2,-3.970621154E-3,2.092211880E-2,1.985310577E-3
7.831977892E2,-3.970621154E-3,2.092211880E-2,1.985310577E-3
7.836977892E2,-3.970621154E-3,2.092211880E-2,1.985310577E-3
7.841977892E2,-3.970621154E-3,2.092211880E-2,1.985310577E-3
7.846977892E2,-3.970621154E-3,2.092211880E-2,1.985310577E-3
7.851977892E2,-3.970621154E-3,2.092211880E-2,1.985310577E-3
7.856977892E2,-3.970621154E-3,2.092211880E-2,1.985310577E-3
7.861977892E2,-3.970621154E-3,2.092211880E-2,1.985310577E-3
7.866977892E2,-3.970621154E-3,2.092211880E-2,1.985310577E-3
7.871977892E2,-3.970621154E-3,2.092211880E-2,1.985310577E-3
7.876977892E2,-3.970621154E-3,2.092211880E-2,1.985310577E-3
7.881977892E2,-3.970621154E-3,2.092211880E-2,1.985310577E-3
7.886977892E2,-3.970621154E-3,2.092211880E-2,1.985310577E-3
7.891977892E2,-3.970621154E-3,2.092211880E-2,1.985310577E-3
7.896977892E2,-3.970621154E-3,2.092211880E-2,1.985310577E-3
7.901977892E2,-3.970621154E-3,2.092211880E-2,1.985310577E-3
7.906977892E2,-3.970621154E-3,2.092211880E-2,1.985310577E-3
7.911977892E2,-3.970621154E-3,2.092211880E-2,1.985310577E-3
7.916977892E2,-3.970621154E-3,2.092211880E-2,1.985310577E-3
7.921977892E2,-3.970621154E-3,2.092211880E-2,1.985310577E-3
7.926977892E2,-3.970621154E-3,2.092211880E-2,1.985310577E-3
7.931977892E2,-3.970621154E-3,2.092211880E-2,1.985310577E-3
7.936977892E2,-3.970621154E-3,2.092211880E-2,1.985310577E-3
7.941977892E2,-3.970621154E-3,2.092211880E-2,1.985310577E-3
7.946977892E2,-3.970621154E-3,2.092211880E-2,1.985310577E-3
7.951977892E2,-3.970621154E-3,2.092211880E-2,1.985310577E-3
7.956977892E2,-3.970621154E-3,2.092211880E-2,1.985310577E-3
7.961977892E2,-3.970621154E-3,2.092211880E-2,1.985310577E-3
7.966977892E2,-3.970621154E-3,2.092211880E-2,1.985310577E-3
7.971977892E2,-3.970621154E-3,2.092211880E-2,1.985310577E-3
7.976977892E2,-3.970621154E-3,2.092211880E-2,1.985310577E-3
7.981977892E2,-3.970621154E-3,2.092211880E-2,1.985310577E-3
7.986977892E2,-3.970621154E-3,2.092211880E-2,1.985310577E-3
7.991977892E2,-3.970621154E-3,2.092211880E-2,1.985310577E-3
7.996977892E2,-3.970621154E-3,2.092211880E-2,1.985310577E-3
8.001977892E2,-3.970621154E-3,2.092211880E-2,1.985310577E-3
8.006977892E2,-3.970621154E-3,2.092211880E-2,1.985310577E-3
8.011977892E2,-3.970621154E-3,2.092211880E-2,1.985310577E-3
8.016977892E2,-3.970621154E-3,2.092211880E-2,1.985310577E-3
8.021977892E2,-3.970621154E-3,2.092211880E-2,1.985310577E-3
8.026977892E2,-3.970621154E-3,2.092211880E-2,1.985310577E-3
8.031977892E2,-8.949168772E-2,6.872228533E-2,1.954767294E-2
8.036977892E2,1.511890348E-2,-2.489273995E-2,1.374445739E-3
8.041977892E2,-1.069013402E-2,2.901607659E-3,7.788525894E-3
8.046977892E2,-1.099556591E-2,2.199113183E-2,-6.719512399E-3
8.051977892E2,-3.054323897E-4,-9.315688163E-3,4.886918236E-3
8.056977892E2,-3.512472380E-3,-2.443459118E-3,1.527161949E-4
8.061977892E2,-1.863137633E-2,5.131264031E-2,-9.162971983E-4
8.066977892E2,5.650499370E-3,-1.481347065E-2,-2.901607659E-3
8.071977892E2,6.108647794E-4,-7.788525894E-3,1.527161949E-4
8.076977892E2,-2.443459118E-3,6.872228812E-3,-8.246674202E-3
8.081977892E2,-1.374445739E-3,1.679878100E-3,-4.734201822E-3
8.086977892E2,-1.221729559E-3,6.566796452E-3,-3.665188793E-3
8.091977892E2,-1.527161920E-3,1.771507785E-2,-1.084284950E-2
8.096977892E2,1.985310577E-3,4.581485991E-4,8.399390616E-3
8.101977892E2,7.788525894E-3,-1.389717404E-2,4.581485991E-4
8.106977892E2,3.054323839E-3,4.734201822E-3,4.886918236E-3
8.111977892E2,7.635809598E-4,3.054323839E-3,-1.832594397E-3
8.116977892E2,-0.000000000E0,1.527161920E-3,-1.527161920E-3
8.121977892E2,-5.345067009E-3,5.039634649E-3,-4.886918236E-3
8.126977892E2,-4.581485875E-3,1.023198478E-2,-1.832594397E-3
8.131977892E2,-7.635809598E-4,-3.054323839E-3,-2.290742937E-3
8.136977892E2,1.069013379E-3,1.527161949E-4,2.748891478E-3
8.141977892E2,8.857538924E-3,-6.414080039E-3,1.664606482E-2
8.146977892E2,1.527161920E-3,1.832594397E-3,-4.581485991E-4
8.151977892E2,-2.443459118E-3,1.832594397E-3,-3.359756200E-3
8.156977892E2,-6.108647678E-3,5.955931731E-3,1.679878100E-3
8.161977892E2,5.650499370E-3,-9.468403645E-3,-2.443459118E-3
8.166977892E2,4.123337101E-3,-1.114828233E-2,-2.290742937E-3
8.171977892E2,6.566796452E-3,-1.527161949E-4,7.177661173E-3
8.176977892E2,-4.276053514E-3,1.374445739E-3,-5.192350596E-3
8.181977892E2,1.237001177E-2,-4.825831577E-2,2.901607659E-3
8.186977892E2,-1.985310577E-2,-2.079994529E-1,1.276707351E-1
8.191977892E2,8.414662629E-2,-8.200860023E-2,-8.032871783E-2
8.196977892E2,9.315688163E-3,4.856374860E-2,-2.703076601E-2
8.201977892E2,-3.023780696E-2,-1.374445739E-3,7.055488229E-2
8.206977892E2,2.367101051E-2,-1.191186346E-2,-5.910116807E-2
8.211977892E2,-6.108647678E-3,-3.359756200E-3,1.069013402E-2
8.216977892E2,-2.748891478E-3,-4.886918236E-3,7.635809598E-4
8.221977892E2,-9.926552884E-3,1.511890348E-2,-2.886336111E-2
8.226977892E2,-1.175914705E-2,-9.621120058E-3,1.038470119E-2
8.231977892E2,8.093958721E-3,1.527161920E-3,-2.290742937E-3
8.236977892E2,4.581485875E-3,-3.207040019E-3,3.359756200E-3
8.241977892E2,-3.665188793E-3,-3.054323897E-4,-2.596175298E-3
8.246977892E2,5.192350596E-3,-1.527161920E-3,-2.138026757E-3
8.251977892E2,-1.832594397E-3,4.428769462E-3,-3.817904973E-3
8.256977892E2,5.345067009E-3,-2.809977904E-2,8.399390616E-3
8.261977892E2,1.114828233E-2,-6.872228812E-3,-9.773836471E-3
8.266977892E2,-3.268126398E-2,-3.054323897E-4,-1.099556591E-2
8.271977892E2,6.108647678E-3,3.054323839E-3,1.557705179E-2
8.276977892E2,2.244928107E-2,-3.451386094E-2,-8.552107029E-3
8.281977892E2,1.893680729E-2,-2.748891525E-2,-8.857538924E-3
8.286977892E2,-1.099556591E-2,5.009091273E-2,1.924224012E-2
8.291977892E2,2.031125315E-2,1.221729536E-2,-1.817322709E-2
8.296977892E2,-3.588830680E-2,1.247691289E-1,4.199695215E-2
8.301977892E2,-1.618791744E-2,2.825249545E-2,3.955349326E-2
8.306977892E2,1.053741761E-2,1.038470119E-1,4.276053514E-3
8.311977892E2,-4.184423760E-2,5.528326333E-2,2.687804960E-2
8.316977892E2,-3.054323979E-2,1.041524485E-1,2.840521187E-2
8.321977892E2,-2.809977904E-2,9.346231073E-2,3.604102135E-2
8.326977892E2,3.970621154E-2,1.725693047E-2,1.878409274E-2
8.331977892E2,-5.299251899E-2,1.099556610E-1,6.017018110E-2
8.336977892E2,-5.299251899E-2,1.099556610E-1,6.017018110E-2
8.341977892E2,-5.299251899E-2,1.099556610E-1,6.017018110E-2
8.346977892E2,-5.299251899E-2,1.099556610E-1,6.017018110E-2
8.351977892E2,-5.299251899E-2,1.099556610E-1,6.017018110E-2
8.356977892E2,-5.299251899E-2,1.099556610E-1,6.017018110E-2
8.361977892E2,-5.299251899E-2,1.099556610E-1,6.017018110E-2
8.366977892E2,-5.299251899E-2,1.099556610E-1,6.017018110E-2
8.371977892E2,-5.299251899E-2,1.099556610E-1,6.017018110E-2
8.376977892E2,-5.299251899E-2,1.099556610E-1,6.017018110E-2
8.381977892E2,-5.299251899E-2,1.099556610E-1,6.017018110E-2
8.386977892E2,-5.299251899E-2,1.099556610E-1,6.017018110E-2
8.391977892E2,-5.299251899E-2,1.099556610E-1,6.017018110E-2
8.396977892E2,-5.299251899E-2,1.099556610E-1,6.017018110E-2
8.401977892E2,-5.299251899E-2,1.099556610E-1,6.017018110E-2
8.406977892E2,-5.299251899E-2,1.099556610E-1,6.017018110E-2
8.411977892E2,-5.299251899E-2,1.099556610E-1,6.017018110E-2
8.416977892E2,-5.299251899E-2,1.099556610E-1,6.017018110E-2
8.421977892E2,-5.299251899E-2,1.099556610E-1,6.017018110E-2
8.426977892E2,-5.299251899E-2,1.099556610E-1,6.017018110E-2
8.431977892E2,-5.299251899E-2,1.099556610E-1,6.017018110E-2
8.436977892E2,-5.299251899E-2,1.099556610E-1,6.017018110E-2
8.441977892E2,-5.299251899E-2,1.099556610E-1,6.017018110E-2
8.446977892E2,-5.299251899E-2,1.099556610E-1,6.017018110E-2
8.451977892E2,-5.299251899E-2,1.099556610E-1,6.017018110E-2
8.456977892E2,-5.299251899E-2,1.099556610E-1,6.017018110E-2
8.461977892E2,-5.299251899E-2,1.099556610E-1,6.017018110E-2
8.466977892E2,-5.299251899E-2,1.099556610E-1,6.017018110E-2
8.471977892E2,-5.299251899E-2,1.099556610E-1,6.017018110E-2
8.476977892E2,-5.299251899E-2,1.099556610E-1,6.017018110E-2
8.481977892E2,-5.299251899E-2,1.099556610E-1,6.017018110E-2
8.486977892E2,-5.299251899E-2,1.099556610E-1,6.017018110E-2
8.491977892E2,-5.299251899E-2,1.099556610E-1,6.017018110E-2
8.496977892E2,-5.299251899E-2,1.099556610E-1,6.017018110E-2
8.501977892E2,-5.299251899E-2,1.099556610E-1,6.017018110E-2
8.506977892E2,-5.299251899E-2,1.099556610E-1,6.017018110E-2
8.511977892E2,-5.299251899E-2,1.099556610E-1,6.017018110E-2
8.516977892E2,-5.299251899E-2,1.099556610E-1,6.017018110E-2
8.521977892E2,-5.299251899E-2,1.099556610E-1,6.017018110E-2
8.526977892E2,-5.299251899E-2,1.099556610E-1,6.017018110E-2
8.531977892E2,-5.299251899E-2,1.099556610E-1,6.017018110E-2
8.536977892E2,-5.299251899E-2,1.099556610E-1,6.017018110E-2
8.541977892E2,-5.299251899E-2,1.099556610E-1,6.017018110E-2
8.546977892E2,-5.299251899E-2,1.099556610E-1,6.017018110E-2
8.551977892E2,-5.299251899E-2,1.099556610E-1,6.017018110E-2
8.556977892E2,-5.299251899E-2,1.099556610E-1,6.017018110E-2
8.561977892E2,-5.299251899E-2,1.099556610E-1,6.017018110E-2
8.566977892E2,-5.299251899E-2,1.099556610E-1,6.017018110E-2
8.571977892E2,-5.299251899E-2,1.099556610E-1,6.017018110E-2
8.576977892E2,-5.299251899E-2,1.099556610E-1,6.017018110E-2
8.581977892E2,-5.299251899E-2,1.099556610E-1,6.017018110E-2
8.586977892E2,-5.299251899E-2,1.099556610E-1,6.017018110E-2
8.591977892E2,-5.299251899E-2,1.099556610E-1,6.017018110E-2
8.596977892E2,-5.299251899E-2,1.099556610E-1,6.017018110E-2
8.601977892E2,-5.299251899E-2,1.099556610E-1,6.017018110E-2
8.606977892E2,-5.299251899E-2,1.099556610E-1,6.017018110E-2
8.611977892E2,-5.299251899E-2,1.099556610E-1,6.017018110E-2
8.616977892E2,-5.299251899E-2,1.099556610E-1,6.017018110E-2
8.621977892E2,-5.299251899E-2,1.099556610E-1,6.017018110E-2
8.626977892E2,-5.299251899E-2,1.099556610E-1,6.017018110E-2
8.631977892E2,-5.299251899E-2,1.099556610E-1,6.017018110E-2
8.636977892E2,-5.299251899E-2,1.099556610E-1,6.017018110E-2
8.641977892E2,1.237001177E-2,-5.650499370E-3,-1.084284950E-2
8.646977892E2,4.596757516E-2,-8.246674389E-2,-7.467821985E-2
8.651977892E2,-2.519817278E-2,3.878991306E-2,5.390881747E-2
8.656977892E2,7.635809598E-4,-1.328630932E-2,-2.687804960E-2
8.661977892E2,-1.878409274E-2,-3.344484791E-2,1.267544460E-2
8.666977892E2,3.359756246E-2,-1.527161949E-4,-2.718348242E-2
8.671977892E2,1.786779426E-2,-1.481347065E-2,-2.825249545E-2
8.676977892E2,-3.084867075E-2,2.580903657E-2,5.818486959E-2
8.681977892E2,2.779434808E-2,-3.466657549E-2,-4.489856213E-2
8.686977892E2,-1.481347065E-2,1.924224012E-2,2.367101051E-2
8.691977892E2,1.634063199E-2,-2.351829410E-2,-1.313359290E-2
8.696977892E2,-5.039634649E-3,-3.115410358E-2,-2.901607659E-3
8.701977892E2,-1.099556591E-2,1.053741761E-2,1.527161920E-3
8.706977892E2,1.939495653E-2,-1.374445762E-2,5.192350596E-3
8.711977892E2,-4.581485991E-4,9.010255337E-3,-1.618791744E-2
8.716977892E2,4.734201822E-3,-3.375028074E-2,1.679878100E-3
8.721977892E2,8.246674202E-3,2.046396956E-2,1.267544460E-2
8.726977892E2,2.428187430E-2,-4.199695215E-2,-5.543597788E-2
8.731977892E2,-2.687804960E-2,3.817904741E-2,5.406153202E-2
8.736977892E2,8.246674202E-3,-3.252854943E-2,-3.100138716E-2
8.741977892E2,-2.687804960E-2,-2.703076601E-2,5.345066637E-2
8.746977892E2,7.528908551E-2,-5.894844979E-2,-6.887500733E-2
8.751977892E2,-1.435532235E-2,1.588248461E-2,5.283980444E-2
8.756977892E2,3.634645417E-2,-1.679878123E-2,-6.246092543E-2
8.761977892E2,-3.741546720E-2,5.146535859E-2,7.238747925E-2
8.766977892E2,5.910116807E-2,-1.137735620E-1,-6.459894776E-2
8.771977892E2,-3.130681813E-2,2.764163166E-2,5.818486959E-2
8.776977892E2,4.474584386E-2,-7.651081681E-2,-6.795870513E-2
8.781977892E2,-3.298669681E-2,3.680460155E-2,5.177079141E-2
8.786977892E2,-4.352411628E-2,6.673697382E-2,-7.635809947E-3
8.791977892E2,2.061668597E-2,-4.627300799E-2,-3.848448023E-2
8.796977892E2,-5.024362728E-2,1.618791744E-2,1.673769504E-1
8.801977892E2,1.226311028E-1,-1.643226296E-1,-2.301433086E-1
8.806977892E2,-1.954767294E-2,1.802051067E-2,1.621845961E-1
8.811977892E2,5.345066637E-2,-7.681624591E-2,-1.667660922E-1
8.816977892E2,-4.825831577E-2,8.185587823E-2,1.701258421E-1
8.821977892E2,7.101303339E-2,-1.237001196E-1,-1.594357044E-1
8.826977892E2,-4.428769462E-3,-4.566214234E-2,6.551524997E-2
8.831977892E2,4.459312931E-2,-2.672533318E-2,-8.964440972E-2
8.836977892E2,-5.146535859E-2,2.489273995E-2,4.092793912E-2
8.841977892E2,-1.710421406E-2,3.329212964E-2,1.572976820E-2
8.846977892E2,1.069013402E-2,1.664606482E-2,7.330377586E-3
8.851977892E2,2.290742844E-2,-6.536252797E-2,-2.428187430E-2
8.856977892E2,4.230238497E-2,-4.703658819E-2,-5.650499091E-2
8.861977892E2,1.069013379E-3,-8.735366166E-2,5.497782957E-3
8.866977892E2,4.810560122E-2,-7.177661173E-3,2.871064469E-2
8.871977892E2,-4.031707719E-2,8.338304609E-2,1.771507785E-2
8.876977892E2,-2.993237413E-2,1.044578776E-1,4.046979174E-2
8.881977892E2,-6.719512399E-3,-6.414080039E-3,-2.596175298E-2
8.886977892E2,1.786779426E-2,-1.893680729E-2,1.664606482E-2
8.891977892E2,2.321286127E-2,-1.618791744E-2,-1.343902480E-2
8.896977892E2,3.680460155E-2,-4.566214234E-2,8.093958721E-3
8.901977892E2,-1.511890348E-2,3.298669681E-2,1.084284950E-2
8.906977892E2,2.504545636E-2,-1.618791744E-2,-2.000582218E-2
8.911977892E2,3.329212964E-2,-5.772672221E-2,-7.483093534E-3
8.916977892E2,-1.695149764E-2,4.444041103E-2,4.245510325E-2
8.921977892E2,-8.399390616E-3,1.114828233E-2,-1.069013402E-2
8.926977892E2,7.788525894E-3,-7.299833745E-2,-2.626718581E-2
8.931977892E2,-9.880737960E-2,7.620538026E-2,4.566214234E-2
8.936977892E2,8.323032409E-2,-4.734202102E-2,-7.880155742E-2
8.941977892E2,2.932151034E-2,-1.664606482E-2,5.375609919E-2
8.946977892E2,-1.050687432E-1,-7.223475724E-2,1.140789986E-1
8.951977892E2,-1.050687432E-1,-7.223475724E-2,1.140789986E-1
8.956977892E2,-1.050687432E-1,-7.223475724E-2,1.140789986E-1
8.961977892E2,-1.050687432E-1,-7.223475724E-2,1.140789986E-1
8.966977892E2,-1.050687432E-1,-7.223475724E-2,1.140789986E-1
8.971977892E2,-1.050687432E-1,-7.223475724E-2,1.140789986E-1
8.976977892E2,-1.050687432E-1,-7.223475724E-2,1.140789986E-1
8.981977892E2,-1.050687432E-1,-7.223475724E-2,1.140789986E-1
8.986977892E2,-1.050687432E-1,-7.223475724E-2,1.140789986E-1
8.991977892E2,-1.050687432E-1,-7.223475724E-2,1.140789986E-1
8.996977892E2,-1.050687432E-1,-7.223475724E-2,1.140789986E-1
9.001977892E2,-1.050687432E-1,-7.223475724E-2,1.140789986E-1
9.006977892E2,-1.050687432E-1,-7.223475724E-2,1.140789986E-1
9.011977892E2,-1.050687432E-1,-7.223475724E-2,1.140789986E-1
9.016977892E2,-1.050687432E-1,-7.223475724E-2,1.140789986E-1
9.021977892E2,-1.050687432E-1,-7.223475724E-2,1.140789986E-1
9.026977892E2,-1.050687432E-1,-7.223475724E-2,1.140789986E-1
9.031977892E2,-1.050687432E-1,-7.223475724E-2,1.140789986E-1
9.036977892E2,-1.050687432E-1,-7.223475724E-2,1.140789986E-1
9.041977892E2,-1.050687432E-1,-7.223475724E-2,1.140789986E-1
9.046977892E2,-1.050687432E-1,-7.223475724E-2,1.140789986E-1
9.051977892E2,-1.050687432E-1,-7.223475724E-2,1.140789986E-1
9.056977892E2,-1.050687432E-1,-7.223475724E-2,1.140789986E-1
9.061977892E2,-1.050687432E-1,-7.223475724E-2,1.140789986E-1
9.066977892E2,-1.050687432E-1,-7.223475724E-2,1.140789986E-1
9.071977892E2,-1.050687432E-1,-7.223475724E-2,1.140789986E-1
9.076977892E2,-1.050687432E-1,-7.223475724E-2,1.140789986E-1
9.081977892E2,-1.050687432E-1,-7.223475724E-2,1.140789986E-1
9.086977892E2,-1.050687432E-1,-7.223475724E-2,1.140789986E-1
9.091977892E2,-1.050687432E-1,-7.223475724E-2,1.140789986E-1
9.096977892E2,-1.050687432E-1,-7.223475724E-2,1.140789986E-1
9.101977892E2,-1.050687432E-1,-7.223475724E-2,1.140789986E-1
9.106977892E2,-1.050687432E-1,-7.223475724E-2,1.140789986E-1
9.111977892E2,-1.050687432E-1,-7.223475724E-2,1.140789986E-1
9.116977892E2,-1.050687432E-1,-7.223475724E-2,1.140789986E-1
9.121977892E2,-1.050687432E-1,-7.223475724E-2,1.140789986E-1
9.126977892E2,-1.050687432E-1,-7.223475724E-2,1.140789986E-1
9.131977892E2,-1.050687432E-1,-7.223475724E-2,1.140789986E-1
9.136977892E2,-1.050687432E-1,-7.223475724E-2,1.140789986E-1
9.141977892E2,-1.050687432E-1,-7.223475724E-2,1.140789986E-1
9.146977892E2,-1.050687432E-1,-7.223475724E-2,1.140789986E-1
9.151977892E2,-1.050687432E-1,-7.223475724E-2,1.140789986E-1
9.156977892E2,-1.050687432E-1,-7.223475724E-2,1.140789986E-1
9.161977892E2,-1.050687432E-1,-7.223475724E-2,1.140789986E-1
9.166977892E2,-1.050687432E-1,-7.223475724E-2,1.140789986E-1
9.171977892E2,-1.050687432E-1,-7.223475724E-2,1.140789986E-1
9.176977892E2,-1.050687432E-1,-7.223475724E-2,1.140789986E-1
9.181977892E2,-1.050687432E-1,-7.223475724E-2,1.140789986E-1
9.186977892E2,-1.050687432E-1,-7.223475724E-2,1.140789986E-1
9.191977892E2,-1.050687432E-1,-7.223475724E-2,1.140789986E-1
9.196977892E2,-1.050687432E-1,-7.223475724E-2,1.140789986E-1
9.201977892E2,-1.050687432E-1,-7.223475724E-2,1.140789986E-1
9.206977892E2,-1.050687432E-1,-7.223475724E-2,1.140789986E-1
9.211977892E2,-1.050687432E-1,-7.223475724E-2,1.140789986E-1
9.216977892E2,-1.050687432E-1,-7.223475724E-2,1.140789986E-1
9.221977892E2,-1.050687432E-1,-7.223475724E-2,1.140789986E-1
9.226977892E2,-1.050687432E-1,-7.223475724E-2,1.140789986E-1
9.231977892E2,-1.050687432E-1,-7.223475724E-2,1.140789986E-1
9.236977892E2,-1.050687432E-1,-7.223475724E-2,1.140789986E-1
9.241977892E2,-1.050687432E-1,-7.223475724E-2,1.140789986E-1
9.246977892E2,-1.050687432E-1,-7.223475724E-2,1.140789986E-1
9.251977892E2,-6.023126841E-1,-6.120865345E-1,-4.657844082E-2
9.256977892E2,5.283980444E-2,-6.776017547E-1,4.118755758E-1
9.261977892E2,2.168569900E-2,-5.268708467E-1,4.271472096E-1
9.266977892E2,1.598938555E-1,-1.267544478E-1,-5.681042373E-2
9.271977892E2,3.863719851E-2,-2.748891525E-2,3.680460155E-2
9.276977892E2,3.207040206E-2,-9.926552884E-3,-1.175914705E-2
9.281977892E2,-3.436114267E-2,-3.695731983E-2,6.612611562E-2
9.286977892E2,5.604684353E-2,-2.275471389E-2,-5.787943676E-2
9.291977892E2,-3.909534588E-2,2.000582218E-2,2.397644334E-2
9.296977892E2,3.207040019E-3,0.000000000E0,-9.162971983E-4
9.301977892E2,1.527161949E-4,-2.428187430E-2,-1.450803876E-2
9.306977892E2,-1.466075517E-2,7.177661173E-3,1.298087649E-2
9.311977892E2,-4.886918236E-3,1.237001177E-2,-1.634063199E-2
9.316977892E2,-8.246674202E-3,6.719512399E-3,-6.414080039E-3
9.321977892E2,3.359756200E-3,-5.192350596E-3,4.581485875E-3
9.326977892E2,1.221729536E-2,-1.481347065E-2,-1.679878100E-3
9.331977892E2,-1.038470119E-2,1.359174121E-2,7.635809598E-4
9.336977892E2,-4.734201822E-3,-5.955931731E-3,-7.635809947E-3
9.341977892E2,-4.428769462E-3,5.345067009E-3,-1.389717404E-2
9.346977892E2,-5.803215317E-3,8.552107029E-3,6.719512399E-3
9.351977892E2,-5.039634649E-3,7.177661173E-3,-0.000000000E0
9.356977892E2,3.054323839E-3,1.802051067E-2,-1.924224012E-2
9.361977892E2,-3.726275265E-2,5.451968312E-2,2.229656465E-2
9.366977892E2,1.756236330E-2,-1.908952370E-2,5.650499370E-3
9.371977892E2,3.512472380E-3,-4.581485875E-3,-1.404988952E-2
9.376977892E2,-1.771507785E-2,7.483093534E-3,-4.428769462E-3
9.381977892E2,3.207040019E-3,5.192350596E-3,-8.552107029E-3
9.386977892E2,-1.160643063E-2,8.857538924E-3,1.527161920E-3
9.391977892E2,-5.039634649E-3,9.010255337E-3,9.162971983E-4
9.396977892E2,1.802051067E-2,-2.321286127E-2,1.252272818E-2
9.401977892E2,8.704823442E-3,-3.711003438E-2,1.130099874E-2
9.406977892E2,-1.496618707E-2,3.665188700E-2,-5.497782957E-3
9.411977892E2,1.618791744E-2,-1.588248461E-2,1.069013402E-2
9.416977892E2,-3.817904973E-3,2.901607659E-3,1.832594397E-3
9.421977892E2,9.010255337E-3,-6.414080039E-3,3.970621154E-3
9.426977892E2,1.374445739E-3,-2.901607659E-3,-1.343902480E-2
9.431977892E2,-6.872228812E-3,3.420842811E-2,-4.321868345E-2
9.436977892E2,-4.413498193E-2,1.863137633E-2,1.435532235E-2
9.441977892E2,7.635809947E-3,7.177661173E-3,1.527161989E-2
9.446977892E2,1.099556591E-2,-3.817904973E-3,-1.160643063E-2
9.451977892E2,-1.740964688E-2,1.771507785E-2,-3.054323839E-3
9.456977892E2,-1.832594397E-3,-4.886918236E-3,-6.108647678E-3
9.461977892E2,-8.857538924E-3,3.512472380E-3,-1.985310577E-3
9.466977892E2,2.290742937E-3,-3.665188793E-3,-1.221729559E-3
9.471977892E2,-2.260199748E-2,-3.207040019E-3,-4.581485991E-4
9.476977892E2,-6.108647794E-4,-7.635809598E-4,-2.351829410E-2
9.481977892E2,-1.924224012E-2,5.955931731E-3,-1.649334840E-2
9.486977892E2,-3.573558852E-2,1.985310577E-3,-1.649334840E-2
9.491977892E2,-1.893680729E-2,-4.581485991E-4,1.435532235E-2
9.496977892E2,-2.535088919E-2,-2.504545636E-2,1.007926930E-2
9.501977892E2,-4.077522457E-2,7.024944760E-3,-8.704823442E-3
9.506977892E2,-9.605848789E-2,3.512472659E-2,-9.346231073E-2
9.511977892E2,-1.101083755E-1,4.978547990E-2,-2.399171442E-1
9.516977892E2,8.643736690E-2,8.368847519E-2,-3.947713673E-1
9.521977892E2,1.469129771E-1,3.940077871E-2,9.315688163E-3
9.526977892E2,2.070831656E-1,1.838703007E-1,-3.145953640E-2
