"Time (s)","Linear Acceleration x (m/s^2)","Linear Acceleration y (m/s^2)","Linear Acceleration z (m/s^2)"
0.000000000E0,-3.960394263E-1,6.586773396E-1,-1.313762665E-1
1.974777810E-1,9.964084029E-1,6.874389648E-1,-3.848333359E-1
6.974777810E-1,-3.754776716E-1,6.615788937E-1,-6.728601456E-1
1.197477781E0,-1.105015039E0,8.517927527E-1,-1.336908340E-1
1.697477781E0,-2.698050499E0,2.784270287E0,3.862303495E0
2.197477781E0,3.235731602E0,-1.288728714E-1,2.086840391E0
2.697477781E0,-1.050096035E0,-6.259875298E-1,-1.022011042E0
3.197477781E0,4.530978203E-1,-2.296228409E-1,-1.052240610E0
3.697477781E0,-1.721631765E0,-1.169751167E0,4.788742959E-1
4.197477781E0,-6.958417892E-1,-7.498755455E-1,-5.365531445E-1
4.697477781E0,3.027143478E-1,-1.647949219E-1,-3.395782113E-1
5.197477781E0,-1.007538319E0,-8.505477905E-1,4.564128518E-1
5.697477781E0,-1.750016212E-1,-4.025640488E-1,-6.173843145E-1
6.197477781E0,2.645874023E-2,-7.237911224E-2,-5.870530605E-1
6.697477781E0,1.232247353E-1,8.749961853E-2,-1.643276811E-1
7.197477781E0,1.986169815E-2,-2.100086212E-2,-3.281091452E-1
7.697477781E0,7.835745811E-1,2.089319229E-1,-2.079808712E-1
8.197477781E0,-8.570175171E-1,-9.933009148E-1,3.450092971E-1
8.697477781E0,4.134306908E-1,-1.845216751E-1,4.325478673E-1
9.197477781E0,-7.057313919E-1,-1.767349243E-1,-8.601938486E-1
9.697477781E0,-2.444224358E-1,-4.273509979E-1,-3.157969713E-1
1.019747778E1,-1.153454781E-1,-2.709712982E-1,-1.912343502E-1
1.069747778E1,4.004178047E-1,2.784223557E-1,2.198283672E-1
1.119747778E1,-6.259074211E-1,-1.149976730E0,-4.155700207E-1
1.169747778E1,8.454456329E-1,3.438053131E-1,3.457835317E-1
1.219747778E1,-6.411929131E-1,-7.030920982E-1,-4.152195454E-1
1.269747778E1,3.008623123E-1,4.275760651E-1,9.483993053E-2
1.319747778E1,-7.487468719E-1,-6.904115677E-1,-1.822515726E-1
1.369747778E1,2.822766304E-1,-6.492471695E-1,-2.653043270E-1
1.419747778E1,1.985268593E-1,-1.040496826E-1,2.538132668E-2
1.469747778E1,-8.284344673E-1,2.057414055E-1,-1.557255983E-1
1.519747778E1,-1.871170998E-1,2.330908775E-1,-2.860584259E-1
1.569747778E1,-3.609066010E-1,-1.419548988E-1,-1.767957211E-1
1.619747778E1,3.134603500E-1,3.169097900E-1,-1.335118532E0
1.669747778E1,8.149795532E-1,6.807255745E-1,-1.665349007E-1
1.719747778E1,-2.925000191E-1,3.646831512E-1,6.116794348E-1
1.769747778E1,-3.260412216E-1,2.447795868E-2,-1.019884825E0
1.819747778E1,3.868513107E-1,3.272876740E-1,-5.285397768E-1
1.869747778E1,3.418388367E-1,1.891736984E-1,-1.502457857E-1
1.919747778E1,4.111576080E-2,-9.031391144E-2,-1.189558506E-1
1.969747778E1,1.953220367E-2,7.029247284E-2,4.384517670E-3
2.019747778E1,1.823935509E-1,8.672332764E-2,-1.003940105E-1
2.069747778E1,-1.116619110E-1,6.251335144E-3,-2.555119991E-2
2.119747778E1,7.385349274E-2,9.932231903E-2,6.362736225E-2
2.169747778E1,-2.510433197E-1,-1.535806656E-1,-1.273633242E-1
2.219747778E1,3.900766373E-2,-2.062988281E-2,1.686477661E-2
2.269747778E1,-9.212398529E-2,7.199144363E-2,-7.900404930E-2
2.319747778E1,-3.521060944E-2,-4.920673370E-2,1.270359755E-1
2.369747778E1,-2.642784119E-1,-8.535385132E-4,3.446626663E-2
2.419747778E1,7.139205933E-3,-3.051881790E-1,-4.877078533E-2
2.469747778E1,-7.245540619E-3,-5.835819244E-2,-7.598364353E-2
2.519747778E1,-1.871371269E-1,2.368435860E-1,5.024433136E-3
2.569747778E1,-1.609416008E-1,1.570200920E-1,1.082233191E-1
2.619747778E1,2.492618561E-2,-3.551864624E-2,-8.036220074E-2
2.669747778E1,9.746551514E-4,6.226348877E-2,6.118988991E-2
2.719747778E1,7.125329971E-2,-2.679605484E-1,-9.822762012E-2
2.769747778E1,2.338418961E-1,-1.637315750E-1,-1.371902227E-1
2.819747778E1,-4.798173904E-2,-6.889200211E-2,2.075457573E-2
2.869747778E1,2.750468254E-1,3.729438782E-2,-3.833854198E-2
2.919747778E1,-1.803541183E-1,-4.869461060E-2,-4.326486588E-2
2.969747778E1,-2.176284790E-3,-6.306552887E-2,-7.933259010E-3
3.019747778E1,2.268505096E-2,-1.001477242E-1,-4.814231396E-2
3.069747778E1,2.006354332E-1,-1.166410446E-1,1.909048557E-1
3.119747778E1,-2.774109840E-1,1.718606949E-1,4.952490330E-2
3.169747778E1,-1.518087387E-1,-3.189754486E-2,4.717493057E-2
3.219747778E1,4.701042175E-2,9.524440765E-2,2.761256695E-2
3.269747778E1,-2.202415466E-1,7.578849792E-3,3.349852562E-2
3.319747778E1,2.472405434E-1,1.403679848E-1,6.843924522E-2
3.369747778E1,-2.092933655E-1,-6.417655945E-2,-8.542740345E-2
3.419747778E1,1.383624077E-1,3.564929962E-2,5.341088772E-2
3.469747778E1,-7.818365097E-2,-2.848148346E-2,-1.669360399E-1
3.519747778E1,-1.277542114E-2,-7.040023804E-3,-8.293795586E-2
3.569747778E1,-4.301595688E-2,2.167034149E-2,5.672502518E-2
3.619747778E1,1.178741455E-3,5.795383453E-2,2.894258499E-2
3.669747778E1,-2.602896690E-1,1.541848183E-1,1.372778416E-2
3.719747778E1,2.808365822E-1,-7.786083221E-2,-8.415961266E-2
3.769747778E1,-3.680276871E-2,-3.862476349E-2,4.283297062E-2
3.819747778E1,1.261525154E-1,-1.072139740E-1,-7.498610020E-2
3.869747778E1,-1.066160202E-1,8.928537369E-2,1.145585775E-1
3.919747778E1,-3.518486023E-2,7.325124741E-2,6.166279316E-2
3.969747778E1,-1.059069633E-1,6.352090836E-2,-1.373875141E-2
4.019747778E1,-5.342149734E-2,1.289358139E-1,1.354753971E-2
4.069747778E1,3.333425522E-2,-1.111621857E-1,-1.242156029E-1
4.119747778E1,2.206697464E-1,6.560802460E-3,6.434512138E-2
4.169747778E1,-6.608438492E-2,5.140304565E-3,4.420125484E-2
4.219747778E1,-4.573869705E-2,5.726051331E-2,-9.432554245E-3
4.269747778E1,-1.575655937E-1,-4.193782806E-3,-7.347106934E-2
4.319747778E1,-3.780603409E-2,4.230117798E-2,5.676031113E-2
4.369747778E1,8.493900299E-3,6.404399872E-3,4.118323326E-3
4.419747778E1,7.072925568E-3,2.827978134E-2,5.569171906E-2
4.469747778E1,-2.269268036E-3,-4.123783112E-2,1.047015190E-3
4.519747778E1,-3.983592987E-2,1.046323776E-2,-2.271938324E-2
4.569747778E1,9.082269669E-2,1.385688782E-2,1.997888088E-2
4.619747778E1,1.854276657E-2,-3.849363327E-2,-5.282759666E-3
4.669747778E1,-4.827547073E-2,2.424478531E-2,1.730334759E-2
4.719747778E1,1.849985123E-2,4.705095291E-2,-1.442444324E-2
4.769747778E1,-2.608299255E-4,-2.523899078E-2,-2.536344528E-2
4.819747778E1,-6.196737289E-2,5.226516724E-2,4.586637020E-2
4.869747778E1,3.537511826E-2,-5.039787292E-2,-2.675163746E-2
4.919747778E1,-6.326723099E-2,-5.350780487E-2,1.034033298E-2
4.969747778E1,1.530294418E-1,1.612329483E-2,-5.830526352E-3
5.019747778E1,3.441572189E-2,-5.215072632E-2,-1.334278584E-1
5.069747778E1,2.430758476E-1,-2.829332352E-1,3.072857857E-2
5.119747778E1,5.345153809E-2,-1.874117851E-1,3.091595173E-1
5.169747778E1,5.447411537E-1,-1.696105003E-1,-1.913236380E-1
5.219747778E1,-4.907903671E-1,1.888198853E-1,5.258274078E-2
5.269747778E1,2.344174385E-1,3.937735558E-1,2.038167715E-1
5.319747778E1,6.329126358E-1,-3.025426865E-1,-1.017010212E-1
5.369747778E1,-9.189414978E-2,-3.190231323E-1,1.386988163E-2
5.419747778E1,3.255138397E-1,-3.697776794E-2,1.041108370E-1
5.469747778E1,2.672853470E-1,1.438331604E-2,3.313498497E-1
5.519747778E1,-1.868963242E-2,1.374855042E-1,6.214940548E-2
5.569747778E1,-7.306385040E-2,-2.523026466E-1,-3.004806042E-1
5.619747778E1,-2.493238449E-1,-7.786083221E-2,-2.033054829E-1
5.669747778E1,-1.458024979E-2,3.963565826E-2,-8.180415630E-2
5.719747778E1,-2.157158852E-1,9.988212585E-2,1.651853323E-1
5.769747778E1,-1.599812508E-1,2.796549797E-1,8.354473114E-2
5.819747778E1,1.997284889E-1,-7.302570343E-2,-2.524105310E-1
5.869747778E1,8.019018173E-2,-1.654672623E-1,-1.785885096E-1
5.919747778E1,-1.739311218E-2,5.067253113E-2,1.427135468E-1
5.969747778E1,-2.451910973E-1,-5.193042755E-2,1.343333721E-2
6.019747778E1,1.033191681E-1,1.605281830E-1,2.477570772E-1
6.069747778E1,3.780746460E-2,-1.021327972E-1,-8.908712864E-2
6.119747778E1,3.696346283E-2,-4.705476761E-2,-8.299696445E-2
6.169747778E1,-7.171249390E-2,-2.671995163E-1,6.571543217E-2
6.219747778E1,2.063784599E-1,-1.436223984E-1,2.444608212E-1
6.269747778E1,-6.970648766E-1,-1.162967682E-1,-2.400708199E-2
6.319747778E1,3.069891930E-1,5.803236961E-1,3.324328661E-1
6.369747778E1,1.336517334E-1,-9.910435677E-1,-3.048704863E-1
6.419747778E1,1.325675964E0,1.862792969E-1,1.545901299E-1
6.469747778E1,-6.591691971E-1,-4.005961418E-1,-3.352653980E-2
6.519747778E1,4.751095772E-1,1.512055397E-1,1.578826904E-1
6.569747778E1,1.359419823E-1,6.450271606E-2,4.006874561E-2
6.619747778E1,1.462540627E-1,1.070356369E-2,1.735091209E-3
6.669747778E1,2.796125412E-2,1.385307312E-2,4.342734814E-2
6.719747778E1,1.844882965E-3,-1.613750458E-1,4.629576206E-2
6.769747778E1,3.070497513E-2,1.184458733E-1,1.723799706E-1
6.819747778E1,-2.194643021E-2,-3.069305420E-2,4.268336296E-2
6.869747778E1,6.515645981E-2,1.664710045E-1,1.213535070E-1
6.919747778E1,-1.993145943E-1,-6.828022003E-2,-1.837003231E-2
6.969747778E1,2.089419365E-1,5.250644684E-2,-8.285927773E-2
7.019747778E1,6.019401550E-2,-6.617689133E-2,-5.923068523E-2
7.069747778E1,-1.615381241E-2,-5.381774902E-2,-9.611022472E-2
7.119747778E1,1.920514107E-1,1.370739937E-1,3.167676926E-2
7.169747778E1,-3.273911476E-1,9.880542755E-3,-1.125601530E-1
7.219747778E1,-4.644823074E-2,1.916599274E-2,1.121816635E-1
7.269747778E1,-1.633071899E-2,5.706644058E-2,3.472697735E-2
7.319747778E1,-1.276121140E-1,-2.760314941E-2,-4.397356510E-2
7.369747778E1,5.609226227E-2,4.061222076E-3,2.677226067E-2
7.419747778E1,1.586117744E-1,6.582260132E-2,-8.031249046E-3
7.469747778E1,5.521774292E-3,3.112506866E-2,-2.699208260E-2
7.519747778E1,1.546320915E-1,1.145806313E-1,7.423996925E-3
7.569747778E1,1.171779633E-2,1.512455940E-1,1.165999174E-1
7.619747778E1,2.472214699E-1,2.725286484E-1,-2.640485764E-4
7.669747778E1,-2.847948074E-1,-6.197118759E-2,-6.193220615E-2
7.719747778E1,2.579922676E-1,6.198263168E-2,8.300781250E-3
7.769747778E1,-1.558704376E-1,-2.771315575E-1,-1.127018929E-1
7.819747778E1,3.706693649E-2,1.869926453E-1,1.978906393E-1
7.869747778E1,-2.683162689E-2,-4.941606522E-2,-3.492069244E-2
7.919747778E1,-2.475214005E-2,1.319360733E-1,6.671488285E-2
7.969747778E1,-1.655688286E-1,1.671791077E-2,-5.599451065E-2
8.019747778E1,-2.364487648E-1,8.354663849E-2,1.169004440E-1
8.069747778E1,4.895591736E-2,1.280293465E-1,1.352906227E-3
8.119747778E1,-6.070756912E-2,-5.019474030E-2,-1.613452435E-1
8.169747778E1,-2.158212662E-1,-6.889247894E-2,2.447056770E-2
8.219747778E1,-2.436652184E-1,7.405281067E-2,2.301770449E-1
8.269747778E1,-2.688837051E-2,4.716920853E-2,-7.168734074E-2
8.319747778E1,-5.518770218E-2,2.711296082E-2,6.194126606E-2
8.369747778E1,1.347112656E-2,3.215694427E-2,-7.603275776E-2
8.419747778E1,1.662731171E-2,1.316843033E-1,6.840062141E-2
8.469747778E1,-5.680561066E-2,7.668256760E-2,4.733204842E-3
8.519747778E1,1.393771172E-1,3.368949890E-2,-1.323008537E-2
8.569747778E1,-1.173682213E-1,6.282043457E-2,-1.958525181E-2
8.619747778E1,-1.250381470E-1,-3.268241882E-2,-1.359947920E-1
8.669747778E1,9.982728958E-2,-2.219305038E-1,-1.526815891E-1
8.719747778E1,3.445391655E-1,-6.025409698E-2,-3.774464130E-2
8.769747778E1,-1.476864815E-1,-2.999114990E-2,-1.368381977E-1
8.819747778E1,1.530027390E-2,6.721878052E-2,8.117282391E-2
8.869747778E1,-2.713918686E-2,-9.214401245E-3,-3.461217880E-2
8.919747778E1,1.518321037E-1,-3.535270691E-2,3.767132759E-3
8.969747778E1,-3.814363480E-2,-1.628627777E-1,-5.993497372E-2
9.019747778E1,2.251019478E-1,4.989528656E-2,2.101433277E-2
9.069747778E1,-4.110589027E-1,-7.332038879E-2,-1.873666048E-1
9.119747778E1,3.412885666E-1,1.285552979E-2,9.217250347E-2
9.169747778E1,2.744150162E-2,1.855468750E-2,1.105136871E-1
9.219747778E1,3.999662399E-2,3.382587433E-2,-4.886364937E-2
9.269747778E1,-3.438806534E-2,-1.772480011E-1,-2.532649040E-2
9.319747778E1,-9.910345078E-2,-5.597591400E-2,-8.978962898E-2
9.369747778E1,1.136765480E-1,1.224422455E-2,-5.487203598E-4
9.419747778E1,-1.086211205E-1,-1.568508148E-2,-5.520403385E-2
9.469747778E1,3.860473633E-2,-2.660274506E-2,9.464859962E-3
9.519747778E1,4.197359085E-2,2.865123749E-2,-5.042111874E-2
9.569747778E1,-4.210948944E-2,-3.567600250E-2,-2.494347095E-2
9.619747778E1,3.342914581E-2,8.027553558E-3,-6.647109985E-3
9.669747778E1,-1.424522400E-1,-4.628086090E-2,-4.181432724E-2
9.719747778E1,-1.202154160E-2,2.924728394E-2,4.744529724E-3
9.769747778E1,2.197551727E-2,7.615184784E-2,-8.252310753E-2
9.819747778E1,2.894306183E-1,5.618476868E-2,-1.586563587E-1
9.869747778E1,-1.259384155E-1,-1.183061600E-1,-6.263160706E-2
9.919747778E1,-4.255628586E-2,-7.977581024E-2,-5.094695091E-2
9.969747778E1,-1.080789566E-1,-8.507633209E-2,-5.615949631E-2
1.001974778E2,1.426606178E-1,5.855369568E-2,7.381749153E-2
1.006974778E2,-7.886314392E-2,-7.018184662E-2,-8.674550056E-2
1.011974778E2,1.282262802E-2,4.480171204E-2,2.176260948E-2
1.016974778E2,-1.880264282E-2,-3.074073792E-2,1.692056656E-3
1.021974778E2,-3.581047058E-2,2.260684967E-2,1.876926422E-2
1.026974778E2,4.355430603E-2,2.635288239E-2,8.092248440E-2
1.031974778E2,-8.066749573E-2,-4.175090790E-2,-2.766311169E-2
1.036974778E2,-1.662874222E-2,-3.386402130E-2,2.145458460E-1
1.041974778E2,9.030342102E-2,4.324817657E-2,2.598726749E-2
1.046974778E2,-7.886695862E-2,-1.346683502E-2,-1.144307852E-1
1.051974778E2,1.584267616E-1,5.174732208E-2,2.521014214E-2
1.056974778E2,-5.305099487E-2,-4.335498810E-2,-1.079833508E-2
1.061974778E2,8.015966415E-2,1.586914062E-2,3.846073151E-2
1.066974778E2,9.218883514E-2,2.069473267E-3,1.041013002E-1
1.071974778E2,-4.892778397E-2,-2.562904358E-2,1.409202814E-1
1.076974778E2,1.264667511E-2,-3.786754608E-2,-1.171404123E-1
1.081974778E2,4.968404770E-2,4.917430878E-2,4.386281967E-2
1.086974778E2,2.996540070E-2,1.930332184E-2,-7.697641850E-2
1.091974778E2,1.343107224E-2,1.576423645E-3,-2.513086796E-2
1.096974778E2,2.603912354E-2,1.476192474E-2,5.165171623E-2
1.101974778E2,3.696107864E-2,2.450942993E-4,2.839803696E-2
1.106974778E2,-5.587339401E-2,-3.458404541E-2,1.215379238E-1
1.111974778E2,-1.550245285E-2,1.077747345E-2,-2.537155151E-2
1.116974778E2,-1.504468918E-2,-5.226135254E-3,-4.561328888E-2
1.121974778E2,1.649236679E-2,-1.133918762E-2,-1.539568901E-1
1.126974778E2,-1.946449280E-3,4.582834244E-2,7.552409172E-2
1.131974778E2,1.203546524E-1,6.440162659E-3,2.350175381E-2
1.136974778E2,2.989721298E-2,1.128673553E-2,-1.312911510E-1
1.141974778E2,1.188707352E-2,2.097415924E-2,7.993459702E-3
1.146974778E2,9.337759018E-2,4.949998856E-2,-9.512042999E-2
1.151974778E2,-1.956257820E-1,-3.084564209E-2,-2.398433685E-1
1.156974778E2,6.607389450E-2,2.309942245E-2,-3.400969505E-2
1.161974778E2,9.858131409E-3,6.742000580E-3,-3.075313568E-2
1.166974778E2,-2.973604202E-2,-2.588748932E-2,-4.710459709E-2
1.171974778E2,-1.962709427E-1,-7.688474655E-2,3.603713512E-1
1.176974778E2,1.611957550E-1,-2.123546600E-2,2.673184872E-1
1.181974778E2,-5.286421776E-1,-4.589624405E-1,2.987831831E-1
1.186974778E2,2.850728035E-1,1.002149582E-1,2.331763506E-1
1.191974778E2,-6.664991379E-2,-6.344890594E-2,-2.013113499E-1
1.196974778E2,1.933617592E-1,1.045284271E-1,2.207803726E-2
1.201974778E2,-6.748104095E-2,-3.641128540E-2,3.408336639E-2
1.206974778E2,-8.043241501E-2,-3.739452362E-2,9.294509888E-3
1.211974778E2,7.433462143E-2,3.657245636E-2,2.146291733E-2
1.216974778E2,1.440715790E-2,-2.965927124E-4,3.734910488E-2
1.221974778E2,-9.623289108E-2,-3.795146942E-2,-2.044439316E-4
1.226974778E2,4.910087585E-2,1.086711884E-2,-1.881122589E-3
1.231974778E2,4.290103912E-3,-2.835273743E-3,-2.574920654E-3
1.236974778E2,-1.685380936E-2,-1.174259186E-2,2.383160591E-2
1.241974778E2,1.247406006E-3,1.413822174E-2,2.913117409E-3
1.246974778E2,-3.870487213E-3,-9.116172791E-3,2.398645878E-2
1.251974778E2,4.710102081E-2,2.494144440E-2,4.729449749E-2
1.256974778E2,1.948928833E-2,-3.462791443E-3,-7.155179977E-3
1.261974778E2,-2.058076859E-2,-4.248619080E-3,-3.285050392E-2
1.266974778E2,7.642745972E-3,-3.866195679E-3,-2.694439888E-2
1.271974778E2,1.534843445E-2,-1.444816589E-3,-7.643461227E-3
1.276974778E2,4.405355453E-2,1.257801056E-2,-3.197324276E-2
1.281974778E2,-2.668857574E-3,9.944915771E-3,2.253019810E-2
1.286974778E2,-4.490041733E-2,-5.046844482E-3,-7.969141006E-3
1.291974778E2,2.595758438E-2,1.900863647E-2,1.260268688E-2
1.296974778E2,-7.879257202E-3,-5.662918091E-3,-2.596855164E-2
1.301974778E2,2.889013290E-2,1.735973358E-2,-1.314675808E-2
1.306974778E2,-5.060672760E-3,-2.446174622E-3,-7.263362408E-2
1.311974778E2,-2.054214478E-3,-5.728721619E-3,1.866805553E-2
1.316974778E2,1.132535934E-2,-6.695747375E-2,-1.103320122E-1
1.321974778E2,-7.310438156E-2,-1.531620026E-1,2.708587646E-1
1.326974778E2,1.574549675E-1,-3.245067596E-2,1.729488373E-2
1.331974778E2,-2.707557678E-1,-7.843971252E-3,9.699666500E-2
1.336974778E2,1.771597862E-1,5.001068115E-2,-2.599194050E-1
1.341974778E2,-1.590585709E-1,-8.362388611E-2,-1.259541512E-2
1.346974778E2,4.896960258E-1,1.789531708E-1,5.496716499E-2
1.351974778E2,-7.619152069E-1,-2.023553848E-1,-5.695552826E-1
1.356974778E2,5.362229347E-1,2.381587029E-1,3.126060963E-2
1.361974778E2,2.830305099E-1,2.011966705E-2,-3.448891640E-2
1.366974778E2,-5.811262131E-2,8.983898163E-2,3.918683529E-2
1.371974778E2,-1.153826714E-1,-7.688713074E-2,1.494852304E-1
1.376974778E2,-9.151744843E-2,-1.019477844E-3,1.142648458E-1
1.381974778E2,9.553098679E-2,5.151462555E-2,-7.777321339E-2
1.386974778E2,2.057027817E-2,-1.718235016E-2,1.520228386E-2
1.391974778E2,-5.418825150E-2,-3.563213348E-2,-2.641665936E-2
1.396974778E2,-6.790590286E-2,-3.180217743E-2,-7.615089417E-3
1.401974778E2,5.070972443E-2,2.915000916E-2,-4.116106033E-2
1.406974778E2,2.422952652E-2,2.146100998E-2,-1.156532764E-2
1.411974778E2,8.326005936E-2,-4.370975494E-2,2.857651711E-1
1.416974778E2,-4.832172394E-2,-1.505393982E-1,5.170640945E-1
1.421974778E2,1.141352654E-1,3.975009918E-2,-1.444487572E-1
1.426974778E2,6.431188583E-1,1.555404663E-1,4.205715656E-2
1.431974778E2,-3.953375816E-1,-1.254539490E-1,-5.636501312E-2
1.436974778E2,4.759526253E-1,8.008003235E-2,1.244186163E-1
1.441974778E2,-5.180788040E-2,-5.669879913E-2,1.177552938E-1
1.446974778E2,5.532169342E-2,1.351642609E-2,-1.022303104E-2
1.451974778E2,1.100172997E-1,3.013229370E-2,2.932298183E-2
1.456974778E2,-6.745958328E-2,-5.165958405E-2,-3.587210178E-2
1.461974778E2,5.184078217E-2,1.233959198E-2,4.754030704E-2
1.466974778E2,3.555297852E-3,1.261997223E-2,-5.499160290E-2
1.471974778E2,-2.785205841E-3,-2.233791351E-2,5.220532417E-3
1.476974778E2,1.380209923E-1,4.424285889E-2,4.216921329E-2
1.481974778E2,1.000804901E-1,5.865907669E-2,2.364456654E-2
1.486974778E2,-7.147550583E-2,-4.039192200E-2,4.678452015E-2
1.491974778E2,1.049199104E-1,4.424571991E-2,-7.681131363E-2
1.496974778E2,3.221035004E-3,9.121894836E-3,-9.128689766E-3
1.501974778E2,1.023931503E-1,7.718420029E-2,-3.463506699E-3
1.506974778E2,-2.017307281E-2,-1.623058319E-2,-2.072513103E-2
1.511974778E2,7.335376740E-2,6.431150436E-2,5.994141102E-2
1.516974778E2,-6.360864639E-2,-6.567668915E-2,-1.375532150E-2
1.521974778E2,4.030799866E-2,2.483367920E-2,9.641647339E-4
1.526974778E2,1.024279594E-1,6.603956223E-2,-8.462071419E-3
1.531974778E2,2.870988846E-2,2.286958694E-2,-4.206395149E-2
1.536974778E2,-7.099580765E-2,2.529048920E-2,5.074286461E-2
1.541974778E2,1.108870506E-1,1.193828583E-1,-9.998965263E-2
1.546974778E2,-7.393836975E-2,-8.621692657E-2,1.384677887E-1
1.551974778E2,1.355624199E-1,7.448339462E-2,-5.771005154E-2
1.556974778E2,-1.668810844E-1,-1.172399521E-1,1.095008850E-2
1.561974778E2,-1.519680023E-3,1.973199844E-2,1.322400570E-2
1.566974778E2,-1.039900780E-1,-3.355884552E-2,-3.047120571E-2
1.571974778E2,1.844110489E-1,1.209263802E-1,1.440918446E-2
1.576974778E2,-3.858518600E-2,-1.035404205E-2,-5.708241463E-2
1.581974778E2,1.125931740E-1,2.229356766E-2,3.481674194E-2
1.586974778E2,-1.400423050E-2,-1.955986023E-3,-2.289593220E-2
1.591974778E2,2.433872223E-2,-1.117753983E-2,-3.036963940E-2
1.596974778E2,2.543973923E-2,7.848024368E-2,-5.490756035E-2
1.601974778E2,-1.625537872E-1,-3.605079651E-2,-4.881227016E-2
1.606974778E2,-1.375641823E-1,-1.371808052E-1,-3.802977800E-1
1.611974778E2,3.624472618E-1,2.363467216E-1,-4.667413235E-2
1.616974778E2,-1.247768402E-1,-1.012506485E-1,9.529709816E-3
1.621974778E2,-4.437685013E-2,-8.656930923E-2,1.780239344E-1
1.626974778E2,-1.820425987E-1,-2.396106720E-2,-2.720671892E-1
1.631974778E2,-9.300708771E-2,-7.999706268E-2,-6.451237202E-2
1.636974778E2,1.443576813E-2,2.016925812E-2,5.777025223E-2
1.641974778E2,1.593928337E-1,5.923795700E-2,-2.325987816E-2
1.646974778E2,-7.340955734E-2,1.043009758E-1,5.799710751E-2
1.651974778E2,-5.603265762E-2,-1.189231873E-2,1.300091743E-1
1.656974778E2,-1.290130615E-1,8.406066895E-2,2.398407459E-2
1.661974778E2,5.896091461E-2,6.641149521E-2,8.368051052E-2
1.666974778E2,-8.376550674E-2,1.146020889E-1,-1.474758387E-1
1.671974778E2,-6.672573090E-2,7.245731354E-2,1.573842764E-1
1.676974778E2,-6.539630890E-2,-5.652236938E-2,-3.895032406E-2
1.681974778E2,-4.462718964E-3,3.303289413E-2,-5.249273777E-2
1.686974778E2,-7.257032394E-2,8.379268646E-2,-6.203532219E-3
1.691974778E2,3.246116638E-2,-3.980398178E-2,2.244031429E-2
1.696974778E2,-1.366190910E-1,-1.166868210E-2,1.864016056E-2
1.701974778E2,3.718185425E-2,2.002668381E-2,1.662695408E-2
1.706974778E2,-9.182071686E-2,-2.399682999E-2,7.283329964E-3
1.711974778E2,1.345982552E-1,-1.413440704E-2,-1.096248627E-2
1.716974778E2,-9.477138519E-2,-1.024231911E-1,8.440613747E-3
1.721974778E2,-2.017688751E-2,1.287393570E-1,1.232769489E-1
1.726974778E2,1.479673386E-2,1.680612564E-2,-8.864796162E-2
1.731974778E2,2.979326248E-2,8.311748505E-3,-4.319775105E-2
1.736974778E2,-2.488756180E-2,1.187419891E-2,9.979045391E-2
1.741974778E2,-8.361196518E-2,4.105329514E-2,6.697785854E-2
1.746974778E2,-2.424860001E-2,9.758329391E-2,-5.361676216E-3
1.751974778E2,5.434083939E-2,7.714271545E-3,2.421033382E-2
1.756974778E2,7.055807114E-2,7.172918320E-2,9.063482285E-3
1.761974778E2,7.662534714E-2,-2.288675308E-2,1.260793209E-2
1.766974778E2,4.433441162E-2,-2.684783936E-2,2.030909061E-2
1.771974778E2,7.643222809E-3,5.902624130E-2,3.988397121E-2
1.776974778E2,-3.563737869E-2,-2.606010437E-2,2.854669094E-2
1.781974778E2,-3.752231598E-3,-5.354404449E-3,-9.441614151E-3
1.786974778E2,2.120161057E-2,5.600643158E-2,-3.522992134E-3
1.791974778E2,-2.976369858E-2,-2.786445618E-2,-3.571581841E-2
1.796974778E2,-1.012167931E-1,-9.384441376E-2,-3.721094131E-2
1.801974778E2,-4.715108871E-2,-9.940147400E-2,-2.589261532E-2
1.806974778E2,4.636096954E-2,-3.523635864E-2,1.320958138E-2
1.811974778E2,-2.797508240E-2,7.791090012E-2,-1.381398439E-1
1.816974778E2,8.536767960E-2,2.468299866E-2,3.961070180E-1
1.821974778E2,5.183935165E-1,-6.393432617E-3,5.211199522E-1
1.826974778E2,-7.300133705E-1,-2.909345627E-1,5.156324506E-1
1.831974778E2,3.804464340E-1,1.369142532E-1,4.711172581E-1
1.836974778E2,2.011628151E-1,6.816577911E-2,1.618689597E-1
1.841974778E2,1.156959534E-1,1.187753677E-1,9.086788446E-2
1.846974778E2,-7.051706314E-2,-1.491451263E-2,3.163696826E-2
1.851974778E2,-1.747512817E-2,1.833820343E-2,3.657725453E-2
1.856974778E2,-2.570104599E-2,-2.113056183E-2,-3.482744098E-2
1.861974778E2,-1.154193878E-1,-3.017902374E-2,2.255806327E-2
1.866974778E2,1.813631058E-1,7.414340973E-2,3.797468543E-2
1.871974778E2,8.044719696E-2,1.395320892E-2,-1.554322243E-2
1.876974778E2,6.750154495E-2,6.653022766E-2,6.140786409E-2
1.881974778E2,5.799293518E-3,5.922317505E-2,-6.793782115E-2
1.886974778E2,3.748893738E-3,7.234764099E-2,-3.959393501E-2
1.891974778E2,1.106686592E-1,4.968166351E-2,6.335026026E-2
1.896974778E2,5.306005478E-2,-4.803848267E-2,-4.064136744E-2
1.901974778E2,3.397035599E-2,-1.332120895E-1,1.033002138E-2
1.906974778E2,6.774330139E-2,-2.513313293E-2,2.245295048E-2
1.911974778E2,-2.640676498E-2,4.483699799E-2,-6.238132715E-2
1.916974778E2,1.261944771E-1,-8.509922028E-2,9.433627129E-4
1.921974778E2,8.937358856E-2,-8.171272278E-2,-7.589232922E-2
1.926974778E2,-1.605105400E-1,1.258993149E-1,9.698241949E-3
1.931974778E2,-7.555913925E-2,1.644802094E-2,4.239156842E-2
1.936974778E2,7.405185699E-2,7.691192627E-2,6.493610144E-2
1.941974778E2,-2.658605576E-2,-9.818935394E-2,7.776856422E-3
1.946974778E2,1.932749748E-1,-1.239871979E-2,-1.417082548E-2
1.951974778E2,-1.158995628E-1,1.947975159E-2,-4.279899597E-2
1.956974778E2,7.351589203E-2,2.031803131E-2,6.127840281E-2
1.961974778E2,-4.717445374E-2,-5.356788635E-3,-2.392023802E-2
1.966974778E2,9.442186356E-2,-3.929138184E-3,1.055204868E-2
1.971974778E2,-3.917264938E-2,7.468700409E-2,1.417899132E-2
1.976974778E2,-2.520561218E-3,-9.591102600E-3,6.000578403E-3
1.981974778E2,6.818675995E-2,-3.559780121E-2,5.730301142E-2
1.986974778E2,-1.016902924E-2,-5.183506012E-2,-1.179653406E-2
1.991974778E2,-1.051950455E-2,1.357364655E-2,1.540166140E-2
1.996974778E2,5.316400528E-2,1.716613770E-4,-2.287399769E-2
2.001974778E2,-2.914953232E-2,-3.040409088E-2,-6.097668409E-2
2.006974778E2,-4.373884201E-2,2.403259277E-3,-2.516764402E-2
2.011974778E2,1.698064804E-2,-6.297016144E-2,-1.123017073E-2
2.016974778E2,-4.476070404E-3,-6.673812866E-3,-6.745749712E-2
2.021974778E2,5.632066727E-2,-1.379966736E-3,1.554554701E-2
2.026974778E2,9.200286865E-2,-4.713726044E-2,-1.497036219E-2
2.031974778E2,-1.207718849E-1,1.586031914E-1,7.242161036E-2
2.036974778E2,-3.734159470E-2,2.919197083E-3,-1.004123688E-2
2.041974778E2,7.466268539E-2,1.151142120E-1,-6.142973900E-3
2.046974778E2,-6.601381302E-2,5.650520325E-3,7.120460272E-2
2.051974778E2,-1.651906967E-2,-6.964206696E-2,8.827799559E-2
2.056974778E2,1.542768478E-1,3.651905060E-2,-1.619051099E-1
2.061974778E2,1.577739716E-1,2.958011627E-2,-3.144520521E-2
2.066974778E2,-1.807322502E-1,-8.405685425E-2,1.675468683E-2
2.071974778E2,5.932760239E-2,-1.969480515E-1,5.421715975E-2
2.076974778E2,-3.337712288E-1,-1.181688309E-1,1.388106644E-1
2.081974778E2,1.671843529E-1,-4.347229004E-2,1.441247463E-1
2.086974778E2,-2.423644066E-1,6.257438660E-2,-1.871865988E-2
2.091974778E2,-3.761720657E-2,1.437954903E-1,1.613897085E-2
2.096974778E2,-1.731872559E-3,-6.732940674E-4,-1.911580563E-3
2.101974778E2,1.941347122E-2,2.009391785E-2,3.860944510E-2
2.106974778E2,-1.272368431E-1,-2.957630157E-2,-2.327400446E-2
2.111974778E2,-5.087804794E-2,5.655288696E-4,4.128539562E-2
2.116974778E2,1.223597527E-1,-5.576801300E-2,6.955420971E-2
2.121974778E2,4.532384872E-2,-2.729415894E-3,3.006839752E-2
2.126974778E2,2.133512497E-2,2.331447601E-2,2.787029743E-2
2.131974778E2,5.713701248E-2,8.938884735E-2,4.974746704E-2
2.136974778E2,-8.743524551E-2,-4.693031311E-2,-1.396149397E-2
2.141974778E2,-9.099960327E-2,-6.622028351E-2,-4.178982973E-2
2.146974778E2,7.495975494E-2,-3.630638123E-3,-1.297057867E-1
2.151974778E2,-1.071925163E-1,-3.715324402E-2,-2.447831631E-2
2.156974778E2,-5.017662048E-2,-1.332435608E-1,-4.764640331E-2
2.161974778E2,4.440593719E-2,1.749706268E-2,-2.298605442E-2
2.166974778E2,8.163785934E-2,3.161048889E-2,-6.895697117E-2
2.171974778E2,2.015619278E-1,2.528667450E-2,4.488790035E-2
2.176974778E2,-5.679130554E-4,9.922409058E-2,-1.640671492E-2
2.181974778E2,-4.007720947E-2,-1.624584198E-2,-6.396174431E-4
2.186974778E2,5.652761459E-2,-5.270957947E-3,6.989628077E-2
2.191974778E2,-1.485524178E-1,-5.291271210E-2,-3.831982613E-4
2.196974778E2,8.999252319E-2,-2.894592285E-2,1.579916477E-2
2.201974778E2,-1.227784157E-1,-1.488780975E-2,1.560771465E-2
2.206974778E2,-6.110239029E-2,4.470825195E-3,1.671242714E-2
2.211974778E2,1.044220924E-1,-1.814842224E-3,3.408968449E-3
2.216974778E2,-1.042609215E-1,-4.741668701E-3,4.654067755E-2
2.221974778E2,3.550386429E-2,-1.378536224E-2,2.462130785E-2
2.226974778E2,-2.248907089E-2,-4.931449890E-2,1.604104042E-2
2.231974778E2,-7.056713104E-3,2.827548981E-2,3.564149141E-2
2.236974778E2,7.286977768E-2,-2.508449554E-2,-4.812395573E-2
2.241974778E2,-9.253501892E-3,-1.297092438E-2,-4.381239414E-3
2.246974778E2,2.393293381E-2,3.609943390E-2,-9.015476704E-2
2.251974778E2,-5.794382095E-2,2.543449402E-2,-4.135024548E-2
2.256974778E2,-1.128950119E-1,8.686065674E-3,-3.036648035E-2
2.261974778E2,-1.091914177E-1,1.057949066E-1,3.816235065E-2
2.266974778E2,-8.563661575E-2,1.686573029E-2,-8.377492428E-3
2.271974778E2,2.458190918E-1,2.525424957E-2,2.447414398E-2
2.276974778E2,-6.517410278E-2,-1.134300232E-1,-1.600562334E-1
2.281974778E2,-1.161074638E-1,1.694869995E-2,-1.762980223E-2
2.286974778E2,-1.620917320E-1,-8.087253571E-2,-3.568238020E-2
2.291974778E2,-1.125097275E-2,-5.121421814E-2,-1.270425320E-2
2.296974778E2,1.271500587E-1,6.534576416E-3,-3.326511383E-2
2.301974778E2,-4.528236389E-2,-3.893756866E-2,-7.176399231E-5
2.306974778E2,3.738737106E-2,1.133918762E-3,2.189511061E-2
2.311974778E2,-7.969474792E-2,-3.137111664E-2,-2.997344732E-2
2.316974778E2,6.579542160E-2,6.530857086E-2,3.369128704E-2
2.321974778E2,3.183937073E-2,-9.447193146E-2,-7.356792688E-2
2.326974778E2,4.207992554E-2,-8.748054504E-3,-2.126044035E-2
2.331974778E2,1.319928169E-1,6.562709808E-2,-6.947988272E-2
2.336974778E2,-3.320631981E-1,-3.541946411E-3,-1.505016088E-1
2.341974778E2,-1.146283150E-1,4.498577118E-2,-9.311687946E-2
2.346974778E2,2.802896500E-2,7.898616791E-2,-2.256512642E-3
2.351974778E2,-1.398515701E-1,-3.259849548E-2,-8.483493328E-2
2.356974778E2,7.006502151E-2,3.561353683E-2,-6.359457970E-3
2.361974778E2,-3.459596634E-2,1.783180237E-2,9.810924530E-3
2.366974778E2,4.832124710E-2,3.788089752E-2,-1.373744011E-2
2.371974778E2,3.825187683E-2,3.307390213E-2,-1.930558681E-2
2.376974778E2,-5.188989639E-2,-4.878711700E-2,-9.992957115E-3
2.381974778E2,6.417036057E-2,4.496049881E-2,-4.950535297E-2
2.386974778E2,-8.745193481E-4,-8.700370789E-3,2.890384197E-2
2.391974778E2,7.368516922E-2,-1.577949524E-2,8.933103085E-2
2.396974778E2,-3.452539444E-2,4.639911652E-2,1.978090405E-1
2.401974778E2,-5.305719376E-2,-6.184959412E-2,-2.808964252E-2
2.406974778E2,1.473193169E-1,5.553913116E-2,1.780869961E-1
2.411974778E2,1.796231270E-1,8.885478973E-2,1.737010479E-2
2.416974778E2,-4.986047745E-2,-2.375507355E-2,-3.301882744E-2
2.421974778E2,-3.731250763E-3,-6.257534027E-2,1.737095118E-1
2.426974778E2,2.306079865E-2,1.015443802E-1,1.011571288E-1
2.431974778E2,-1.083254814E-1,-1.181077957E-1,-1.225507259E-2
2.436974778E2,2.682924271E-2,1.755523682E-2,-1.019065380E-1
2.441974778E2,-4.871940613E-2,-4.047298431E-2,-6.487250328E-3
2.446974778E2,-9.004116058E-3,2.189922333E-2,-4.268908501E-2
2.451974778E2,1.181807518E-1,-8.293914795E-2,3.428995609E-2
2.456974778E2,-3.569173813E-2,-1.269540787E-1,1.216544509E-1
2.461974778E2,1.280488968E-1,6.570816040E-2,1.674926281E-2
2.466974778E2,-2.252578735E-2,7.355690002E-3,4.834783077E-2
2.471974778E2,-7.295227051E-2,-8.157634735E-2,3.826391697E-2
2.476974778E2,2.597570419E-2,8.238029480E-2,1.125240326E-2
2.481974778E2,-7.832050323E-3,-3.430461884E-2,-7.892537117E-2
2.486974778E2,-2.071237564E-2,1.283740997E-2,1.303946972E-2
2.491974778E2,-5.248689651E-2,-6.419181824E-3,-2.490723133E-2
2.496974778E2,-2.010011673E-2,-1.772212982E-2,1.143753529E-2
2.501974778E2,-6.870937347E-2,-3.958988190E-2,-2.785086632E-3
2.506974778E2,1.283884048E-2,1.792049408E-2,2.060449123E-2
2.511974778E2,1.570224762E-3,-8.942604065E-3,-2.196991444E-2
2.516974778E2,6.273889542E-2,-2.545261383E-2,-1.304745674E-2
2.521974778E2,-6.070423126E-2,2.244281769E-2,1.743720770E-1
2.526974778E2,8.801126480E-2,1.667022705E-2,-8.671438694E-2
2.531974778E2,1.079893112E-2,1.309299469E-2,5.743861198E-3
2.536974778E2,-5.138540268E-2,-5.743980408E-3,1.218438148E-3
2.541974778E2,-2.267360687E-3,1.393413544E-2,-3.255450726E-2
2.546974778E2,-1.098823547E-2,-2.471256256E-2,3.168070316E-2
2.551974778E2,-3.401350975E-1,-2.323751450E-1,-1.250751019E-1
2.556974778E2,5.030035973E-1,4.097180367E-1,-1.223052144E0
2.561974778E2,3.763408661E-1,1.403388977E-1,-5.701378584E-1
2.566974778E2,4.960751534E-1,3.246979713E-1,-3.002326488E-1
2.571974778E2,9.914159775E-2,-4.587268829E-2,-1.150231361E-1
2.576974778E2,-5.916833878E-2,-6.027030945E-2,6.175768375E-2
2.581974778E2,-7.162046432E-2,1.288986206E-2,7.871159911E-2
2.586974778E2,1.819505692E-1,1.005377769E-1,7.831187546E-2
2.591974778E2,1.074891090E-1,5.540370941E-2,2.468028963E-1
2.596974778E2,3.347964287E-1,1.946001053E-1,2.842274606E-1
2.601974778E2,-2.821211815E-1,-4.132633209E-1,7.945668697E-2
2.606974778E2,5.975494385E-1,1.566243172E-1,5.450937748E-1
2.611974778E2,-3.241229057E-1,-4.081249237E-3,2.802973390E-1
2.616974778E2,-8.452463150E-2,3.826093674E-2,-5.622878671E-3
2.621974778E2,-2.004003525E-2,-1.205434799E-1,1.050347462E-2
2.626974778E2,9.421110153E-2,-3.109931946E-2,1.817066669E-1
2.631974778E2,-5.012249947E-1,-4.374942780E-1,-2.154248953E-2
2.636974778E2,-1.299328804E-1,-2.404651642E-1,-6.675288081E-3
2.641974778E2,-8.694195747E-1,-1.822092056E0,5.439280272E-1
2.646974778E2,-9.770307541E-1,-1.219125986E0,-2.382330596E-1
2.651974778E2,7.990837097E-2,4.634444714E-1,4.282828867E-1
2.656974778E2,1.005220413E-1,1.958339214E-1,-1.778525710E-1
2.661974778E2,6.529426575E-2,1.769409180E-1,9.187271446E-2
2.666974778E2,1.111412048E-2,1.610844135E-1,-1.050080732E-1
2.671974778E2,6.577396393E-2,3.352963924E-1,-1.290797293E-1
2.676974778E2,-7.551956177E-2,8.907365799E-2,4.275516570E-1
2.681974778E2,-2.871236801E-1,-4.706039429E-1,3.056124151E-1
2.686974778E2,-5.899524689E-2,-6.189870834E-2,4.946270585E-2
2.691974778E2,-5.038928986E-2,-2.026081085E-3,3.710296750E-2
2.696974778E2,-5.771160126E-2,-3.691959381E-2,4.281201959E-2
2.701974778E2,-4.443264008E-2,-2.573156357E-2,-7.303267717E-3
2.706974778E2,4.100704193E-2,3.039026260E-2,3.453353047E-2
2.711974778E2,-1.707744598E-2,-2.623605728E-2,-4.634595662E-2
2.716974778E2,-1.703834534E-2,-1.243448257E-2,-4.050001875E-2
2.721974778E2,1.261043549E-2,-3.201341629E-2,-1.396797597E-2
2.726974778E2,7.935380936E-2,-6.572628021E-2,-2.122652531E-1
2.731974778E2,-3.656167984E-1,1.221003532E-1,7.041915655E-1
2.736974778E2,3.083848953E-2,7.485151291E-2,4.409528524E-2
2.741974778E2,-9.750843048E-3,-3.929328918E-2,1.203543469E-1
2.746974778E2,-2.777481079E-2,-3.016901016E-2,-5.288619548E-2
2.751974778E2,-4.978227615E-2,-6.898260117E-2,2.491007745E-2
2.756974778E2,-8.595466614E-3,-4.137754440E-2,2.747170627E-2
2.761974778E2,-3.736495972E-3,-1.729011536E-2,3.961980343E-3
2.766974778E2,5.170822144E-3,1.758718491E-2,4.827894270E-3
2.771974778E2,1.997137070E-2,9.822845459E-3,-3.476052359E-2
2.776974778E2,-4.476547241E-3,-1.968097687E-2,-1.525439322E-2
2.781974778E2,-2.579164505E-2,-4.391574860E-2,2.079421282E-2
2.786974778E2,-8.582592010E-3,-4.837942123E-2,-1.120219827E-1
2.791974778E2,4.366445541E-2,5.110025406E-2,-2.498731017E-2
2.796974778E2,-1.943969727E-2,-4.246997833E-2,-1.810318232E-2
2.801974778E2,2.237033844E-2,1.849174500E-2,-6.454169750E-3
2.806974778E2,1.070737839E-2,-1.825284958E-2,-9.975969791E-3
2.811974778E2,2.519464493E-2,3.292608261E-2,1.283615828E-2
2.816974778E2,-3.364372253E-2,-7.080888748E-2,1.967218518E-1
2.821974778E2,2.006497383E-1,1.729402542E-1,-6.873309612E-2
2.826974778E2,1.727962494E-2,9.262275696E-2,7.639384270E-2
2.831974778E2,-1.331281662E-2,-2.139997482E-2,1.967504621E-2
2.836974778E2,2.137517929E-2,-4.949188232E-2,1.056602597E-2
2.841974778E2,1.782679558E-1,2.076010704E-1,6.344339252E-2
2.846974778E2,5.534267426E-1,1.886744499E-1,1.659552455E-1
2.851974778E2,-2.819890976E-1,-1.727676392E-1,-2.469748259E-2
2.856974778E2,1.746368408E-2,-1.005935669E-2,-3.338897228E-2
2.861974778E2,-2.855205536E-2,-2.229022980E-2,9.251564741E-3
2.866974778E2,1.173830032E-2,1.473426819E-3,-1.923656464E-2
2.871974778E2,-1.063346863E-3,-1.363086700E-2,2.384591103E-2
2.876974778E2,9.693145752E-3,1.193046570E-3,6.539374590E-3
2.881974778E2,-6.765794754E-2,-5.597019196E-2,-4.034191370E-3
2.886974778E2,-3.608226776E-3,-2.127742767E-2,-1.554217935E-2
2.891974778E2,-1.232509613E-1,-7.224559784E-2,-4.180938005E-3
2.896974778E2,8.130455017E-2,7.963418961E-2,-3.764808178E-3
2.901974778E2,3.480958939E-2,3.878402710E-2,4.159250855E-2
2.906974778E2,-8.224630356E-2,-5.088567734E-2,2.383670211E-2
2.911974778E2,-2.232503891E-2,9.679794312E-5,3.178095818E-2
2.916974778E2,-2.272510529E-2,-2.074098587E-2,1.081734896E-2
2.921974778E2,1.554193497E-1,8.780717850E-2,-4.100859165E-2
2.926974778E2,-2.054724693E-1,-1.231489182E-1,2.493304014E-2
2.931974778E2,-9.349584579E-2,-6.868362427E-2,-2.510656714E-1
2.936974778E2,-1.259627342E-1,7.484483719E-2,-1.337774992E-1
2.941974778E2,4.868984222E-2,-2.054958344E-1,-3.572921753E-1
2.946974778E2,6.334514618E-1,3.704929352E-1,4.841620326E-1
2.951974778E2,-4.193096161E-1,-6.827287674E-1,5.030872822E-1
2.956974778E2,3.340916634E-1,1.326131821E-1,2.811931968E-1
2.961974778E2,7.957077026E-2,-2.429704666E-1,-3.807735443E-2
2.966974778E2,3.446335793E-1,7.148361206E-2,-1.466305256E-1
2.971974778E2,2.362542152E-1,1.628541946E-1,5.193215013E-1
2.976974778E2,-9.735584259E-2,-4.668521881E-2,3.690643311E-1
2.981974778E2,3.714966774E-1,1.316709518E-1,-3.794412613E-1
2.986974778E2,-1.475610733E-1,-5.087471008E-2,1.162896156E-1
2.991974778E2,7.583427429E-2,4.375457764E-3,-1.624943018E-1
2.996974778E2,-2.867984772E-2,-4.032516479E-2,-9.180474281E-2
3.001974778E2,1.131510735E-1,6.416225433E-2,4.630446434E-3
3.006974778E2,5.204820633E-2,3.694152832E-2,4.162847996E-2
3.011974778E2,-1.354775429E-1,-7.456302643E-2,-6.877040863E-2
3.016974778E2,-5.419874191E-2,-4.804611206E-2,5.764806271E-2
3.021974778E2,2.258877754E-1,9.530448914E-2,3.561429977E-1
3.026974778E2,-1.031589508E-1,-7.113075256E-2,9.307444096E-3
3.031974778E2,9.020614624E-2,-1.666831970E-2,8.634406328E-2
3.036974778E2,6.244134903E-2,2.579879761E-2,-1.106044054E-1
3.041974778E2,-4.798030853E-2,-3.362846375E-2,-2.381354570E-2
3.046974778E2,1.709985733E-2,-3.405570984E-3,1.036123633E-1
3.051974778E2,8.093357086E-3,1.434850693E-2,3.576755524E-3
3.056974778E2,-2.965641022E-2,1.173019409E-3,-3.202068806E-2
3.061974778E2,4.362583160E-3,2.914428711E-3,5.181223154E-2
3.066974778E2,3.261995316E-2,-2.604293823E-2,1.319254637E-1
3.071974778E2,1.096487045E-1,6.341266632E-2,5.921053886E-2
3.076974778E2,-4.638528824E-2,-4.671525955E-2,-3.985828161E-2
3.081974778E2,5.317354202E-2,5.061435699E-2,-1.198928952E-1
3.086974778E2,1.376008987E-2,-4.068756104E-2,-4.148477316E-2
3.091974778E2,3.947973251E-2,1.315593719E-2,-8.456408978E-3
3.096974778E2,4.904937744E-2,-1.577105999E0,-8.177144527E-1
3.101974778E2,1.024827957E-1,1.134091854E0,9.790131450E-1
3.106974778E2,5.258784294E-1,3.320388794E-1,8.709602952E-1
3.111974778E2,1.050757885E0,5.477075577E-1,7.625123262E-1
3.116974778E2,4.007644653E-1,9.102630615E-2,-1.941776276E-1
3.121974778E2,-1.312713623E-1,-5.998134613E-2,-2.624714375E-2
3.126974778E2,1.312470436E-1,4.912090302E-2,-2.360343933E-3
3.131974778E2,-1.784462929E-1,-1.236772537E-1,-9.901762009E-2
3.136974778E2,7.581853867E-2,3.764533997E-2,3.165960312E-3
3.141974778E2,-2.875800133E-1,-1.945238113E-1,-4.820251465E-2
3.146974778E2,2.655110359E-1,1.831121445E-1,-1.456272602E-2
3.151974778E2,-2.849884033E-1,-1.021013260E-1,6.681382656E-2
3.156974778E2,-7.152748108E-2,-2.556800842E-3,-1.941163540E-1
3.161974778E2,-3.475141525E-2,6.164836884E-2,-1.120620966E-1
3.166974778E2,-1.913094521E-1,-1.278619766E-1,8.806931973E-2
3.171974778E2,-1.956591606E-1,5.391597748E-2,1.986956596E-1
3.176974778E2,1.503403187E-1,2.048196793E-1,-6.368725300E-1
3.181974778E2,1.193885803E-1,4.068365097E-1,-1.910824776E-1
3.186974778E2,-6.022915840E-1,-5.502700806E-4,-4.152231216E-1
3.191974778E2,5.301260948E-2,2.236280441E-1,-1.207916737E-1
3.196974778E2,-1.464495659E-1,5.316638947E-2,1.069595814E-1
3.201974778E2,1.047384739E-1,5.187129974E-2,-7.315516472E-2
3.206974778E2,-1.324608326E-1,3.818702698E-2,3.622627258E-2
3.211974778E2,2.793333530E-1,1.526060104E-1,-5.309152603E-2
3.216974778E2,-8.712530136E-3,-1.527690887E-2,8.180856705E-3
3.221974778E2,1.590633392E-2,1.256561279E-2,-3.276824951E-2
3.226974778E2,-6.593942642E-3,2.406978607E-2,1.360630989E-2
3.231974778E2,-1.061162949E-1,-4.647350311E-2,1.153748035E-1
3.236974778E2,2.952401638E-1,1.299176216E-1,-1.543874741E-1
3.241974778E2,-1.070458889E-1,-6.718635559E-3,2.174782753E-2
3.246974778E2,1.901619434E-1,-8.564853668E-2,-7.946825027E-2
3.251974778E2,-1.501095295E-1,-6.634712219E-3,7.375741005E-2
3.256974778E2,-1.133654118E-1,-6.445884705E-3,5.413985252E-2
3.261974778E2,8.727335930E-2,-4.211139679E-2,-2.265310287E-2
3.266974778E2,9.597516060E-2,4.731178284E-3,2.676010132E-3
3.271974778E2,5.263566971E-2,3.679275513E-3,-2.443647385E-2
3.276974778E2,-1.941854954E-1,-4.354667664E-2,1.737833023E-2
3.281974778E2,-3.900980949E-2,-2.587223053E-2,-6.000685692E-2
3.286974778E2,3.926634789E-2,5.651664734E-2,-4.310607910E-2
3.291974778E2,-5.011343956E-2,4.952621460E-2,-6.625962257E-2
3.296974778E2,-1.851172447E-1,-1.482820511E-1,-9.827685356E-2
3.301974778E2,2.288565636E-1,1.367769241E-1,5.580329895E-2
3.306974778E2,8.476400375E-2,3.783226013E-2,2.048194408E-1
3.311974778E2,-1.228761673E-2,-2.783775330E-3,5.763268471E-2
3.316974778E2,-3.776550293E-3,-4.047107697E-2,6.357741356E-2
3.321974778E2,-4.893875122E-2,-7.329273224E-2,6.421947479E-2
3.326974778E2,-6.116628647E-2,2.142810822E-2,-3.541469574E-3
3.331974778E2,8.834886551E-2,-4.686355591E-2,9.120082855E-2
3.336974778E2,-1.978411674E-1,-1.333713531E-1,-5.003690720E-3
3.341974778E2,7.089376450E-2,-6.098747253E-3,6.451606750E-4
3.346974778E2,-1.346983910E-1,-5.214595795E-2,8.014273643E-2
3.351974778E2,-4.058313370E-2,-1.378173828E-1,3.534579277E-2
3.356974778E2,-2.041668892E-1,-2.364692688E-1,1.003987789E-1
3.361974778E2,1.292915344E-1,-3.774356842E-2,7.090091705E-2
3.366974778E2,-3.077178001E-1,-1.284379959E-1,-3.345441818E-2
3.371974778E2,-2.060489655E-1,-1.510038376E-1,3.247213364E-2
3.376974778E2,6.639480591E-2,6.894111633E-3,-1.174831390E-2
3.381974778E2,-1.109595299E-1,-1.346302032E-2,-1.311278343E-2
3.386974778E2,-1.678843498E-1,-3.474998474E-2,5.079722404E-2
3.391974778E2,2.515058517E-1,4.397487640E-2,-6.129884720E-2
3.396974778E2,-1.420083046E-1,-6.771373749E-2,-6.959462166E-2
3.401974778E2,8.595705032E-2,1.099290848E-1,-9.321093559E-2
3.406974778E2,-4.109048843E-2,2.641391754E-2,2.383947372E-2
3.411974778E2,2.077040672E-1,7.701110840E-2,-9.468317032E-3
3.416974778E2,-3.709411621E-2,4.831886292E-2,-1.316974163E-1
3.421974778E2,2.351093292E-1,2.475166321E-2,-2.358555794E-2
3.426974778E2,1.100096703E-1,2.084732056E-3,3.110003471E-2
3.431974778E2,-9.911775589E-2,-1.404762268E-2,-1.428246498E-2
3.436974778E2,1.502256393E-1,7.135963440E-2,-6.881213188E-2
3.441974778E2,6.612062454E-2,-1.448631287E-2,-2.466058731E-2
3.446974778E2,3.275346756E-2,-2.523326874E-2,-1.667428017E-2
3.451974778E2,-6.041193008E-2,-8.554744720E-2,9.217739105E-3
3.456974778E2,-1.871032715E-1,2.048015594E-2,-1.377630234E-2
3.461974778E2,2.426939011E-1,8.583068848E-2,-4.599213600E-2
3.466974778E2,-8.321237564E-2,-5.076408386E-2,2.323651314E-2
3.471974778E2,2.941513062E-2,2.457714081E-2,-5.741524696E-2
3.476974778E2,-1.168098450E-1,-4.489517212E-2,-2.074861526E-2
3.481974778E2,2.486610413E-2,3.745365143E-2,1.182675362E-2
3.486974778E2,8.186197281E-2,3.677463531E-2,1.925706863E-3
3.491974778E2,-4.694175720E-2,-1.754093170E-2,-3.260564804E-2
3.496974778E2,-5.593967438E-2,9.489059448E-4,-8.680820465E-4
3.501974778E2,5.654335022E-3,-2.295970917E-2,7.505178452E-3
3.506974778E2,9.188127518E-2,3.199005127E-2,-1.517105103E-2
3.511974778E2,-1.259679794E-1,-3.170967102E-2,-5.082249641E-2
3.516974778E2,1.452217102E-1,8.146381378E-2,5.850434303E-2
3.521974778E2,-9.370851517E-2,-6.402683258E-2,1.508741379E-1
3.526974778E2,-1.764335632E-1,3.633785248E-2,-5.201411247E-2
3.531974778E2,-2.662425041E-1,-1.076040268E-1,2.494454384E-2
3.536974778E2,1.696467400E-1,3.584766388E-2,7.704734802E-3
3.541974778E2,8.133411407E-3,-2.269649506E-2,-1.915907860E-2
3.546974778E2,-1.575469971E-3,-3.875446320E-2,-5.845594406E-2
3.551974778E2,1.245417595E-1,2.372074127E-2,-5.122184753E-3
3.556974778E2,-1.972641945E-1,-1.421899796E-1,1.854658127E-2
3.561974778E2,6.651353836E-2,-5.616664886E-2,6.628417969E-2
3.566974778E2,-1.837887764E-1,-8.392429352E-2,4.157686234E-2
3.571974778E2,-9.412145615E-2,-2.431297302E-2,5.789446831E-2
3.576974778E2,-1.532473564E-1,-7.251453400E-2,1.813817024E-2
3.581974778E2,-7.284545898E-2,-7.978534698E-2,4.721570015E-2
3.586974778E2,-1.778655052E-1,-1.138687134E-1,3.947949409E-2
3.591974778E2,8.004331589E-2,-8.405780792E-2,-1.054859161E-2
3.596974778E2,-3.503465652E-2,6.084251404E-2,2.468323708E-2
3.601974778E2,7.407236099E-2,-1.019763947E-2,-5.109310150E-4
3.606974778E2,-9.375095367E-2,-2.115535736E-2,-6.605625153E-2
3.611974778E2,-8.739995956E-2,2.831268311E-2,-9.349703789E-2
3.616974778E2,-4.494190216E-3,6.120204926E-2,-4.402613640E-2
3.621974778E2,1.224188805E-1,1.920890808E-2,-6.269216537E-2
3.626974778E2,-3.823995590E-2,-3.207111359E-2,-4.395556450E-2
3.631974778E2,1.473712921E-2,-2.633094788E-3,-6.928944588E-2
3.636974778E2,-5.999660492E-2,3.353023529E-2,-6.098580360E-2
3.641974778E2,-8.706569672E-3,-2.210330963E-2,-5.141639709E-2
3.646974778E2,1.004991531E-1,4.352569580E-2,-1.009948254E-1
3.651974778E2,2.265267372E-1,4.339122772E-2,-1.498103142E-2
3.656974778E2,-1.120777130E-1,-1.462268829E-2,-3.333580494E-1
3.661974778E2,-1.163468361E-1,4.498481750E-2,-6.994915009E-2
3.666974778E2,2.811627388E-1,1.426057816E-1,-1.870608330E-2
3.671974778E2,8.781099319E-2,7.392024994E-2,-8.486366272E-2
3.676974778E2,-8.124971390E-2,1.269626617E-2,-7.037234306E-2
3.681974778E2,-1.124014854E-1,-8.588790894E-3,3.631424904E-2
3.686974778E2,3.712277412E-1,1.846847534E-1,1.318540573E-1
3.691974778E2,-2.515401840E-1,-3.549289703E-2,4.022216797E-2
3.696974778E2,1.584863663E-2,-5.415916443E-3,3.373289108E-2
3.701974778E2,1.565070152E-1,5.740261078E-2,-4.997825623E-2
3.706974778E2,1.158499718E-1,3.782176971E-2,-1.187086105E-3
3.711974778E2,-1.050004959E-1,-2.686595917E-2,-8.239293098E-2
3.716974778E2,-1.676664352E-1,-5.869770050E-2,6.007099152E-2
3.721974778E2,1.115422249E-1,4.534912109E-2,4.052186012E-2
3.726974778E2,6.291770935E-2,6.419086456E-2,-2.844786644E-2
3.731974778E2,1.046338081E-1,-2.463626862E-2,-7.447075844E-2
3.736974778E2,3.311157227E-2,2.436733246E-2,2.583980560E-2
3.741974778E2,-1.126689911E-1,-6.394004822E-2,1.524848938E-1
3.746974778E2,1.660242081E-1,3.366470337E-4,-4.873752594E-3
3.751974778E2,-1.102895737E-1,-2.629375458E-2,2.765178680E-2
3.756974778E2,1.019196510E-1,3.107166290E-2,4.436945915E-2
3.761974778E2,1.065526009E-1,6.586074829E-3,6.311798096E-2
3.766974778E2,1.059165001E-1,-2.092647552E-2,2.961707115E-2
3.771974778E2,-1.675653458E-2,-3.213691711E-2,-4.613637924E-3
3.776974778E2,2.950191498E-3,2.609729767E-2,-2.192401886E-2
3.781974778E2,5.221509933E-2,5.166053772E-3,-2.057790756E-2
3.786974778E2,-2.141380310E-1,-6.797409058E-2,-5.601048470E-2
3.791974778E2,-1.454777718E-1,-6.161880493E-2,-2.767181396E-2
3.796974778E2,-6.604385376E-2,-1.842403412E-2,3.319668770E-2
3.801974778E2,1.515388489E-3,3.485679626E-3,-1.455283165E-2
3.806974778E2,3.072404861E-2,5.145072937E-3,7.712936401E-2
3.811974778E2,6.099843979E-2,4.253578186E-2,-9.191036224E-3
3.816974778E2,-1.010503769E-1,-4.889011383E-2,-9.973096848E-2
3.821974778E2,-8.106231689E-5,2.221107483E-3,9.486675262E-4
3.826974778E2,6.591272354E-2,2.609729767E-2,3.867149353E-4
3.831974778E2,2.366971970E-2,3.193855286E-2,-1.008653641E-2
3.836974778E2,-8.384227753E-3,-2.831459045E-3,-4.498243332E-3
3.841974778E2,1.070356369E-2,4.538536072E-3,-4.162549973E-3
3.846974778E2,5.325937271E-2,3.361415863E-2,3.153634071E-2
3.851974778E2,1.583337784E-2,6.590843201E-3,-7.435083389E-3
3.856974778E2,8.388042450E-3,4.219055176E-3,1.471233368E-2
3.861974778E2,1.339912415E-4,-7.256507874E-3,-2.363920212E-3
3.866974778E2,2.170753479E-2,8.841514587E-3,8.482933044E-3
3.871974778E2,-6.959295273E-2,-3.435897827E-2,9.252309799E-3
3.876974778E2,1.828622818E-2,2.177238464E-2,2.461409569E-2
3.881974778E2,-6.820726395E-2,-1.336193085E-2,-1.363611221E-2
3.886974778E2,4.399013519E-2,6.049156189E-3,-8.368492126E-3
3.891974778E2,-2.337455750E-3,5.995750427E-3,1.816630363E-2
3.896974778E2,8.881139755E-2,5.811977386E-2,-1.738166809E-2
3.901974778E2,-1.824998856E-2,-3.205299377E-3,-4.103255272E-2
3.906974778E2,-6.790161133E-4,-8.997917175E-3,8.230924606E-3
3.911974778E2,-4.730987549E-2,-1.609516144E-2,-4.063391685E-2
3.916974778E2,-5.057048798E-2,-2.882671356E-2,3.394365311E-3
3.921974778E2,-1.273441315E-2,-4.013061523E-3,-1.576828957E-2
3.926974778E2,-7.351875305E-3,1.048564911E-2,-9.397029877E-3
3.931974778E2,-1.410531998E-2,-5.399703979E-3,5.622148514E-3
3.936974778E2,-5.140066147E-2,2.811145782E-2,-2.232098579E-2
3.941974778E2,7.377195358E-2,-1.969051361E-2,1.050570011E-1
3.946974778E2,3.296222687E-1,7.486438751E-2,1.013731956E-1
3.951974778E2,3.973855972E-1,2.050781250E-2,3.073112965E-1
3.956974778E2,-1.620852947E-1,-7.821750641E-2,-1.340522766E-1
3.961974778E2,-8.482146263E-2,-4.714584351E-2,-3.649473190E-1
3.966974778E2,-5.773425102E-2,-1.799583435E-3,-3.549079895E-1
3.971974778E2,-9.960460663E-2,-9.935379028E-2,1.089217663E-1
3.976974778E2,1.732125282E-1,6.396007538E-2,-1.110434532E-1
3.981974778E2,2.333688736E-2,-8.283424377E-2,1.495068073E-1
3.986974778E2,1.641745567E-1,5.794239044E-2,-1.505460739E-1
3.991974778E2,-1.592669487E-1,-1.461734772E-1,7.947397232E-2
3.996974778E2,-5.518960953E-2,-5.262279510E-2,7.320547104E-2
4.001974778E2,-2.007055283E-2,-6.346702576E-3,4.853701591E-2
4.006974778E2,8.902072906E-3,-1.000118256E-2,-1.650500298E-2
4.011974778E2,-1.388216019E-2,-2.275943756E-2,-1.849102974E-2
4.016974778E2,3.741979599E-2,-1.058673859E-2,3.313541412E-3
4.021974778E2,5.200290680E-2,3.878593445E-3,-1.532125473E-2
4.026974778E2,-1.086139679E-2,1.146697998E-2,-2.537441254E-2
4.031974778E2,3.238058090E-2,-2.799987793E-3,3.482222557E-2
4.036974778E2,1.009702682E-2,-1.001644135E-2,1.952624321E-2
4.041974778E2,-4.907464981E-2,-3.285598755E-2,3.566789627E-2
4.046974778E2,1.256275177E-2,6.739616394E-3,-1.258015633E-2
4.051974778E2,-1.660490036E-2,-2.276611328E-2,-7.682085037E-3
4.056974778E2,-6.662893295E-2,-2.899265289E-2,-4.823923111E-3
4.061974778E2,-4.267406464E-2,-8.780479431E-3,-7.260084152E-2
4.066974778E2,-4.592657089E-2,-1.009559631E-2,-6.292986870E-2
4.071974778E2,1.368789673E-1,5.839633942E-2,-1.183986664E-2
4.076974778E2,2.692890167E-2,-6.140708923E-3,5.732774734E-3
4.081974778E2,-6.671524048E-2,-3.691864014E-2,2.489447594E-2
4.086974778E2,8.634138107E-2,1.016902924E-2,2.414608002E-2
4.091974778E2,-1.250331402E-1,1.917457581E-1,-6.563138962E-2
4.096974778E2,-2.877485752E-1,-4.101562500E-2,1.651343107E-1
4.101974778E2,1.667165756E-2,6.278705597E-2,-1.606551409E-1
4.106974778E2,2.220153809E-3,-3.084087372E-2,-7.737779617E-2
4.111974778E2,7.579803467E-3,-1.367568970E-3,8.850264549E-2
4.116974778E2,1.186738014E-1,8.503341675E-2,-3.809809685E-2
4.121974778E2,-4.771280289E-2,-1.961517334E-2,5.634379387E-2
4.126974778E2,1.320695877E-2,-3.115653992E-3,9.017634392E-2
4.131974778E2,-3.553247452E-2,-2.210235596E-2,5.721211433E-2
4.136974778E2,2.581706047E-1,1.240854263E-1,-1.063492298E-1
4.141974778E2,-4.167222977E-2,-1.226987839E-1,-1.197979450E-1
4.146974778E2,1.859536171E-1,7.440090179E-2,5.006146431E-2
4.151974778E2,-4.756212234E-2,-3.307819366E-2,-4.007124901E-2
4.156974778E2,2.832269669E-2,-9.231472015E-2,1.239252090E-2
4.161974778E2,-6.533563137E-1,-2.678699493E-1,-4.867243767E-1
4.166974778E2,-4.200506210E-2,-2.609920502E-2,-1.688551903E-2
4.171974778E2,-4.712820053E-2,2.281570435E-2,-2.725776434E-1
4.176974778E2,3.988218307E-1,6.429386139E-2,8.712884188E-1
4.181974778E2,1.827764511E-2,-1.921291351E-1,8.368123174E-1
4.186974778E2,3.084912300E-1,8.985519409E-2,7.476085424E-2
4.191974778E2,1.049959660E-1,-1.167802811E-1,4.082601666E-1
4.196974778E2,1.319727898E-1,-8.401870728E-4,1.282559037E-1
4.201974778E2,-3.183174133E-1,-9.641170502E-2,3.639141917E-1
4.206974778E2,4.222111702E-1,1.245965958E-1,4.897080958E-1
4.211974778E2,-6.749706268E-1,-4.887542725E-1,1.414971352E-1
4.216974778E2,4.006609917E-1,1.284017563E-1,3.171954155E-1
4.221974778E2,-2.848381996E-1,-1.266107559E-1,1.628935337E-2
4.226974778E2,6.599903107E-3,-2.784156799E-2,-9.765207767E-3
4.231974778E2,4.109287262E-2,5.498218536E-2,7.052868605E-2
4.236974778E2,-1.278581619E-1,-7.083988190E-2,-9.932208061E-2
4.241974778E2,2.035808563E-2,1.423835754E-3,4.671150446E-2
4.246974778E2,-3.416538239E-3,2.763652802E-2,-1.285618544E-2
4.251974778E2,9.029436111E-2,2.024364471E-2,-9.778738022E-3
4.256974778E2,-6.536054611E-2,-2.086925507E-2,-3.283756971E-2
4.261974778E2,6.447362900E-2,1.685619354E-2,6.918400526E-2
4.266974778E2,-1.270728111E-1,-4.752349854E-2,4.297858477E-2
4.271974778E2,-5.226373672E-2,-2.237224579E-2,9.486514330E-2
4.276974778E2,-5.127191544E-2,-1.490402222E-2,-2.177119255E-2
4.281974778E2,5.493307114E-2,2.379703522E-2,8.483654261E-2
4.286974778E2,-1.283712387E-1,-5.878829956E-2,1.161445975E-1
4.291974778E2,-3.910017014E-2,1.990318298E-3,7.028794289E-2
4.296974778E2,2.406549454E-2,-3.609657288E-3,-2.266031504E-2
4.301974778E2,-2.221367359E-1,-6.367111206E-2,-3.831869364E-2
4.306974778E2,-6.165063381E-1,-2.242641449E-1,2.295663059E-1
4.311974778E2,-3.389596939E-2,-4.804039001E-2,7.777965069E-2
4.316974778E2,-6.785154343E-2,-1.136970520E-2,9.890475869E-2
4.321974778E2,5.233430862E-2,2.594184875E-2,3.852695227E-2
4.326974778E2,-4.901363850E-1,-1.451864243E-1,-3.133830428E-1
4.331974778E2,3.117265701E-1,1.356744766E-1,-2.623006105E-1
4.336974778E2,1.245822906E-1,3.683280945E-2,-6.662416458E-2
4.341974778E2,-2.117848396E-2,-4.587268829E-2,-2.137386799E-2
4.346974778E2,-6.196379662E-2,-2.590751648E-2,7.834434509E-3
4.351974778E2,1.233358383E-1,1.895141602E-2,2.193665504E-2
4.356974778E2,1.191830635E-1,2.710819244E-2,1.474738121E-3
4.361974778E2,2.198226452E-1,5.117893219E-2,1.332795620E-2
4.366974778E2,-1.773865223E-1,-7.223796844E-2,6.142926216E-2
4.371974778E2,1.262559891E-1,2.840805054E-2,-3.128802776E-2
4.376974778E2,-1.591348648E-2,4.576301575E-2,1.015088558E-1
4.381974778E2,-3.083562851E-2,-6.817817688E-3,-1.744878292E-2
4.386974778E2,5.010128021E-2,4.865646362E-2,1.259219646E-2
4.391974778E2,5.413484573E-2,1.136016846E-2,-6.750977039E-2
4.396974778E2,-4.216051102E-2,2.081966400E-2,-1.024544239E-2
4.401974778E2,-1.157474518E-1,-1.531238556E-1,-1.913732290E-1
4.406974778E2,1.284456253E-2,-3.009796143E-2,-1.996643543E-1
4.411974778E2,6.477499008E-2,6.904602051E-4,-3.611993790E-2
4.416974778E2,-5.960416794E-2,-5.776500702E-2,-8.828997612E-2
4.421974778E2,1.330819130E-1,1.409339905E-2,-6.606340408E-3
4.426974778E2,2.507305145E-2,-4.465103149E-3,-9.579074383E-2
4.431974778E2,1.460022926E-1,7.139301300E-2,-3.417026997E-2
4.436974778E2,1.909017563E-2,-4.739952087E-2,3.667926788E-2
4.441974778E2,-8.770298958E-2,-1.199626923E-2,-3.791606426E-2
4.446974778E2,-7.020473480E-3,1.809597015E-2,-2.165377140E-2
4.451974778E2,5.938386917E-2,8.991146088E-2,-3.927171230E-2
4.456974778E2,4.614686966E-2,8.977985382E-2,-3.866529465E-2
4.461974778E2,8.910274506E-2,-8.945465088E-3,-7.221615314E-2
4.466974778E2,-2.854824066E-3,3.773593903E-2,-1.490533352E-2
4.471974778E2,1.277909279E-1,5.969905853E-2,-2.934575081E-2
4.476974778E2,-6.129407883E-2,-1.973056793E-2,-1.134121418E-2
4.481974778E2,6.453084946E-2,1.702594757E-2,4.236078262E-2
4.486974778E2,9.860658646E-2,9.351444244E-2,2.237343788E-2
4.491974778E2,2.545785904E-2,9.630107880E-2,-8.277142048E-2
4.496974778E2,1.926445961E-1,3.664302826E-2,-5.679488182E-3
4.501974778E2,-2.335457802E-1,5.685806274E-3,-1.494133472E-2
4.506974778E2,1.396899223E-1,1.414299011E-3,4.680895805E-2
4.511974778E2,-4.982328415E-2,-1.517868042E-2,-1.914001703E-1
4.516974778E2,2.706861496E-2,-1.515769958E-2,-5.368697643E-2
4.521974778E2,-1.473546028E-1,-4.084014893E-2,-5.572617054E-2
4.526974778E2,1.033306122E-3,-4.382801056E-2,-7.331109047E-2
4.531974778E2,-1.367139816E-2,-1.363754272E-4,1.896023750E-3
4.536974778E2,-2.458286285E-2,-4.812145233E-2,-8.213317394E-2
4.541974778E2,1.302299500E-1,6.325721741E-3,1.071804762E-1
4.546974778E2,-1.117753983E-2,-4.093647003E-2,-3.646028042E-2
4.551974778E2,-1.281886101E-1,-5.489444733E-2,6.095850468E-2
4.556974778E2,-6.314754486E-3,-5.616760254E-2,-2.375459671E-2
4.561974778E2,-1.284866333E-1,-9.795188904E-3,4.408872128E-2
4.566974778E2,8.152532578E-2,6.903648376E-3,3.214561939E-2
4.571974778E2,-1.116223335E-1,-7.711982727E-2,4.010915756E-3
4.576974778E2,-1.699066162E-1,-1.004991531E-1,1.536238194E-2
4.581974778E2,-2.529678345E-1,-1.060476303E-1,3.278160095E-2
4.586974778E2,7.956790924E-2,3.055477142E-2,5.879282951E-3
4.591974778E2,9.589195251E-4,3.142356873E-2,2.255114913E-1
4.596974778E2,-1.714148521E-1,-9.971332550E-2,-3.519541025E-1
4.601974778E2,-1.468181610E-2,1.166439056E-2,1.484084129E-2
4.606974778E2,4.115533829E-2,3.812599182E-2,5.167561769E-2
4.611974778E2,3.033208847E-2,1.508426666E-2,2.730584145E-2
4.616974778E2,-3.348350525E-3,2.637767792E-2,-1.767194271E-2
4.621974778E2,2.828836441E-2,5.227088928E-3,-5.568730831E-2
4.626974778E2,-4.333543777E-2,-9.756088257E-4,-8.111524582E-2
4.631974778E2,7.896709442E-2,-5.739212036E-3,-3.549027443E-2
4.636974778E2,7.196807861E-2,-6.039619446E-3,1.682543755E-2
4.641974778E2,-5.571126938E-2,-1.702117920E-2,-3.741776943E-2
4.646974778E2,-9.674072266E-2,-7.188510895E-2,5.691647530E-2
4.651974778E2,1.861810684E-2,4.630374908E-2,-9.366035461E-3
4.656974778E2,-1.597018242E-1,-9.851169586E-2,-2.471601963E-2
4.661974778E2,6.984901428E-2,6.645870209E-2,-2.037882805E-2
4.666974778E2,-1.428556442E-1,7.729530334E-3,3.774929047E-2
4.671974778E2,1.952309608E-1,2.483081818E-2,-1.861751080E-2
4.676974778E2,-5.175971985E-2,3.735637665E-2,-2.965021133E-2
4.681974778E2,8.737373352E-2,-6.148719788E-2,-2.823233604E-2
4.686974778E2,-3.322601318E-2,2.788066864E-2,-2.567529678E-3
4.691974778E2,1.311507225E-1,-3.176498413E-2,-8.262288570E-2
4.696974778E2,-3.723669052E-2,3.372192383E-3,-6.290662289E-2
4.701974778E2,1.160831451E-1,9.242057800E-3,-5.338990688E-2
4.706974778E2,-7.712745667E-2,4.681205750E-2,2.393437922E-1
4.711974778E2,3.563795090E-1,1.666316986E-1,-3.365136385E-1
4.716974778E2,1.019191742E-1,8.262729645E-2,1.820030808E-1
4.721974778E2,-1.086688042E-1,-6.866168976E-2,-2.538204789E-1
4.726974778E2,1.043796539E-3,-3.748130798E-2,1.950383186E-3
4.731974778E2,-7.801055908E-2,-3.060436249E-2,1.815481186E-1
4.736974778E2,-1.570019722E-1,-1.844882965E-2,7.382249832E-2
4.741974778E2,1.238594055E-1,5.823993683E-2,-1.135049462E-1
4.746974778E2,-2.330374718E-1,-6.715583801E-2,-1.413313746E-1
4.751974778E2,-3.681087494E-2,-8.286666870E-2,-4.050576687E-2
4.756974778E2,1.721324921E-1,1.667222977E-1,1.887297630E-2
4.761974778E2,-1.758856773E-1,-5.965328217E-2,3.112339973E-2
4.766974778E2,1.120505333E-1,5.230998993E-2,-9.788715839E-2
4.771974778E2,1.295518875E-2,1.106548309E-2,-4.998564720E-3
4.776974778E2,9.803056717E-2,-2.894687653E-2,-3.451180458E-2
4.781974778E2,-1.582765579E-2,-3.549861908E-2,-2.892541885E-2
4.786974778E2,7.028198242E-2,5.048084259E-2,2.319252491E-2
4.791974778E2,1.296901703E-2,9.451866150E-3,2.027189732E-2
4.796974778E2,-3.317022324E-2,1.787090302E-2,-1.558291912E-2
4.801974778E2,3.049850464E-2,-6.857872009E-3,6.110131741E-2
4.806974778E2,1.262712479E-2,1.122379303E-2,2.711772919E-2
4.811974778E2,6.769752502E-2,-2.398777008E-2,-4.222512245E-3
4.816974778E2,6.350421906E-2,3.437328339E-2,-2.053606510E-2
4.821974778E2,-1.862859726E-2,-2.600860596E-2,3.643763065E-2
4.826974778E2,3.671503067E-2,1.192092896E-3,3.142726421E-2
4.831974778E2,-5.521154404E-2,-4.438304901E-2,-4.325890541E-2
4.836974778E2,1.969814301E-3,6.052970886E-3,1.866221428E-2
4.841974778E2,4.897117615E-4,-9.629249573E-3,-2.260124683E-2
4.846974778E2,1.897192001E-2,1.157188416E-2,-4.733914137E-2
4.851974778E2,-2.996444702E-3,1.625156403E-2,5.424022675E-3
4.856974778E2,3.463506699E-2,4.040718079E-2,-1.256585121E-2
4.861974778E2,-1.610708237E-2,-5.299568176E-3,-8.687615395E-3
4.866974778E2,-2.448511124E-2,-1.095867157E-2,6.211882830E-2
4.871974778E2,-1.000938416E-1,6.585121155E-3,2.872735262E-2
4.876974778E2,8.312273026E-2,4.987430573E-2,8.884012699E-3
4.881974778E2,-2.786302567E-2,-1.390171051E-2,3.194707632E-2
4.886974778E2,9.966373444E-3,3.648662567E-2,-3.815132380E-2
4.891974778E2,-9.438562393E-2,-5.995750427E-2,-4.326945543E-2
4.896974778E2,5.895280838E-2,2.520751953E-2,9.134769440E-3
4.901974778E2,-4.653787613E-2,1.841640472E-2,-3.860497475E-2
4.906974778E2,-1.601758003E-1,-3.322029114E-2,1.477974653E-2
4.911974778E2,1.276249886E-1,4.106330872E-2,-2.473300695E-2
4.916974778E2,2.045369148E-1,6.590557098E-2,-1.800754070E-1
4.921974778E2,-4.981613159E-2,5.023384094E-2,1.123927236E-1
4.926974778E2,2.601318359E-1,-2.632331848E-2,4.743492603E-2
4.931974778E2,-2.530779839E-1,-1.560182571E-1,6.118208170E-2
4.936974778E2,1.043181419E-1,1.046333313E-1,1.233525872E-1
4.941974778E2,-7.418918610E-2,7.327365875E-2,-2.939713001E-2
4.946974778E2,-1.011862755E-1,-3.546237946E-2,1.102095842E-1
4.951974778E2,-2.297163010E-2,3.244113922E-2,2.863943577E-2
4.956974778E2,-6.718635559E-2,1.404953003E-2,-8.586311340E-2
4.961974778E2,2.491807938E-2,-1.236534119E-2,3.617060184E-2
4.966974778E2,-1.845455170E-2,1.570892334E-2,-6.181478500E-2
4.971974778E2,1.277685165E-2,-3.130435944E-2,-7.779717445E-3
4.976974778E2,1.024928093E-1,9.908676147E-4,4.611670971E-2
4.981974778E2,1.196970940E-1,2.875423431E-2,2.009034157E-3
4.986974778E2,-6.054925919E-2,-3.607273102E-2,-1.425981522E-3
4.991974778E2,1.471800804E-1,8.038806915E-2,4.203379154E-2
4.996974778E2,-5.204820633E-2,-5.199050903E-2,-5.632710457E-2
5.001974778E2,1.921267509E-1,4.918098450E-3,-1.496597528E-1
5.006974778E2,-6.010198593E-2,-1.086454391E-1,8.131146431E-3
5.011974778E2,1.192231178E-1,-1.818180084E-2,-8.554852009E-2
5.016974778E2,-8.583545685E-2,4.466247559E-2,-6.165939569E-2
5.021974778E2,1.029539108E-2,7.552528381E-2,1.155136824E-1
5.026974778E2,2.881002426E-2,2.566051483E-2,1.477229595E-2
5.031974778E2,6.134796143E-2,5.508136749E-2,-1.113263369E-1
5.036974778E2,-1.538209915E-1,-5.970001221E-2,-7.061934471E-2
5.041974778E2,7.681989670E-2,3.058433533E-2,7.694280148E-2
5.046974778E2,-7.149076462E-2,-5.629539490E-2,-7.128560543E-2
5.051974778E2,5.895090103E-2,-1.353645325E-2,-9.879589081E-3
5.056974778E2,-4.093217850E-2,-3.043556213E-2,1.101505756E-2
5.061974778E2,1.347918510E-1,3.964138031E-2,4.241740704E-2
5.066974778E2,6.114721298E-2,6.113910675E-2,4.716360569E-2
5.071974778E2,4.480361938E-3,4.135799408E-2,-5.095124245E-3
5.076974778E2,-6.144094467E-2,-1.012582779E-1,3.841602802E-2
5.081974778E2,8.267402649E-2,4.563617706E-2,-6.018543243E-2
5.086974778E2,-1.545381546E-2,-3.003978729E-2,-7.084965706E-3
5.091974778E2,-5.416393280E-3,-1.938533783E-2,-2.454686165E-2
5.096974778E2,-1.019225121E-1,-3.880882263E-2,-4.836499691E-2
5.101974778E2,7.134437561E-3,1.259326935E-2,3.031849861E-3
5.106974778E2,-5.045509338E-2,-3.685760498E-2,4.353880882E-3
5.111974778E2,-4.244661331E-2,-2.701282501E-2,-1.469421387E-2
5.116974778E2,6.694316864E-3,5.693435669E-3,2.847754955E-2
5.121974778E2,-4.492807388E-2,-1.436519623E-2,-1.991224289E-2
5.126974778E2,-4.193782806E-3,-1.413536072E-2,1.207673550E-2
5.131974778E2,-4.652976990E-3,-1.442813873E-2,-2.590012550E-2
5.136974778E2,-4.763460159E-2,-1.199817657E-2,-9.141588211E-2
5.141974778E2,-3.588438034E-2,1.617527008E-2,2.228394747E-1
5.146974778E2,-4.452848434E-2,6.712913513E-3,-1.357203722E-1
5.151974778E2,-1.258831024E-1,-9.291362762E-2,-8.950710297E-3
5.156974778E2,4.914760590E-3,3.991222382E-2,-1.749926805E-1
5.161974778E2,1.082520485E-1,2.221965790E-2,-5.182158947E-2
5.166974778E2,-5.840206146E-2,-5.718326569E-2,-1.375687122E-2
5.171974778E2,-3.953361511E-2,-5.605888367E-2,-1.036022902E-1
5.176974778E2,-9.821844101E-2,4.378795624E-2,-7.876288891E-2
5.181974778E2,3.894853592E-2,1.238822937E-3,8.997797966E-3
5.186974778E2,-3.719854355E-2,-1.402950287E-2,-4.795312881E-3
5.191974778E2,5.920839310E-2,-1.685428619E-2,2.323043346E-2
5.196974778E2,-6.579256058E-2,-1.913928986E-2,3.143548965E-4
5.201974778E2,7.609844208E-3,-3.129291534E-2,-5.669879913E-2
5.206974778E2,-6.265211105E-2,5.851650238E-2,-9.961986542E-2
5.211974778E2,9.202003479E-3,-1.014614105E-2,-8.261847496E-2
5.216974778E2,1.262092590E-2,-1.637840271E-2,2.928376198E-3
5.221974778E2,4.364776611E-2,2.323722839E-2,-1.941716671E-2
5.226974778E2,4.082870483E-2,-9.711265564E-3,-3.171253204E-2
5.231974778E2,4.746437073E-2,-2.989292145E-2,-5.705797672E-2
5.236974778E2,3.496789932E-2,4.149913788E-2,-2.136862278E-2
5.241974778E2,-1.929602623E-1,-1.778421402E-1,6.680815816E-1
5.246974778E2,4.427647591E-1,1.819887161E-1,8.987832665E-1
5.251974778E2,2.698922157E-1,3.820133209E-2,4.396175146E-1
5.256974778E2,-1.123328209E-1,-8.685112000E-3,2.188509703E-1
5.261974778E2,2.472162247E-2,3.164958954E-2,3.220236301E-2
5.266974778E2,-2.777433395E-2,-5.584239960E-2,-4.235184193E-2
5.271974778E2,3.063220978E-1,1.150617599E-1,-3.936469555E-2
5.276974778E2,-2.885088921E-1,-1.536464691E-1,-6.703090668E-2
5.281974778E2,-1.077132225E-1,-3.783512115E-2,-2.891039848E-2
5.286974778E2,1.301207542E-1,4.986763000E-2,-7.381677628E-2
5.291974778E2,-1.391420364E-1,-8.069896698E-2,5.267238617E-2
5.296974778E2,1.198911667E-2,-7.513046265E-3,1.759982109E-2
5.301974778E2,5.715036392E-2,-5.408287048E-3,-1.527369022E-2
5.306974778E2,-1.344890594E-1,-6.143093109E-2,3.236532211E-3
5.311974778E2,3.635311127E-2,-2.197837830E-2,-2.879714966E-2
5.316974778E2,-5.653381348E-2,-4.039287567E-2,-1.894104481E-2
5.321974778E2,5.399894714E-2,4.561996460E-2,-1.245296001E-2
5.326974778E2,4.565906525E-2,2.863979340E-2,-2.335309982E-4
5.331974778E2,-2.031135559E-2,-1.734733582E-2,5.878567696E-3
5.336974778E2,8.297348022E-2,4.730033875E-2,1.533019543E-2
5.341974778E2,-2.663278580E-2,-1.790904999E-2,-1.049077511E-2
5.346974778E2,3.228998184E-2,1.835250854E-2,-7.306456566E-3
5.351974778E2,5.194330215E-2,1.013660431E-2,1.407659054E-2
5.356974778E2,8.177471161E-2,7.351016998E-2,1.618373394E-2
5.361974778E2,4.336309433E-2,3.105449677E-2,-8.133804798E-2
5.366974778E2,-6.124782562E-2,-1.071357727E-2,1.404094696E-2
5.371974778E2,2.680158615E-2,3.918647766E-3,-2.460837364E-3
5.376974778E2,-8.144378662E-4,3.675460815E-3,1.631379128E-3
5.381974778E2,-2.640628815E-2,-3.436565399E-2,9.750127792E-3
5.386974778E2,-1.121807098E-2,2.915382385E-2,2.013492584E-2
5.391974778E2,-1.048374176E-2,3.500938416E-3,-2.440977097E-2
5.396974778E2,-7.784271240E-2,-4.719638824E-2,-3.369450569E-3
5.401974778E2,3.861904144E-3,-4.099845886E-3,1.270925999E-2
5.406974778E2,-8.320808411E-4,-8.311271667E-3,4.161000252E-3
5.411974778E2,7.513523102E-3,-2.478599548E-3,-2.109181881E-2
5.416974778E2,-5.797529221E-2,-1.610755920E-3,-5.952477455E-3
5.421974778E2,7.168674469E-2,1.246452332E-2,3.316783905E-2
5.426974778E2,3.209543228E-2,4.236888885E-2,-5.419063568E-2
5.431974778E2,6.894922256E-2,1.836490631E-2,-5.040705204E-2
5.436974778E2,-3.665590286E-2,-3.698062897E-2,-2.588689327E-2
5.441974778E2,-6.453990936E-3,1.322937012E-2,-2.834212780E-2
5.446974778E2,1.401233673E-2,3.175735474E-3,-2.888536453E-2
5.451974778E2,2.829933167E-2,1.436519623E-2,-3.951549530E-2
5.456974778E2,4.938125610E-3,3.271102905E-4,-7.995963097E-3
5.461974778E2,1.420164108E-2,3.525733948E-3,2.370715141E-3
5.466974778E2,-2.198600769E-2,-8.853912354E-3,-3.980278969E-3
5.471974778E2,1.037549973E-2,-8.183479309E-3,8.441209793E-3
5.476974778E2,2.238750458E-3,1.314449310E-2,4.864811897E-3
5.481974778E2,2.931880951E-2,1.248836517E-2,-3.603470325E-2
5.486974778E2,4.417467117E-2,3.471755981E-2,1.542925835E-3
5.491974778E2,-9.060859680E-3,7.505416870E-4,-1.980066299E-4
5.496974778E2,2.166318893E-2,2.530193329E-2,-6.736516953E-4
5.501974778E2,-1.116037369E-2,-1.295375824E-2,-6.819367409E-3
5.506974778E2,9.176731110E-3,5.436897278E-3,9.975194931E-3
5.511974778E2,-1.092910767E-3,-2.192497253E-3,-1.250910759E-2
5.516974778E2,2.073621750E-2,4.933643341E-2,-4.795610905E-2
5.521974778E2,-3.896474838E-2,-3.017711639E-2,6.668043137E-2
5.526974778E2,-3.565073013E-2,-1.336765289E-2,1.560938358E-2
5.531974778E2,-3.863668442E-2,-1.294994354E-2,-1.615583897E-2
5.536974778E2,-3.668880463E-2,-1.109218597E-2,-8.934617043E-3
5.541974778E2,-1.527976990E-2,-5.730628967E-3,4.607439041E-3
5.546974778E2,4.546117783E-2,1.526546478E-2,1.530897617E-2
5.551974778E2,1.347870827E-1,4.394626617E-2,7.876789570E-2
5.556974778E2,3.663892746E-1,1.017246246E-1,4.870363474E-1
5.561974778E2,-1.001677513E-1,-1.701936722E-1,-9.993731976E-3
5.566974778E2,-7.289409637E-2,1.292610168E-2,6.043553352E-2
5.571974778E2,7.463598251E-2,-2.063655853E-2,-2.893853188E-2
5.576974778E2,-2.304501534E-1,-8.316135406E-2,1.924163103E-2
5.581974778E2,8.380413055E-3,-5.871772766E-3,6.946027279E-3
5.586974778E2,1.081757545E-1,2.050304413E-2,8.585917950E-2
5.591974778E2,4.926347733E-2,3.504753113E-2,5.241608620E-2
5.596974778E2,1.684951782E-2,3.409290314E-2,-5.637609959E-2
5.601974778E2,-1.148333549E-1,-6.336498260E-2,-4.524767399E-2
5.606974778E2,-2.008676529E-2,1.366424561E-2,5.466693640E-2
5.611974778E2,-3.400850296E-2,-2.359580994E-2,-1.039171219E-2
5.616974778E2,-7.183456421E-2,-2.692413330E-2,1.777708530E-2
5.621974778E2,6.424522400E-2,1.776218414E-2,-1.071286201E-2
5.626974778E2,-5.039453506E-2,1.593589783E-3,-2.047777176E-3
5.631974778E2,3.904104233E-2,2.798366547E-2,4.729747772E-3
5.636974778E2,-3.949594498E-2,-1.101493835E-3,6.585013866E-2
5.641974778E2,1.343774796E-2,-1.332283020E-3,-1.379895210E-2
5.646974778E2,-1.770210266E-2,-9.846687317E-3,3.990530968E-3
5.651974778E2,-2.500534058E-2,-1.460742950E-2,3.451573849E-2
5.656974778E2,3.179883957E-2,4.352092743E-2,7.451176643E-3
5.661974778E2,-9.310722351E-2,-1.658535004E-2,1.794016361E-2
5.666974778E2,-7.025957108E-2,-1.878929138E-2,-1.475453377E-3
5.671974778E2,-7.356119156E-2,-8.085060120E-2,1.200162172E-1
5.676974778E2,-7.925367355E-2,2.367973328E-3,-1.902687550E-2
5.681974778E2,-9.602355957E-2,5.644226074E-2,-1.093758941E-1
5.686974778E2,-7.227134705E-2,1.484041214E-1,-6.936727762E-1
5.691974778E2,-1.234960556E-2,1.065835953E-1,-3.436435461E-1
5.696974778E2,-1.112093925E-1,-8.477401733E-2,-1.770627499E-2
5.701974778E2,-3.168675900E-1,-3.513813019E-2,-1.057841778E-1
5.706974778E2,-8.260822296E-2,-7.894515991E-2,1.373829842E-1
5.711974778E2,-1.931905746E-2,3.705692291E-2,4.073405266E-2
5.716974778E2,1.060814857E-1,-5.588531494E-4,-1.310094595E-1
5.721974778E2,-4.767084122E-2,-5.206108093E-3,9.319365025E-2
5.726974778E2,1.142506599E-1,4.204845428E-2,-3.674328327E-2
5.731974778E2,-2.880096436E-4,7.848739624E-3,1.060286760E-1
5.736974778E2,2.442049980E-1,6.068134308E-2,-1.611196995E-2
5.741974778E2,-2.382564545E-2,-3.557395935E-2,2.502024174E-2
5.746974778E2,9.510517120E-3,2.192878723E-2,2.980232239E-5
5.751974778E2,6.280422211E-3,-3.040981293E-2,-1.109600067E-2
5.756974778E2,6.117963791E-2,-2.281093597E-2,2.394568920E-2
5.761974778E2,-4.366827011E-2,-4.099369049E-2,-5.252599716E-3
5.766974778E2,-8.122301102E-2,-3.363513947E-2,-3.064620495E-2
5.771974778E2,8.098459244E-2,3.725528717E-2,-1.242625713E-2
5.776974778E2,-5.082130432E-3,-6.494522095E-4,-3.525888920E-2
5.781974778E2,1.590657234E-1,8.349418640E-2,-1.905679703E-2
5.786974778E2,-3.049850464E-3,-2.755737305E-2,1.207244396E-2
5.791974778E2,-2.994585037E-2,2.676677704E-2,-2.101588249E-2
5.796974778E2,1.165428162E-1,-2.578735352E-3,5.037903786E-3
5.801974778E2,-2.619457245E-2,-2.831363678E-2,-1.065275669E-1
5.806974778E2,-2.450084686E-2,-4.745388031E-2,-1.442050934E-2
5.811974778E2,-1.323509216E-2,4.844379425E-2,2.183735371E-2
5.816974778E2,1.287274361E-1,7.763385773E-2,-1.172487736E-1
5.821974778E2,-6.902265549E-2,-2.140522003E-2,2.606534958E-2
5.826974778E2,1.306815147E-1,4.097080231E-2,8.420586586E-3
5.831974778E2,-5.960273743E-2,1.637744904E-2,-1.229870319E-2
5.836974778E2,2.481484413E-1,7.884979248E-2,3.510713577E-2
5.841974778E2,-6.301736832E-2,-5.401039124E-2,1.266324520E-2
5.846974778E2,3.367614746E-2,9.520530701E-3,-3.668570518E-2
5.851974778E2,-5.858516693E-2,3.108024597E-3,-2.530777454E-2
5.856974778E2,5.099630356E-2,7.921218872E-3,7.866978645E-3
5.861974778E2,-2.436494827E-2,-1.224708557E-2,-2.804589272E-2
5.866974778E2,6.011819839E-2,1.163673401E-2,2.252018452E-2
5.871974778E2,-3.334426880E-2,-1.582717896E-2,-2.309155464E-2
5.876974778E2,-1.251521111E-1,-2.594852448E-2,1.863539219E-2
5.881974778E2,5.211687088E-2,4.581069946E-2,-2.437674999E-2
5.886974778E2,-4.754638672E-2,-4.670143127E-3,4.100513458E-2
5.891974778E2,-5.438280106E-2,6.975173950E-3,3.747928143E-2
5.896974778E2,5.592298508E-2,2.985095978E-2,-2.275073528E-2
5.901974778E2,-2.706289291E-2,-5.634021759E-2,3.904819489E-3
5.906974778E2,-1.917600632E-2,-5.127048492E-2,2.685368061E-2
5.911974778E2,-8.730554581E-2,-6.381988525E-2,5.731058121E-2
5.916974778E2,-4.722118378E-2,-6.748771667E-2,4.319334030E-2
5.921974778E2,2.536249161E-2,5.291938782E-3,5.934846401E-2
5.926974778E2,-1.458144188E-1,-8.097934723E-2,3.574860096E-2
5.931974778E2,1.431746483E-1,-4.674911499E-3,2.466046810E-2
5.936974778E2,2.646589279E-2,2.134799957E-2,7.934927940E-3
5.941974778E2,6.958961487E-2,7.217311859E-2,6.821513176E-3
5.946974778E2,1.630611420E-1,3.385543823E-3,-4.811012745E-2
5.951974778E2,-8.612489700E-2,-5.163955688E-2,1.254451275E-2
5.956974778E2,-3.332376480E-2,6.430625916E-3,-4.108059406E-2
5.961974778E2,-1.727848053E-1,-1.012420654E-2,-4.811286926E-2
5.966974778E2,1.243462563E-1,5.386447906E-2,-3.215897083E-2
5.971974778E2,8.090353012E-2,-1.118946075E-2,1.647436619E-2
5.976974778E2,-2.211999893E-2,1.652717590E-3,-2.954232693E-2
5.981974778E2,-5.887460709E-2,6.350803375E-2,-5.653047562E-2
5.986974778E2,1.305217743E-1,1.210765839E-1,-4.263544083E-2
5.991974778E2,-5.599832535E-2,-4.472637177E-2,7.574748993E-2
5.996974778E2,9.998083115E-2,-2.630233765E-2,-7.695126534E-2
6.001974778E2,-1.126112938E-1,1.013946533E-2,-4.865205288E-2
6.006974778E2,-9.366703033E-2,-4.792213440E-3,-4.039764404E-3
6.011974778E2,1.045522690E-1,4.678058624E-2,-4.546105862E-2
6.016974778E2,-7.684230804E-3,2.350521088E-2,4.135489464E-3
6.021974778E2,1.399154663E-1,6.957721710E-2,-2.006479502E-1
6.026974778E2,-1.178908348E-1,-2.620410919E-2,-1.168906689E-1
6.031974778E2,-1.944732666E-2,9.417533875E-3,-5.702996254E-2
6.036974778E2,2.455439568E-1,2.915372849E-1,1.978874207E-4
6.041974778E2,-3.445620537E-1,-1.409797668E-1,3.909134865E-2
6.046974778E2,2.284960747E-1,7.894515991E-2,3.354656696E-2
6.051974778E2,-3.953266144E-2,-6.491088867E-2,-8.103609085E-3
6.056974778E2,2.913808823E-2,7.201194763E-3,5.844736099E-2
6.061974778E2,4.095506668E-2,1.285076141E-2,-1.807618141E-2
6.066974778E2,2.770805359E-2,-1.246929169E-2,-1.624763012E-2
6.071974778E2,2.772188187E-2,-2.490425110E-2,2.692818642E-2
6.076974778E2,7.088661194E-3,-1.926898956E-2,2.546060085E-2
6.081974778E2,2.251005173E-2,1.352214813E-2,8.795738220E-3
6.086974778E2,-2.973985672E-2,-6.277084351E-3,3.420221806E-2
6.091974778E2,4.098415375E-2,3.840065002E-2,2.058148384E-3
6.096974778E2,-7.652282715E-3,-1.492404938E-2,7.738375664E-2
6.101974778E2,-4.584550858E-2,-2.294158936E-2,-1.556646824E-2
6.106974778E2,-3.927659988E-2,-3.297138214E-2,3.504168987E-2
6.111974778E2,-7.409715652E-2,6.604194641E-3,-1.865077019E-2
6.116974778E2,7.133150101E-2,2.958488464E-2,2.287065983E-2
6.121974778E2,-2.690458298E-2,-1.075935364E-2,4.498028755E-2
6.126974778E2,-2.812576294E-2,-2.809429169E-2,1.937162876E-2
6.131974778E2,-1.764378548E-1,-6.992721558E-2,-1.499834061E-1
6.136974778E2,-1.880540848E-1,-1.260271072E-1,-8.074307442E-2
6.141974778E2,8.524179459E-2,-1.010894775E-4,8.435332775E-2
6.146974778E2,4.799270630E-2,2.195072174E-2,-3.229331970E-2
6.151974778E2,9.422254562E-2,7.483386993E-2,-3.110980988E-2
6.156974778E2,-7.243490219E-2,-5.979442596E-2,-2.815175056E-2
6.161974778E2,1.114091873E-1,1.207456589E-1,-1.129908562E-1
6.166974778E2,-3.416895866E-1,-1.702995300E-1,-1.435817480E-1
6.171974778E2,-1.297426224E-2,2.092361450E-3,2.071666718E-2
6.176974778E2,8.642721176E-2,2.197360992E-2,9.222865105E-3
6.181974778E2,-7.746171951E-2,-3.073406219E-2,-2.828145027E-2
6.186974778E2,-1.029491425E-3,-3.774642944E-3,4.748249054E-2
6.191974778E2,6.190538406E-2,3.602695465E-2,3.342604637E-2
6.196974778E2,5.088806152E-3,-4.227352142E-2,1.693050861E-1
6.201974778E2,-3.628540039E-2,1.751136780E-2,9.498322010E-2
6.206974778E2,1.073555946E-1,2.873325348E-2,5.460667610E-2
6.211974778E2,1.816034317E-2,5.589580536E-2,1.222145557E-2
6.216974778E2,-2.364783287E-1,-1.159238815E-1,-2.742325068E-1
6.221974778E2,1.250319481E-1,1.388807297E-1,-6.050825119E-2
6.226974778E2,-2.465496063E-1,-1.364231110E-1,1.067745686E-2
6.231974778E2,5.487585068E-2,5.156707764E-2,7.178211212E-2
6.236974778E2,1.094579697E-2,-2.495670319E-2,4.760622978E-3
6.241974778E2,-1.868104935E-2,-3.606796265E-3,4.513943195E-2
6.246974778E2,1.426134109E-1,5.379009247E-2,-4.210233688E-3
6.251974778E2,-6.565184593E-1,-3.188762665E-1,7.803230882E-1
6.256974778E2,5.696640015E-1,2.326107025E-1,3.689460754E-1
6.261974778E2,1.897144318E-2,5.885791779E-2,1.579725742E-1
6.266974778E2,-4.042768478E-2,-3.234386444E-2,4.769754410E-2
6.271974778E2,-1.023292542E-1,-1.150474548E-1,4.851073027E-1
6.276974778E2,-1.765899658E-1,-1.042881012E-1,-2.094877958E-1
6.281974778E2,8.518838882E-2,3.631687164E-2,-1.122277975E-1
6.286974778E2,-5.993461609E-2,1.934432983E-2,-2.898383141E-2
6.291974778E2,-1.502232552E-1,-6.683063507E-2,5.027806759E-2
6.296974778E2,-1.949357986E-2,-1.169872284E-2,-8.034348488E-3
6.301974778E2,4.408597946E-2,2.609920502E-2,1.575076580E-2
6.306974778E2,2.449464798E-2,3.621101379E-3,-3.510320187E-2
6.311974778E2,-4.943132401E-2,-1.568698883E-2,1.924002171E-2
6.316974778E2,6.331110001E-2,4.072570801E-2,6.002318859E-2
6.321974778E2,-1.183986664E-3,-1.170158386E-2,-2.818036079E-2
6.326974778E2,1.428604126E-3,-2.323627472E-2,-7.299780846E-3
6.331974778E2,-6.328582764E-2,-4.727935791E-2,-2.133977413E-2
6.336974778E2,4.998683929E-3,2.182006836E-3,-4.303216934E-3
6.341974778E2,-3.053092957E-2,-1.628589630E-2,-1.420497894E-3
6.346974778E2,-3.734636307E-2,-7.019042969E-3,3.417372704E-3
6.351974778E2,-3.429412842E-2,-5.502700806E-4,-1.248228550E-2
6.356974778E2,9.442806244E-3,4.940032959E-3,8.040308952E-3
6.361974778E2,-9.351015091E-2,-2.932167053E-2,-1.056337357E-2
6.366974778E2,1.207780838E-2,1.884937286E-2,-1.671886444E-2
6.371974778E2,-8.678436279E-3,-4.291534424E-5,1.230299473E-2
6.376974778E2,3.176546097E-2,8.153915405E-4,-1.221752167E-2
6.381974778E2,-2.699708939E-2,-7.117271423E-3,-1.028597355E-2
6.386974778E2,5.298185349E-2,3.594112396E-2,2.202630043E-2
6.391974778E2,2.409172058E-2,1.587486267E-2,5.381584167E-3
6.396974778E2,3.711223602E-3,2.768516541E-3,-3.435802460E-2
6.401974778E2,-1.622295380E-2,-1.045322418E-2,-7.980346680E-3
6.406974778E2,-1.870965958E-2,-1.877117157E-2,-4.009330273E-2
6.411974778E2,-3.634977341E-2,-1.807308197E-2,-2.338826656E-2
6.416974778E2,-3.236818314E-2,3.422737122E-3,-2.717828751E-2
6.421974778E2,9.639453888E-2,5.542564392E-2,-9.690439701E-2
6.426974778E2,9.149456024E-2,-4.060649872E-2,2.748572826E-2
6.431974778E2,-3.841872215E-1,9.969997406E-2,5.033888817E-1
6.436974778E2,6.538057327E-2,-8.868694305E-2,-1.298654079E-2
6.441974778E2,1.519994736E-1,-6.371498108E-3,-1.712822914E-2
6.446974778E2,-7.919359207E-2,4.647254944E-3,2.850496769E-2
6.451974778E2,2.376990318E-1,6.976127625E-3,2.677547932E-2
6.456974778E2,-9.904432297E-2,2.861022949E-3,-2.098369598E-2
6.461974778E2,-6.130266190E-2,-8.361816406E-3,7.642543316E-2
6.466974778E2,1.161193848E-2,3.767871857E-2,-3.408467770E-2
6.471974778E2,-1.363501549E-1,-4.603672028E-2,5.286061764E-2
6.476974778E2,2.782392502E-2,3.247833252E-2,1.296044588E-1
6.481974778E2,2.280778885E-1,1.005258560E-1,7.163167000E-3
6.486974778E2,-1.999802589E-1,-8.279514313E-2,5.223989487E-3
6.491974778E2,-3.405618668E-2,-2.697944641E-3,4.859244823E-2
6.496974778E2,8.765697479E-3,-9.474754333E-3,-1.126754284E-2
6.501974778E2,-2.892780304E-2,-2.131462097E-3,-3.152525425E-2
6.506974778E2,-1.291179657E-2,1.350402832E-3,1.585376263E-2
6.511974778E2,-3.280973434E-2,-2.066326141E-2,-6.174242496E-2
6.516974778E2,-4.265546799E-2,3.388404846E-3,-1.763761044E-2
6.521974778E2,1.191377640E-2,1.112747192E-2,-7.928013802E-3
6.526974778E2,-4.516458511E-2,-8.570671082E-3,-3.026854992E-2
6.531974778E2,7.667031288E-1,2.266454697E-1,4.938878417E-1
6.536974778E2,5.797662735E-1,-2.088766098E-1,3.880407214E-1
6.541974778E2,-3.738594055E-2,-4.957103729E-2,-1.196006536E-1
6.546974778E2,3.677692413E-1,3.959655762E-2,2.730013132E-1
6.551974778E2,8.658456802E-2,7.246017456E-3,4.782270789E-1
6.556974778E2,3.970670700E-2,-2.351665497E-2,-1.668226719E-2
6.561974778E2,2.094130516E-1,1.246299744E-1,1.110752821E-1
6.566974778E2,-2.780914307E-2,-3.070259094E-2,-5.816423893E-2
6.571974778E2,-1.820850372E-1,-8.325290680E-2,3.948479891E-2
6.576974778E2,-1.144642830E-1,-1.206207275E-2,-8.302927017E-4
6.581974778E2,3.881311417E-2,5.713748932E-2,-5.358839035E-2
6.586974778E2,-4.337739944E-2,-1.433086395E-2,-7.874429226E-2
6.591974778E2,3.498172760E-2,1.549243927E-2,9.549975395E-2
6.596974778E2,7.688283920E-2,-1.694202423E-2,1.756036282E-2
6.601974778E2,-2.385139465E-2,-1.137256622E-2,-1.797962189E-2
6.606974778E2,4.785490036E-2,5.829143524E-2,5.349040031E-3
6.611974778E2,-6.806612015E-2,-5.762577057E-2,1.875960827E-2
6.616974778E2,2.602853775E-1,1.220760345E-1,5.314588547E-2
6.621974778E2,-3.762197495E-2,-3.127765656E-2,-6.282544136E-2
6.626974778E2,-6.264257431E-2,-4.717826843E-2,2.629160881E-3
6.631974778E2,-8.384227753E-3,3.115558624E-2,9.680092335E-2
6.636974778E2,-1.270151138E-2,1.612949371E-2,-8.206701279E-2
6.641974778E2,5.865097046E-5,-1.009750366E-2,2.605521679E-2
6.646974778E2,-4.318571091E-2,-7.628345490E-2,7.652091980E-2
6.651974778E2,1.099739075E-1,1.198358536E-1,3.270864487E-3
6.656974778E2,5.767917633E-2,7.038497925E-2,6.203091145E-2
6.661974778E2,-1.137270927E-1,3.646850586E-3,-5.539178848E-2
6.666974778E2,2.470283508E-1,1.157436371E-1,-1.438012123E-1
6.671974778E2,-7.522869110E-2,-3.441333771E-2,-1.602590084E-2
6.676974778E2,-5.007266998E-3,-2.116012573E-2,-6.031847000E-2
6.681974778E2,1.819505692E-1,2.311134338E-2,-6.552970409E-2
6.686974778E2,3.528261185E-2,2.379798889E-2,3.352761269E-3
6.691974778E2,-1.718425751E-2,-1.280689240E-2,-7.883155346E-2
6.696974778E2,2.001099586E-1,6.351280212E-2,-4.320597649E-2
6.701974778E2,-1.368522644E-3,5.972576141E-2,-1.856362820E-2
6.706974778E2,-6.557750702E-2,-5.274486542E-2,-1.491323709E-1
6.711974778E2,2.939033508E-2,-6.498527527E-2,-2.822303772E-2
6.716974778E2,5.699872971E-2,-3.209114075E-3,-1.129221916E-2
6.721974778E2,-7.445950508E-1,-3.978424072E-1,-5.371832848E-1
6.726974778E2,-7.284855843E-1,-2.835826874E-1,-4.008896351E-1
6.731974778E2,-2.083168030E-1,-1.297063828E-1,-8.973276615E-2
6.736974778E2,-1.266160011E-1,-1.263809204E-1,-6.819367409E-3
6.741974778E2,-2.736101151E-1,-1.145515442E-1,-2.716934681E-2
6.746974778E2,1.696310043E-1,5.952930450E-2,-1.791596413E-2
6.751974778E2,-2.092423439E-1,-6.070995331E-2,-5.047798157E-2
6.756974778E2,-6.535673141E-2,4.646968842E-2,6.640374660E-2
6.761974778E2,-1.099371910E-1,-4.728126526E-2,-7.137656212E-3
6.766974778E2,7.740354538E-2,7.144165039E-2,5.435657501E-2
6.771974778E2,-5.037212372E-2,-5.360889435E-2,4.851520061E-2
6.776974778E2,-1.040825844E-1,4.966926575E-2,5.013763905E-2
6.781974778E2,-2.785205841E-3,1.397609711E-2,-3.518974781E-2
6.786974778E2,-1.208319664E-1,-4.572391510E-2,3.731143475E-2
6.791974778E2,3.274154663E-2,1.647472382E-2,1.653420925E-2
6.796974778E2,9.682559967E-2,1.116285324E-1,-1.446174383E-1
6.801974778E2,-7.449626923E-3,3.903675079E-2,-6.809365749E-2
6.806974778E2,-1.237864494E-1,2.189254761E-2,-4.918801785E-2
6.811974778E2,-3.706121445E-2,-2.202320099E-2,1.656385660E-1
6.816974778E2,-2.576451302E-1,-7.237911224E-2,2.762020826E-1
6.821974778E2,2.001271248E-1,8.300495148E-2,1.566996574E-1
6.826974778E2,1.044511795E-2,1.783370972E-3,5.596756935E-3
6.831974778E2,-1.425843239E-1,-6.788921356E-2,9.564316273E-2
6.836974778E2,-1.579236984E-2,-2.069950104E-2,7.983672619E-2
6.841974778E2,-4.302597046E-2,-3.722476959E-2,-4.892432690E-2
6.846974778E2,-1.652383804E-2,-2.142810822E-2,-3.514385223E-2
6.851974778E2,-5.767011642E-2,-3.112030029E-2,-6.803750992E-3
6.856974778E2,-2.035379410E-2,-3.981304169E-2,-1.870429516E-2
6.861974778E2,-1.604161263E-1,-7.970619202E-2,9.076416492E-2
6.866974778E2,1.306738853E-1,-3.782272339E-3,-2.482211590E-2
6.871974778E2,5.301427841E-2,5.041408539E-2,-6.264162064E-2
6.876974778E2,-9.733819962E-2,-4.502582550E-2,1.336109638E-2
6.881974778E2,-2.080202103E-2,-4.368209839E-2,-5.650937557E-2
6.886974778E2,1.020255089E-1,-3.491849899E-1,-1.681318045E0
6.891974778E2,2.324032784E-1,2.712702751E-1,1.863119602E-1
6.896974778E2,-3.552722931E-2,1.619753838E-1,8.471887112E-1
6.901974778E2,4.046773911E-2,9.647274017E-2,3.551342487E-1
6.906974778E2,6.712198257E-2,7.714843750E-2,7.847142220E-2
6.911974778E2,-9.674072266E-3,5.727386475E-2,1.112298965E-1
6.916974778E2,-9.278821945E-2,-8.100032806E-3,1.011366844E-1
6.921974778E2,6.573200226E-2,2.087130547E-1,7.877250910E-1
6.926974778E2,5.012164116E-1,2.259635925E-1,1.857941300E-1
6.931974778E2,-3.517675400E-2,4.497909546E-2,-2.317584157E-1
6.936974778E2,-2.050104141E-1,-9.360313416E-2,-4.420755208E-1
6.941974778E2,-9.761095047E-2,-5.303859711E-2,-1.898413897E-2
6.946974778E2,-1.027612686E-1,-2.737045288E-4,-7.179194689E-2
6.951974778E2,7.864952087E-3,4.797744751E-2,-1.029623151E-1
6.956974778E2,-1.198449135E-1,-5.494022369E-2,-1.955431700E-2
6.961974778E2,-3.564834595E-3,2.987384796E-2,1.270844042E-1
6.966974778E2,2.425751686E-1,3.689384460E-2,-7.303518057E-2
6.971974778E2,-1.551637650E-1,-3.028583527E-2,-6.612712145E-2
6.976974778E2,7.695102692E-2,-1.933097839E-3,2.066126168E-1
6.981974778E2,-7.774543762E-2,-9.869480133E-2,3.968244791E-2
6.986974778E2,-1.213350296E-1,-1.380596161E-1,2.242513895E-1
6.991974778E2,3.202381134E-1,-3.100872040E-2,3.946791291E-1
6.996974778E2,-1.404666901E-1,-7.534980774E-3,2.017718554E-1
7.001974778E2,1.079149246E-1,6.997776031E-2,-1.909675002E-1
7.006974778E2,-9.059667587E-2,-2.683353424E-2,-2.773314714E-2
7.011974778E2,3.179559708E-1,3.966617584E-2,-3.733849525E-2
7.016974778E2,-1.002364159E-1,-2.766036987E-2,2.783358097E-3
7.021974778E2,1.591739655E-1,3.325557709E-2,1.179283857E-1
7.026974778E2,-7.814550400E-2,1.249313354E-4,-2.075499296E-2
7.031974778E2,4.340791702E-2,-1.556968689E-2,8.299356699E-2
7.036974778E2,1.107196808E-1,-5.636215210E-4,5.630278587E-2
7.041974778E2,-5.847024918E-2,-2.525520325E-2,-7.435792685E-2
7.046974778E2,3.818750381E-2,3.991603851E-2,-3.629583120E-2
7.051974778E2,-3.540515900E-3,3.953933716E-2,1.599049568E-2
7.056974778E2,2.461004257E-2,1.595497131E-3,-4.014760256E-2
7.061974778E2,-2.503156662E-2,3.402709961E-2,-3.894358873E-2
7.066974778E2,-4.315614700E-2,-3.445911407E-2,5.068135262E-2
7.071974778E2,-5.065441132E-2,1.069927216E-2,7.387441397E-2
7.076974778E2,4.984378815E-3,-3.206253052E-2,-1.939392090E-2
7.081974778E2,1.889467239E-2,9.238243103E-3,3.375768661E-2
7.086974778E2,2.347135544E-2,2.630138397E-2,-6.600964069E-2
7.091974778E2,-1.124153137E-1,-4.193592072E-2,-2.015650272E-2
7.096974778E2,2.232789993E-2,6.130218506E-3,-7.866227627E-2
7.101974778E2,-9.915828705E-2,-4.604244232E-2,2.422279119E-2
7.106974778E2,5.458354950E-3,2.261829376E-2,-5.716711283E-2
7.111974778E2,4.604578018E-2,-1.561832428E-2,5.862575769E-2
7.116974778E2,-4.841661453E-2,-1.925373077E-2,1.633352041E-2
7.121974778E2,4.650592804E-2,5.719470978E-2,-2.365088463E-2
7.126974778E2,2.311897278E-2,-2.042961121E-2,-2.164721489E-3
7.131974778E2,-5.869197845E-2,-5.975246429E-2,-3.489387035E-2
7.136974778E2,-5.331277847E-2,-5.627632141E-2,-3.661984205E-2
7.141974778E2,-1.197080612E-1,-5.325984955E-2,-4.533213377E-2
7.146974778E2,-3.487968445E-2,-5.101776123E-2,-2.911061049E-2
7.151974778E2,-4.529428482E-2,-9.073352814E-2,7.165014744E-3
7.156974778E2,1.819539070E-1,5.691432953E-2,9.247481823E-3
7.161974778E2,-3.604030609E-2,-7.905960083E-4,1.089996099E-2
7.166974778E2,6.860256195E-3,-3.921890259E-2,8.109128475E-2
7.171974778E2,-7.009840012E-2,-2.438259125E-2,3.754204512E-2
7.176974778E2,-1.667485237E-1,-1.078271866E-1,4.729270935E-3
7.181974778E2,7.449960709E-2,2.577781677E-3,1.080989242E-1
7.186974778E2,3.174686432E-2,2.372264862E-2,2.312189341E-2
7.191974778E2,1.631689072E-2,1.325893402E-2,3.743100166E-2
7.196974778E2,2.283954620E-2,-2.289485931E-2,2.162277699E-3
7.201974778E2,9.094238281E-3,2.239704132E-2,1.326948404E-2
7.206974778E2,-4.718732834E-2,5.290985107E-3,9.570538998E-3
7.211974778E2,8.408117294E-2,1.455307007E-3,5.743837357E-2
7.216974778E2,-2.255196571E-1,2.820968628E-2,9.761369228E-2
7.221974778E2,1.236958504E-1,2.724647522E-2,-1.629297733E-1
7.226974778E2,-1.178803444E-1,-1.567649841E-2,-9.433710575E-2
7.231974778E2,-1.490802765E-1,-4.065704346E-2,-7.424098253E-2
7.236974778E2,1.623616219E-1,7.199859619E-2,-9.655159712E-2
7.241974778E2,7.568979263E-2,1.396942139E-2,-2.677130699E-2
7.246974778E2,-3.575992584E-2,-1.126861572E-2,2.790206671E-2
7.251974778E2,2.943196297E-1,5.091094971E-2,-5.309927464E-2
7.256974778E2,-1.314778328E-1,-2.718639374E-2,-9.255152941E-2
7.261974778E2,-4.889440536E-2,2.992534637E-2,-7.624328136E-3
7.266974778E2,2.050423622E-1,1.272659302E-1,-1.404541731E-2
7.271974778E2,-1.719145775E-1,-2.575588226E-2,-1.707851887E-3
7.276974778E2,1.564702988E-1,5.243968964E-2,-8.692103624E-2
7.281974778E2,4.664421082E-3,-5.207443237E-2,6.200420856E-2
7.286974778E2,7.724428177E-2,1.968574524E-2,-2.921164036E-3
7.291974778E2,-1.078567505E-1,-4.571819305E-2,4.084867239E-2
7.296974778E2,-6.975841522E-2,-4.198074341E-3,1.255822182E-2
7.301974778E2,-7.580804825E-2,3.193855286E-3,-9.763669968E-2
7.306974778E2,-5.423600674E-1,-2.057399750E-1,-6.111767292E-1
7.311974778E2,5.287599564E-2,1.083087921E-1,-2.406346798E-2
7.316974778E2,1.199221611E-1,6.782531738E-2,-3.071093559E-2
7.321974778E2,-7.779836655E-2,-7.609748840E-2,1.641631126E-3
7.326974778E2,9.964084625E-2,-7.068157196E-2,-4.409766197E-2
7.331974778E2,-3.609228134E-2,-1.148128510E-2,-4.208767414E-2
7.336974778E2,6.692361832E-2,5.785942078E-3,4.045557976E-2
7.341974778E2,-2.434396744E-2,-7.476806641E-3,-5.089688301E-2
7.346974778E2,3.002738953E-2,-6.172561646E-2,-9.368479252E-2
7.351974778E2,4.202175140E-2,-4.743862152E-2,6.480813026E-3
7.356974778E2,-1.096396446E-1,-2.919673920E-2,-1.794016361E-2
7.361974778E2,-6.721496582E-3,-8.492469788E-3,6.223762035E-2
7.366974778E2,2.582311630E-2,5.897712708E-2,1.481986046E-2
7.371974778E2,-2.078294754E-2,-2.384757996E-2,-1.226595640E-1
7.376974778E2,8.400297165E-2,2.348423004E-1,-1.842132807E-1
7.381974778E2,-2.021934986E-1,-1.855316162E-1,-1.201784611E-1
7.386974778E2,-3.236248493E-1,-8.997917175E-2,-7.828295231E-2
7.391974778E2,-9.895968437E-2,-4.806613922E-2,3.554522991E-2
7.396974778E2,-1.442115307E-1,-1.925563812E-2,2.316033840E-2
7.401974778E2,1.055526733E-1,9.901046753E-3,4.336464405E-2
7.406974778E2,5.947637558E-2,-1.010608673E-2,3.844273090E-2
7.411974778E2,-8.890914917E-2,-4.468631744E-2,1.465872526E-1
7.416974778E2,-4.088449478E-2,2.416610718E-2,-7.552230358E-2
7.421974778E2,3.921794891E-2,-2.742576599E-2,-1.012277603E-2
7.426974778E2,4.705667496E-2,2.767848969E-2,2.257549763E-2
7.431974778E2,-7.972526550E-2,-6.579494476E-2,-4.073977470E-3
7.436974778E2,-1.134409904E-1,-1.942634583E-2,5.339348316E-2
7.441974778E2,1.661224365E-1,7.752132416E-2,6.173241138E-2
7.446974778E2,-1.230006218E-1,-5.390453339E-2,1.330593824E-1
7.451974778E2,9.381151199E-2,5.877017975E-2,-1.328455210E-1
7.456974778E2,-1.425652504E-1,-5.295467377E-2,7.354152203E-2
7.461974778E2,1.145839691E-3,-2.673053741E-2,-4.661893845E-2
7.466974778E2,-5.440187454E-2,-1.666069031E-3,-4.590272903E-3
7.471974778E2,1.523733139E-2,3.418922424E-3,2.080893517E-2
7.476974778E2,-4.178285599E-2,-3.148078918E-3,-1.472890377E-2
7.481974778E2,-9.844541550E-2,-2.505970001E-2,7.247793674E-2
7.486974778E2,9.137725830E-2,2.672386169E-2,3.833258152E-2
7.491974778E2,1.220321655E-2,4.662513733E-3,3.965938091E-2
7.496974778E2,-1.672935486E-2,1.160907745E-2,1.830422878E-2
7.501974778E2,2.384710312E-2,4.098892212E-3,9.037256241E-4
7.506974778E2,-1.583094597E-1,-9.183597565E-2,-7.454991341E-2
7.511974778E2,1.697697639E-1,3.368663788E-2,-4.376268387E-2
7.516974778E2,-5.985212326E-2,2.320766449E-2,1.012468338E-2
7.521974778E2,1.035203934E-1,2.265644073E-2,6.488919258E-3
7.526974778E2,-6.596517563E-2,-1.529312134E-2,-3.551876545E-2
7.531974778E2,4.436349869E-2,7.161140442E-3,2.978241444E-2
7.536974778E2,-7.978010178E-2,-2.765560150E-2,1.647841930E-2
7.541974778E2,-9.260177612E-3,-3.026008606E-3,-6.726205349E-2
7.546974778E2,-4.027795792E-2,1.727199554E-2,1.374685764E-2
7.551974778E2,6.240987778E-2,8.585929871E-3,4.082429409E-2
7.556974778E2,1.456212997E-2,-5.574226379E-3,-9.604334831E-3
7.561974778E2,1.288480759E-1,4.607582092E-2,-8.930921555E-3
7.566974778E2,-3.228807449E-2,-1.355457306E-2,2.149987221E-2
7.571974778E2,1.429605484E-2,-1.302051544E-2,-8.430910110E-2
7.576974778E2,-2.115964890E-2,-6.361389160E-2,2.175056934E-2
7.581974778E2,-4.242563248E-2,2.056407928E-2,-9.835112095E-2
7.586974778E2,-2.018346786E-1,-1.178722382E-1,-1.851948500E-1
7.591974778E2,-5.230474472E-2,-3.035545349E-3,3.526008129E-2
7.596974778E2,4.931783676E-2,1.563167572E-2,-1.358902454E-2
7.601974778E2,1.597294807E-1,8.320331573E-2,2.711102962E-1
7.606974778E2,1.141457558E-1,2.793598175E-2,1.402246952E-2
7.611974778E2,-1.828794479E-1,-1.275691986E-1,-1.284730434E-2
7.616974778E2,-9.307909012E-2,-3.016757965E-2,-8.166337013E-2
7.621974778E2,-2.472543716E-2,-6.199836731E-3,-2.855312824E-2
7.626974778E2,-4.097747803E-2,2.007007599E-2,1.333160400E-1
7.631974778E2,3.271894455E-1,1.247406006E-3,1.485296488E-1
7.636974778E2,-4.948723316E-1,-3.076877594E-1,-2.927571535E-1
7.641974778E2,5.039272308E-1,1.455831528E-1,1.108174324E-1
7.646974778E2,-2.998871803E-1,-5.014896393E-2,5.366325378E-2
7.651974778E2,-6.292295456E-2,-2.314472198E-2,-4.936397076E-2
7.656974778E2,-1.501703262E-2,-5.662918091E-3,1.698315144E-2
7.661974778E2,-9.312152863E-3,7.048606873E-2,-2.986598015E-2
7.666974778E2,1.570463181E-1,2.419662476E-2,1.057087183E-1
7.671974778E2,5.145883560E-2,2.755641937E-2,7.477438450E-2
7.676974778E2,7.764768600E-2,3.479099274E-2,-5.541217327E-2
7.681974778E2,1.615405083E-1,5.266857147E-2,6.601905823E-2
7.686974778E2,-1.586766243E-1,-5.828857422E-2,-7.043516636E-2
7.691974778E2,-1.103014946E-1,-5.806255341E-2,6.081736088E-2
7.696974778E2,-1.068644524E-1,-8.501529694E-2,6.845355034E-3
7.701974778E2,-9.281587601E-2,1.322746277E-3,-1.278281212E-3
7.706974778E2,4.591321945E-2,1.456165314E-2,2.706968784E-2
7.711974778E2,6.648206711E-2,2.062702179E-2,3.335547447E-2
7.716974778E2,-4.348039627E-2,-1.175785065E-2,-5.541622639E-2
7.721974778E2,-1.407766342E-2,2.367877960E-2,-1.665771008E-2
7.726974778E2,8.491039276E-3,-5.321502686E-3,4.285573959E-3
7.731974778E2,-1.688909531E-2,1.858425140E-2,1.061952114E-2
7.736974778E2,-3.923463821E-2,-3.031921387E-2,6.805300713E-3
7.741974778E2,-7.684659958E-2,-9.093284607E-3,3.425478935E-3
7.746974778E2,2.526378632E-2,1.272487640E-2,1.619422436E-2
7.751974778E2,-7.184028625E-3,5.711555481E-3,-1.086795330E-2
7.756974778E2,3.059864044E-3,5.528450012E-3,-3.644979000E-2
7.761974778E2,-1.619329453E-1,-2.599983215E-1,-1.460237503E-1
7.766974778E2,7.071661949E-2,5.523300171E-2,2.764742374E-1
7.771974778E2,-2.388393879E-1,-1.551084518E-1,-3.320843577E-1
7.776974778E2,-3.458034992E-1,-1.037721634E-1,-2.148753405E-1
7.781974778E2,-3.931372166E-1,-1.993350983E-1,9.165763855E-3
7.786974778E2,1.425876617E-1,7.822036743E-3,-7.721382380E-2
7.791974778E2,-1.768064499E-2,-3.817558289E-3,-3.340041637E-2
7.796974778E2,-1.795291901E-2,-9.725570679E-3,-3.361463547E-3
7.801974778E2,-6.526470184E-3,1.062202454E-2,2.372682095E-3
7.806974778E2,-2.329826355E-3,-1.238346100E-2,2.308869362E-2
7.811974778E2,-1.702117920E-2,5.906105042E-3,2.101725340E-2
7.816974778E2,1.392507553E-2,-1.202583313E-3,-7.189625502E-2
7.821974778E2,1.952028275E-2,1.236915588E-2,-7.798975706E-2
7.826974778E2,-3.987932205E-2,-4.900932312E-3,3.009957075E-2
7.831974778E2,4.833555222E-2,2.936649323E-2,-9.976565838E-3
7.836974778E2,1.064634323E-2,3.158569336E-3,9.454965591E-3
7.841974778E2,-2.320909500E-2,-1.132488251E-2,-2.307784557E-2
7.846974778E2,-1.711320877E-2,-6.987571716E-3,-8.073508739E-3
7.851974778E2,-4.171848297E-3,-2.780914307E-3,-1.457226276E-2
7.856974778E2,3.235244751E-2,2.303886414E-2,-6.192624569E-3
7.861974778E2,-1.154184341E-2,-1.198291779E-2,-7.835108042E-2
7.866974778E2,4.086637497E-2,2.594089508E-2,2.593523264E-2
7.871974778E2,-1.678228378E-2,-1.380443573E-2,-5.936145782E-3
7.876974778E2,1.589155197E-2,1.644134521E-3,8.600294590E-3
7.881974778E2,-2.979612350E-2,-1.588344574E-2,-9.744763374E-3
7.886974778E2,-3.261232376E-2,-8.931159973E-3,1.135528088E-3
7.891974778E2,-2.416229248E-2,-1.248455048E-2,9.260177612E-3
7.896974778E2,1.050901413E-2,5.809783936E-3,-8.270382881E-3
7.901974778E2,-9.151935577E-3,-8.508682251E-3,-1.250976324E-2
7.906974778E2,-2.286481857E-2,-9.518623352E-3,-1.963496208E-3
7.911974778E2,-1.329946518E-2,-7.929801941E-3,1.338434219E-2
7.916974778E2,6.422996521E-3,6.188392639E-3,-4.244327545E-3
7.921974778E2,3.091335297E-3,-6.411552429E-3,2.817726135E-2
7.926974778E2,-2.520084381E-3,-5.141258240E-3,1.199471951E-2
7.931974778E2,-2.220916748E-2,-5.666732788E-3,-3.225445747E-3
7.936974778E2,3.574848175E-3,-3.681182861E-3,9.213864803E-3
7.941974778E2,-2.076292038E-2,-7.293701172E-3,1.598238945E-3
7.946974778E2,-3.972578049E-2,-1.761341095E-2,7.819056511E-3
7.951974778E2,-2.498006821E-2,-2.871513367E-3,-8.983016014E-3
7.956974778E2,4.430150986E-2,-4.117012024E-3,4.482507706E-2
7.961974778E2,-1.587009430E-2,6.213760376E-2,-2.077513933E-2
7.966974778E2,-4.939031601E-2,-3.948307037E-2,-1.027374268E-1
7.971974778E2,2.596807480E-2,8.551597595E-3,-7.193446159E-3
7.976974778E2,1.522064209E-3,-3.625869751E-3,-3.521907330E-2
7.981974778E2,-1.107263565E-2,-1.249313354E-4,1.408302784E-2
7.986974778E2,5.288743973E-2,3.214359283E-2,1.286160946E-2
7.991974778E2,3.233098984E-2,-7.357597351E-3,-3.837096691E-2
7.996974778E2,-2.725934982E-2,-3.673553467E-3,-4.169237614E-2
8.001974778E2,2.753829956E-2,1.124286652E-2,-1.699686050E-2
8.006974778E2,-4.558038712E-2,-2.205562592E-2,9.577393532E-3
8.011974778E2,-7.390499115E-3,-6.468772888E-3,1.901745796E-3
8.016974778E2,1.478528976E-2,1.044368744E-2,2.206063271E-2
8.021974778E2,1.093883514E-1,1.194858551E-2,-3.046190739E-2
8.026974778E2,1.237244606E-1,3.317356110E-2,-6.936967373E-2
8.031974778E2,-3.383779526E-2,1.162338257E-2,6.066894531E-2
8.036974778E2,-8.152008057E-3,-2.783393860E-2,-2.710092068E-2
8.041974778E2,-4.799318314E-2,-2.433395386E-2,-2.040684223E-2
8.046974778E2,-9.539127350E-3,-3.950119019E-3,-2.143681049E-2
8.051974778E2,5.264902115E-2,2.546596527E-2,1.852869987E-2
8.056974778E2,-5.648612976E-2,-2.121067047E-2,-2.724933624E-2
8.061974778E2,4.838800430E-2,2.236938477E-2,-1.940739155E-2
8.066974778E2,9.489536285E-3,2.512931824E-3,1.058900356E-2
8.071974778E2,-6.123065948E-3,-2.156257629E-3,-9.271621704E-3
8.076974778E2,2.993535995E-2,8.634567261E-3,2.240502834E-2
8.081974778E2,1.758098602E-3,9.183883667E-4,5.041360855E-3
8.086974778E2,1.109409332E-2,1.896858215E-3,-1.527178288E-2
8.091974778E2,3.530263901E-2,9.122848511E-3,-1.163709164E-2
8.096974778E2,4.109859467E-3,-5.931854248E-4,1.938116550E-2
8.101974778E2,-2.516603470E-2,-3.712654114E-3,-3.543376923E-3
8.106974778E2,1.044559479E-2,7.711410522E-3,8.236646652E-3
8.111974778E2,1.824140549E-2,4.258155823E-3,8.945465088E-4
8.116974778E2,-5.066871643E-3,-3.904342651E-3,-6.097555161E-4
8.121974778E2,-4.454517365E-2,-2.158069611E-2,-5.019903183E-4
8.126974778E2,6.062030792E-3,3.078460693E-3,-5.418419838E-3
8.131974778E2,-3.055095673E-3,-1.014614105E-2,-1.355171204E-3
8.136974778E2,2.403974533E-2,1.178836823E-2,-2.756536007E-2
8.141974778E2,2.354145050E-2,2.076435089E-2,1.152825356E-2
8.146974778E2,-1.242637634E-2,-4.769325256E-3,-1.130950451E-2
8.151974778E2,8.466720581E-3,1.996040344E-3,-2.056360245E-4
8.156974778E2,1.660108566E-2,1.726245880E-2,-9.220004082E-3
8.161974778E2,-1.300001144E-2,-1.397991180E-2,-1.822257042E-2
8.166974778E2,-4.292964935E-3,2.479553223E-5,1.601183414E-2
8.171974778E2,-5.393028259E-4,6.069183350E-3,1.885175705E-2
8.176974778E2,-6.991863251E-3,-1.108455658E-2,2.565109730E-2
8.181974778E2,1.816868782E-1,7.919788361E-2,1.760855913E-1
8.186974778E2,4.175333977E-1,1.975584030E-1,4.478750229E-1
8.191974778E2,-1.717815399E-1,-6.465435028E-2,-4.851549864E-2
8.196974778E2,-2.652120590E-2,-5.709743500E-2,-4.323154688E-2
8.201974778E2,1.483922005E-1,4.794025421E-2,8.864349127E-2
8.206974778E2,-1.472353935E-1,-6.045627594E-2,-6.928026676E-3
8.211974778E2,4.701280594E-2,6.467819214E-3,6.139522791E-2
8.216974778E2,-1.906347275E-2,-1.828193665E-3,-4.541337490E-3
8.221974778E2,-4.520940781E-2,-2.610778809E-2,-5.766910315E-2
8.226974778E2,1.022686958E-1,5.898761749E-2,8.292055130E-2
8.231974778E2,3.224468231E-2,-3.758430481E-3,-1.499855518E-2
8.236974778E2,-5.518913269E-3,5.046844482E-3,1.009649038E-2
8.241974778E2,-1.631402969E-2,-3.056526184E-3,5.326271057E-3
8.246974778E2,-7.914066315E-3,-4.076004028E-3,-3.016561270E-2
8.251974778E2,9.609222412E-3,-9.526252747E-3,8.685648441E-3
8.256974778E2,2.009439468E-2,1.517868042E-2,3.081041574E-2
8.261974778E2,-5.883073807E-2,-3.598785400E-2,-1.863360405E-3
8.266974778E2,2.526950836E-2,-1.231098175E-2,8.561575413E-2
8.271974778E2,4.203510284E-2,-3.471374512E-4,-8.384805918E-2
8.276974778E2,2.399015427E-2,-8.563041687E-3,-4.162609577E-3
8.281974778E2,-1.421451569E-2,9.823799133E-3,-4.918491840E-2
8.286974778E2,5.375242233E-2,-5.061149597E-3,-6.347543001E-2
8.291974778E2,-4.911422729E-2,-4.799938202E-2,-4.190379381E-2
8.296974778E2,3.222990036E-2,2.805137634E-2,-8.750945330E-2
8.301974778E2,1.944890022E-1,9.256649017E-2,-1.227140427E-3
8.306974778E2,-1.174635887E-1,-1.866149902E-2,-1.538465023E-1
8.311974778E2,2.660698891E-1,9.120464325E-2,-6.760543585E-2
8.316974778E2,-1.291751862E-3,3.396701813E-2,-1.584748626E-1
8.321974778E2,1.531071663E-1,1.263647079E-1,-7.536464930E-2
8.326974778E2,4.505491257E-2,3.739356995E-2,-8.758050203E-2
8.331974778E2,-7.194805145E-2,4.690456390E-2,-9.203821421E-2
8.336974778E2,-1.101813316E-1,-6.547164917E-2,-2.681612372E-1
8.341974778E2,-8.107852936E-2,1.927003860E-1,1.013366580E-1
8.346974778E2,2.826194763E-1,3.714389801E-1,-2.993867993E-1
8.351974778E2,-1.986603737E-1,-3.433227539E-4,-2.773486376E-1
8.356974778E2,-2.234082222E-1,-9.592151642E-2,-7.145309448E-2
8.361974778E2,-3.229188919E-2,-1.986408234E-2,-1.138765812E-1
8.366974778E2,-1.322696209E-1,-2.382373810E-2,-4.990506172E-2
8.371974778E2,7.806921005E-2,5.857658386E-2,-5.946159363E-2
8.376974778E2,-2.471752167E-1,-4.691028595E-2,2.779543400E-2
8.381974778E2,2.655005455E-1,1.009883881E-1,6.041634083E-2
8.386974778E2,-1.899437904E-1,-1.520347595E-1,-7.895827293E-3
8.391974778E2,2.244572639E-1,3.459453583E-2,4.922509193E-3
8.396974778E2,-1.262073517E-1,4.598903656E-2,1.420918703E-1
8.401974778E2,1.635704041E-1,1.433134079E-1,-1.082080603E-1
8.406974778E2,-1.228652000E-1,-1.312923431E-2,-1.923620701E-2
8.411974778E2,1.349377632E-1,6.057739258E-2,1.936283112E-1
8.416974778E2,-9.382867813E-2,1.492776871E-1,1.313284636E-1
8.421974778E2,-5.064678192E-2,4.708957672E-2,2.208089828E-2
8.426974778E2,1.176733971E-1,-3.122806549E-2,4.514873028E-2
8.431974778E2,7.941198349E-2,8.678150177E-2,-8.951699734E-2
8.436974778E2,-1.289749146E-2,3.246021271E-2,-8.396434784E-2
8.441974778E2,9.007501602E-2,-4.793071747E-2,-4.440414906E-2
8.446974778E2,-1.130895615E-1,1.321287155E-1,4.836213589E-2
8.451974778E2,4.379081726E-2,1.183185577E-1,6.399977207E-2
8.456974778E2,-2.465105057E-2,7.365322113E-2,-8.875584602E-2
8.461974778E2,-9.479093552E-2,1.412296295E-1,-4.942691326E-2
8.466974778E2,-8.773374557E-2,-1.178340912E-1,-4.664695263E-2
8.471974778E2,1.208586693E-1,7.896900177E-2,-3.524291515E-2
8.476974778E2,1.570649147E-1,5.450439453E-2,-6.336653233E-2
8.481974778E2,-2.539534569E-1,-8.176136017E-2,-2.513842583E-1
8.486974778E2,1.887698174E-1,8.967876434E-2,-1.353144646E-1
8.491974778E2,-3.764271736E-1,1.778764725E-1,-1.329497099E-1
8.496974778E2,4.068994522E-1,2.713489532E-2,-1.850113869E-1
8.501974778E2,-3.197135925E-1,-1.267690659E-1,-2.120780945E-2
8.506974778E2,-4.893398285E-2,-1.850128174E-2,-2.846361399E-1
8.511974778E2,2.152771950E-1,1.263036728E-1,-6.324481964E-2
8.516974778E2,-1.251635551E-1,1.085062027E-1,-2.373802662E-2
8.521974778E2,-5.559635162E-2,-5.812644958E-3,1.771032810E-2
8.526974778E2,-1.576118469E-1,-1.592435837E-1,-1.293909550E-2
8.531974778E2,2.946519852E-2,1.296129227E-1,6.558150053E-2
8.536974778E2,-1.490225792E-1,-2.781887054E-1,-3.088068962E-2
8.541974778E2,4.786252975E-2,3.726501465E-1,-1.907411814E-1
8.546974778E2,-3.050274849E-1,-1.502323151E-2,-6.878948212E-2
8.551974778E2,5.240917206E-2,-1.086502075E-1,-5.128371716E-2
8.556974778E2,-1.201949120E-1,-5.247783661E-2,-1.979196072E-2
8.561974778E2,-5.646848679E-2,1.242733002E-2,-3.323030472E-2
8.566974778E2,-4.234361649E-2,7.127285004E-2,-3.422355652E-2
8.571974778E2,-4.020071030E-2,-2.747697830E-1,-3.308892250E-2
8.576974778E2,-3.523826599E-2,-2.024517059E-1,-1.661553383E-1
8.581974778E2,-1.923046112E-1,-1.482763290E-1,6.831061840E-2
8.586974778E2,1.184124947E-1,5.328178406E-3,1.746416092E-4
8.591974778E2,-6.034812927E-1,-1.622867584E-1,6.864583492E-2
8.596974778E2,3.326411247E-1,1.535701752E-1,-3.387248516E-2
8.601974778E2,-6.471996307E-1,-4.270105362E-1,8.636116982E-3
8.606974778E2,-3.042545319E-1,-1.214036942E-1,5.685317516E-2
8.611974778E2,3.292036057E-2,-9.391403198E-2,1.196519732E-1
8.616974778E2,1.410441399E-1,-3.682041168E-2,1.218128204E-1
8.621974778E2,-1.037034988E-1,-1.555824280E-2,1.230858564E-1
8.626974778E2,-6.838417053E-2,-9.353446960E-2,-2.765107155E-2
8.631974778E2,-2.111673355E-2,-1.884460449E-2,3.727447987E-2
8.636974778E2,-5.420541763E-2,-1.173877716E-2,-3.750073910E-2
8.641974778E2,6.023120880E-2,1.989459991E-2,5.952477455E-3
8.646974778E2,-2.335429192E-1,-1.409196854E-1,2.394628525E-2
8.651974778E2,1.767535210E-1,7.630443573E-2,-3.289330006E-2
8.656974778E2,-9.847021103E-2,-1.786518097E-2,-1.839017868E-2
8.661974778E2,-3.994178772E-2,1.129350662E-1,1.448711753E-1
8.666974778E2,-7.040500641E-2,-7.863807678E-2,-1.267169714E-1
8.671974778E2,-8.630132675E-2,-2.489757538E-2,-1.312245131E-1
8.676974778E2,1.985712051E-1,4.421997070E-2,3.696262836E-2
8.681974778E2,2.456760406E-2,-1.706695557E-2,-8.236753941E-2
8.686974778E2,6.017398834E-2,6.067180634E-2,-1.052117348E-2
8.691974778E2,-5.914640427E-2,5.953121185E-2,1.932072639E-2
8.696974778E2,8.071422577E-3,-3.503322601E-2,5.606508255E-2
8.701974778E2,5.940198898E-2,1.665496826E-2,2.537977695E-2
8.706974778E2,1.454401016E-2,7.363319397E-3,-2.497923374E-2
8.711974778E2,1.541056633E-1,-5.456638336E-2,1.616775990E-2
8.716974778E2,-1.063742638E-1,6.577014923E-2,4.081094265E-2
8.721974778E2,1.369624138E-1,7.852268219E-2,6.001949310E-3
8.726974778E2,-2.541990280E-1,9.834575653E-2,-2.410113811E-2
8.731974778E2,-4.499816895E-2,3.258790970E-1,4.583597183E-3
8.736974778E2,5.976152420E-2,-3.189611435E-1,1.379841566E-2
8.741974778E2,1.103472710E-1,-1.124134064E-1,1.254107356E-1
8.746974778E2,-2.276353836E-1,2.901554108E-2,-6.376862526E-2
8.751974778E2,-2.399158478E-2,3.555583954E-2,5.037271976E-2
8.756974778E2,-1.545629501E-1,-3.504848480E-2,-1.148244143E-1
8.761974778E2,2.204642296E-1,-1.596260071E-2,3.683853149E-2
8.766974778E2,-1.314721107E-1,-1.478643417E-1,4.359710217E-2
8.771974778E2,2.764296532E-1,1.282262802E-1,2.043700218E-2
8.776974778E2,-1.702404022E-1,-2.167625427E-1,3.035503626E-2
8.781974778E2,-5.875015259E-2,2.650737762E-2,3.068828583E-2
8.786974778E2,5.160522461E-2,-6.666374207E-2,5.492484570E-2
8.791974778E2,-1.248450279E-1,-1.045370102E-1,-1.809656620E-2
8.796974778E2,3.756756783E-1,1.398839951E-1,1.457604170E-1
8.801974778E2,-9.924154282E-1,-6.295452118E-1,3.762459755E-2
8.806974778E2,3.081002235E-1,-1.655349731E-1,5.909025669E-2
8.811974778E2,-4.137024879E-1,-1.832790375E-1,6.145715714E-2
8.816974778E2,4.345073700E-1,1.666116714E-1,-6.716012955E-2
8.821974778E2,-2.763261795E-1,-2.233800888E-1,8.366888762E-2
8.826974778E2,1.283221245E-1,1.290578842E-1,7.504844666E-2
8.831974778E2,-1.390452385E-1,-1.072978973E-1,-1.173287630E-2
8.836974778E2,1.489748955E-1,9.329319000E-2,6.685459614E-2
8.841974778E2,1.807141304E-1,-1.190423965E-1,-8.965015411E-3
8.846974778E2,4.690313339E-2,-5.465793610E-2,-6.296169758E-2
8.851974778E2,1.358604431E-2,-4.506015778E-2,6.388407946E-2
8.856974778E2,-2.395386696E-1,-5.116558075E-2,-1.160979271E-2
8.861974778E2,8.215808868E-2,1.136999130E-1,-6.226897240E-2
8.866974778E2,1.133437157E-1,-1.168155670E-2,-8.476650715E-2
8.871974778E2,-3.898143768E-3,1.568012238E-1,-6.100487709E-2
8.876974778E2,1.675395966E-1,-7.708549500E-3,-1.061795950E-1
8.881974778E2,8.840322495E-2,-4.998207092E-3,1.178969145E-1
8.886974778E2,8.397150040E-2,2.874660492E-2,-1.850008965E-3
8.891974778E2,5.497217178E-2,-4.464626312E-2,2.699971199E-3
8.896974778E2,6.524991989E-2,-2.622127533E-2,9.357440472E-2
8.901974778E2,1.063842773E-1,-1.284646988E-1,-1.143277884E-1
8.906974778E2,-6.665658951E-2,1.209478378E-1,1.946455240E-1
8.911974778E2,-1.368026733E-1,2.229986191E-1,1.987398267E-1
8.916974778E2,7.170677185E-2,-2.976350784E-1,-1.240968704E-4
8.921974778E2,-3.664836884E-1,1.622838974E-1,8.708488941E-2
8.926974778E2,2.005376816E-1,1.157579422E-1,1.783438921E-1
8.931974778E2,1.852512360E-3,2.455062866E-1,-2.988874912E-1
8.936974778E2,4.125332832E-1,-1.428422928E-1,1.880687475E-1
8.941974778E2,-3.004755974E-1,6.131935120E-2,1.186552644E-1
8.946974778E2,7.597446442E-2,4.572381973E-1,-3.824610710E-1
8.951974778E2,-7.942883968E-1,-3.570365906E-2,-3.332067728E-1
8.956974778E2,6.714224815E-1,3.852834702E-1,-1.038976908E-1
8.961974778E2,-5.752446651E-1,-4.405117035E-2,-1.933870316E-1
8.966974778E2,6.287317276E-1,2.202816010E-1,4.846251011E-2
8.971974778E2,1.806306839E-2,-7.054328918E-3,-1.774775982E-2
8.976974778E2,8.900833130E-2,-2.597551346E-1,7.400155067E-3
8.981974778E2,1.720342636E-1,-1.399345398E-1,2.214571238E-1
8.986974778E2,-7.325077057E-2,3.535175323E-2,1.208246946E-1
8.991974778E2,-9.709358215E-2,4.672431946E-2,5.659341812E-3
8.996974778E2,-8.322477341E-2,6.122207642E-2,-1.069227457E-1
9.001974778E2,6.821155548E-3,1.406898499E-1,-1.821696758E-2
9.006974778E2,-2.390360832E-1,-4.456710815E-2,-7.653105259E-2
9.011974778E2,6.283807755E-2,1.928710938E-1,-1.437567472E-1
9.016974778E2,-1.282906532E-1,-1.141977310E-1,-1.158189774E-2
9.021974778E2,5.602693558E-2,-9.060001373E-2,5.241835117E-2
9.026974778E2,8.607721329E-2,3.260612488E-3,-1.128327847E-2
9.031974778E2,1.617045403E-1,1.045761108E-1,4.401814938E-2
9.036974778E2,-1.768217087E-1,-3.746318817E-2,-2.816367149E-2
9.041974778E2,1.675000191E-1,3.200531006E-2,-4.192459583E-2
9.046974778E2,1.566677094E-1,1.201581955E-1,5.069220066E-2
9.051974778E2,8.631610870E-2,2.173519135E-2,-1.931667328E-2
9.056974778E2,5.219793320E-2,4.585933685E-2,4.927861691E-2
9.061974778E2,6.930589676E-2,-7.578754425E-2,-7.223689556E-2
9.066974778E2,4.948854446E-2,-1.182603836E-1,4.732608795E-4
9.071974778E2,-8.337545395E-2,1.276369095E-1,5.092334747E-2
9.076974778E2,-7.477760315E-2,9.761714935E-2,1.258456707E-2
9.081974778E2,5.995273590E-3,3.117942810E-2,1.563823223E-2
9.086974778E2,3.460884094E-2,1.945400238E-2,-4.504144192E-2
9.091974778E2,7.018995285E-2,-1.234159470E-1,-1.195418835E-2
9.096974778E2,9.379529953E-2,-1.238441467E-2,7.552981377E-3
9.101974778E2,-3.198814392E-2,1.286220551E-2,-2.328956127E-2
9.106974778E2,-8.385562897E-2,-2.328109741E-2,4.147267342E-2
9.111974778E2,-4.025983810E-2,2.065563202E-2,-1.911652088E-2
9.116974778E2,-4.006767273E-2,-1.395511627E-2,-1.231706142E-2
9.121974778E2,5.935907364E-2,7.275390625E-2,1.330232620E-2
9.126974778E2,-1.672549248E-1,2.115058899E-2,1.476085186E-2
9.131974778E2,8.768463135E-2,-6.663322449E-3,-2.447665930E-1
9.136974778E2,4.110703468E-1,6.675720215E-6,-2.042921782E-1
9.141974778E2,-4.395461082E-1,7.431030273E-2,5.694339275E-1
9.146974778E2,-8.025183678E-1,-2.212982178E-1,-8.643934727E-1
9.151974778E2,-8.237171173E-2,-1.648454666E-1,9.280349016E-1
9.156974778E2,-4.115581512E-1,-2.197217941E-1,4.889061451E-1
9.161974778E2,-3.965663910E-1,-4.669876099E-1,5.549225211E-1
9.166974778E2,9.417676926E-2,8.246231079E-2,-8.708194494E-1
9.171974778E2,3.713374138E-1,9.977769852E-2,-5.818527937E-2
9.176974778E2,-3.121428490E-1,-1.067805290E-1,1.525446475E-1
9.181974778E2,5.957841873E-2,2.687406540E-2,-4.745812416E-1
9.186974778E2,-1.152658463E-2,-1.573038101E-2,-1.298871189E-1
9.191974778E2,1.221284866E-1,7.574415207E-2,1.247197688E-1
9.196974778E2,-4.901838303E-2,-6.631517410E-2,4.658868909E-2
9.201974778E2,2.631664276E-2,5.653953552E-2,-4.646289349E-2
9.206974778E2,1.345052719E-1,6.514501572E-2,8.865416050E-3
9.211974778E2,-3.810405731E-1,-2.524604797E-1,-8.353209496E-2
9.216974778E2,-9.050846100E-2,-1.230235100E-1,-3.447005451E-1
9.221974778E2,5.542755127E-2,2.578158379E-1,5.425238609E-2
9.226974778E2,1.672701836E-1,1.243829727E-1,-7.059252262E-2
9.231974778E2,4.632892609E-1,-8.503708839E-1,-1.577964544E0
9.236974778E2,-2.235326767E-1,3.024618626E-1,-9.865283966E-2
9.241974778E2,-1.989045143E-1,4.688756466E-1,4.479684830E-1
9.246974778E2,-1.025066376E-1,3.615021706E-1,3.328804970E-1
9.251974778E2,3.292665482E-1,1.981811523E-1,1.333803415E0
9.256974778E2,4.976649284E-1,-1.850600243E-1,-9.649658203E-2
9.261974778E2,4.522466660E-2,-4.044337273E-1,-5.166949630E-1
9.266974778E2,-5.394043922E-1,-5.086317062E-1,-8.006926775E-1
9.271974778E2,-1.719894409E-1,-2.885632515E-1,-3.987157345E-1
9.276974778E2,-7.092809677E-2,-1.118884087E-1,-1.838092208E-1
9.281974778E2,1.277174950E-1,6.184434891E-2,1.617804319E-1
9.286974778E2,-1.684036255E-1,-1.375708580E-1,-2.228304446E-1
9.291974778E2,1.363778114E-1,6.031179428E-2,2.763144672E-2
9.296974778E2,3.850221634E-2,-5.793571472E-3,-6.243461370E-2
9.301974778E2,-6.251287460E-2,-2.269601822E-2,3.397725523E-2
9.306974778E2,4.611587524E-2,1.396656036E-2,-1.313209534E-3
9.311974778E2,-1.271867752E-2,-3.857469559E-2,-3.925827146E-2
9.316974778E2,2.816581726E-2,3.975391388E-3,-4.004812241E-2
9.321974778E2,1.622676849E-3,3.139638901E-2,-1.429182291E-2
9.326974778E2,-3.827953339E-2,-2.313518524E-2,-1.544812322E-2
9.331974778E2,2.787113190E-3,1.206779480E-2,2.095326781E-2
9.336974778E2,-4.722595215E-3,3.215789795E-3,5.910396576E-4
9.341974778E2,-2.597427368E-2,-7.452011108E-3,-5.248337984E-2
9.346974778E2,-4.232645035E-2,3.933906555E-4,-1.003628969E-2
9.351974778E2,2.708196640E-2,2.577304840E-3,-4.009479284E-2
9.356974778E2,-4.138183594E-2,-3.218221664E-2,-5.475294590E-2
9.361974778E2,8.265209198E-2,6.798124313E-2,4.935130477E-2
9.366974778E2,3.392219543E-2,-4.393577576E-3,1.889893413E-2
9.371974778E2,-7.381391525E-2,-5.777692795E-2,-2.574715018E-2
9.376974778E2,7.943153381E-3,1.283979416E-2,-2.157554030E-2
9.381974778E2,1.370525360E-2,-7.236480713E-3,3.766328096E-2
9.386974778E2,1.958227158E-2,1.774835587E-2,-3.631889820E-3
9.391974778E2,-9.589672089E-3,-9.439945221E-3,-3.112375736E-2
9.396974778E2,-2.460479736E-2,1.419448853E-2,5.183011293E-3
9.401974778E2,-7.325887680E-2,-1.141500473E-2,1.073106304E-1
9.406974778E2,4.350376129E-2,3.414154053E-4,-1.396693289E-1
9.411974778E2,4.393672943E-2,2.189445496E-2,6.858369708E-2
9.416974778E2,-3.456544876E-2,-3.969907761E-2,-1.021867990E-2
9.421974778E2,7.929801941E-4,2.876758575E-3,-1.626217365E-2
9.426974778E2,-1.952648163E-2,-1.642227173E-2,1.368635893E-2
9.431974778E2,-3.892469406E-2,-4.448699951E-2,-8.142113686E-2
9.436974778E2,1.060724258E-1,1.023139954E-1,3.656092286E-2
9.441974778E2,8.822965622E-2,4.328918457E-2,1.234243810E-1
9.446974778E2,-7.056903839E-2,-4.486131668E-2,3.443011642E-2
9.451974778E2,2.305936813E-2,2.764463425E-2,-3.053274751E-2
9.456974778E2,-1.041078568E-2,-2.541971207E-2,-1.488265395E-2
9.461974778E2,-3.163051605E-2,-1.755189896E-2,-2.000850439E-2
9.466974778E2,-2.622604370E-4,-2.908706665E-5,-1.447910070E-2
9.471974778E2,-1.493201256E-1,-9.641313553E-2,-2.437979579E-1
9.476974778E2,-1.231007576E-1,-5.446577072E-2,-6.654620171E-2
9.481974778E2,-7.097387314E-2,-5.379199982E-2,-4.627019167E-2
9.486974778E2,1.592350006E-2,4.215574265E-2,-1.128488779E-1
9.491974778E2,5.678653717E-2,4.295825958E-2,5.384778976E-2
9.496974778E2,-1.604890823E-2,3.555297852E-3,2.757871151E-2
9.501974778E2,-6.255531311E-2,-5.439710617E-2,6.047928333E-2
9.506974778E2,-3.292994499E-1,-2.427806854E-1,1.277891397E-1
9.511974778E2,8.223581314E-2,-2.231454849E-2,-6.886649132E-2
9.516974778E2,1.104965210E-1,-2.956061363E-1,1.439539790E-1
9.521974778E2,1.138448715E-1,4.770975113E-1,-8.269637823E-2
9.526974778E2,2.888793945E-1,-3.022923470E-1,-1.048976302E0
9.531974778E2,3.617961407E0,-3.868496418E0,-2.719210625E0
