"Time (s)","Acceleration x (m/s^2)","Acceleration y (m/s^2)","Acceleration z (m/s^2)"
0.000000000E0,2.109273195E0,2.992224693E0,9.780662537E0
1.888593800E-2,2.487339020E0,2.455035925E0,1.050927734E1
5.188859380E-1,1.899901152E0,4.127618968E-1,1.193719387E1
1.018885938E0,1.949552298E0,7.944171429E-1,1.197488117E1
1.518885938E0,1.001994491E0,-4.755735099E-1,9.150154114E0
2.018885938E0,9.333803177E0,-1.141376400E1,1.962114573E0
2.518885938E0,8.246863365E0,-1.059362411E1,-7.304090858E-1
3.018885938E0,7.983652592E0,-1.058106136E1,-5.108676553E-1
3.518885938E0,6.988836765E0,-8.727820396E0,-1.151545882E0
4.018885938E0,6.186643124E0,-5.947360516E0,-1.027119160E0
4.518885938E0,3.040679455E0,-4.773082733E0,-4.267599106E0
5.018885938E0,3.428316593E0,-5.844469070E0,2.380858511E-1
5.518885938E0,3.616751432E0,-5.090730190E0,-3.032304525E0
6.018885938E0,2.896511793E0,-7.404589653E0,-1.846062660E0
6.518885938E0,3.547957659E0,-7.176673412E0,-1.328614831E0
7.018885938E0,4.400999069E0,-1.003908730E1,-1.403988719E0
7.518885938E0,6.398407936E0,-1.239841080E1,-4.929214716E-1
8.018885938E0,4.284946918E0,-1.042492962E1,-1.031904817E0
8.518885938E0,1.042792130E1,-1.070728302E1,-1.499701619E0
9.018885938E0,4.974080086E0,-1.024965572E1,-2.165504545E-1
9.518885938E0,1.014915752E1,-8.106883049E0,-2.202593327E0
1.001888594E1,6.555137634E0,-8.645866394E0,-1.025922656E0
1.051888594E1,8.742177963E0,-8.971888542E0,-3.461217880E0
1.101888594E1,6.547959328E0,-7.950153351E0,-8.949156404E-1
1.151888594E1,5.215157032E0,-6.978667259E0,1.165902853E0
1.201888594E1,3.198007345E0,-5.553143024E0,-3.492324591E0
1.251888594E1,1.687538147E0,-6.264409542E0,5.312066078E-1
1.301888594E1,2.730808735E0,-5.176871777E0,-3.023331404E0
1.351888594E1,3.552743435E0,-6.741777897E0,-1.480558991E0
1.401888594E1,3.729214191E0,-8.081160545E0,-1.132403374E0
1.451888594E1,4.094717979E0,-8.293522835E0,-4.277170599E-1
1.501888594E1,6.600601196E0,-1.039322472E1,-1.781456470E0
1.551888594E1,4.495515347E0,-1.022333431E1,-6.185446382E-1
1.601888594E1,6.272784710E0,-1.061157036E1,-1.422533035E0
1.651888594E1,4.974080086E0,-1.148076344E1,-1.160518974E-1
1.701888594E1,6.805187702E0,-1.065284634E1,-2.539981127E0
1.751888594E1,4.213162422E0,-1.243609715E1,-4.965106845E-1
1.801888594E1,8.717651367E0,-1.222552872E1,-3.132802963E0
1.851888594E1,6.392425537E0,-9.238089561E0,-1.475773335E0
1.901888594E1,7.445267677E0,-7.484749317E0,-1.255035520E0
1.951888594E1,5.144568920E0,-5.750551224E0,-3.712464333E0
2.001888594E1,3.911068678E0,-6.203990936E0,-8.650053740E-1
2.051888594E1,2.633301258E0,-5.728417397E0,-4.115654945E0
2.101888594E1,3.119044304E0,-6.059823513E0,8.374879137E-3
2.151888594E1,2.917448997E0,-5.971288681E0,-2.700300455E0
2.201888594E1,2.221735716E0,-7.648657799E0,-1.601396561E0
2.251888594E1,3.560520172E0,-8.218747139E0,-5.084748268E-1
2.301888594E1,3.334398270E0,-8.322237015E0,-1.432104349E0
2.351888594E1,6.541976929E0,-1.085683441E1,-9.876375198E-1
2.401888594E1,3.935595036E0,-1.168475151E1,-3.081955671E0
2.451888594E1,6.543771744E0,-9.914660454E0,-3.640081406E0
2.501888594E1,4.627718925E0,-1.023769188E1,-1.561915040E0
2.551888594E1,9.799206734E0,-8.974281311E0,-3.525824070E0
2.601888594E1,7.117451191E0,-8.799605370E0,-1.209571838E0
2.651888594E1,6.009573936E0,-7.164111137E0,2.135594189E-1
2.701888594E1,3.668795347E0,-4.558925152E0,-3.726821184E0
2.751888594E1,2.764308453E0,-5.386841774E0,2.572284266E-2
2.801888594E1,2.933600664E0,-5.779862881E0,-3.812962770E0
2.851888594E1,2.526820660E0,-7.110272408E0,-9.906286001E-1
2.901888594E1,3.115455151E0,-8.950951576E0,-2.641676188E0
2.951888594E1,3.356531858E0,-1.089511967E1,-2.075773716E0
3.001888594E1,5.450850010E0,-1.159920788E1,-1.731207132E0
3.051888594E1,3.644867182E0,-1.258445263E1,-1.659422517E0
3.101888594E1,7.366304398E0,-1.235055447E1,-2.226521492E0
3.151888594E1,3.697509289E0,-1.142512989E1,-1.279561877E0
3.201888594E1,9.821340561E0,-9.237491608E0,-3.455235958E0
3.251888594E1,5.825924873E0,-1.177747345E1,-1.596610904E0
3.301888594E1,8.153543472E0,-9.639486313E0,-1.189831018E0
3.351888594E1,7.051050186E0,-7.862815380E0,4.773681164E-1
3.401888594E1,4.584648132E0,-8.103293419E0,-1.357926875E-1
3.451888594E1,5.320441246E0,-5.071587563E0,-3.748356581E0
3.501888594E1,5.136193752E0,-7.048058987E0,1.819741607E0
3.551888594E1,2.890529871E0,-5.377270699E0,-2.152343988E0
3.601888594E1,2.647658348E0,-6.495915413E0,-1.661815286E0
3.651888594E1,3.238685369E0,-6.966702938E0,-2.270190477E0
3.701888594E1,3.409173965E0,-9.125029564E0,-2.440679073E0
3.751888594E1,4.485345840E0,-1.117807102E1,-1.208375469E-1
3.801888594E1,5.800201893E0,-1.182413292E1,-1.786242127E0
3.851888594E1,6.790830612E0,-1.403330708E1,-2.453241348E0
3.901888594E1,3.656233072E0,-1.109791183E1,-1.006780148E0
3.951888594E1,1.049791145E1,-1.120618629E1,-2.349751949E0
4.001888594E1,2.587239504E0,-1.037228775E1,-3.975674868E0
4.051888594E1,6.343971252E0,-6.428916454E0,-8.883354068E-1
4.101888594E1,4.325026989E0,-5.069194794E0,-3.086741209E0
4.151888594E1,3.225524902E0,-7.100102901E0,1.136590727E-2
4.201888594E1,3.665804386E0,-4.704289436E0,-3.972085476E0
4.251888594E1,1.377069473E0,-1.040219784E1,-3.113660574E0
4.301888594E1,6.899106026E0,-1.312523079E1,4.468596280E-1
4.351888594E1,3.101098061E0,-1.155434227E1,-1.123430252E0
4.401888594E1,9.016156197E0,-1.363609791E1,-3.649054468E-1
4.451888594E1,3.589233875E0,-1.224766254E1,-1.374676585E0
4.501888594E1,1.053320503E1,-1.160160065E1,-4.393222332E0
4.551888594E1,4.840082169E0,-8.478368759E0,-2.440679073E0
4.601888594E1,5.164907455E0,-7.299903870E0,-4.606183618E-2
4.651888594E1,4.117449760E0,-4.583451748E0,-4.466203690E0
4.701888594E1,2.927618504E0,-7.901100159E0,-1.211964726E0
4.751888594E1,4.142574310E0,-5.492724419E0,-3.571287870E0
4.801888594E1,2.018345833E0,-1.021077251E1,-3.042474031E0
4.851888594E1,8.014161110E0,-1.193719387E1,4.797609448E-1
4.901888594E1,2.063809633E0,-1.043749237E1,-5.186443329E-1
4.951888594E1,1.088853931E1,-1.320838070E1,-2.139183521E0
5.001888594E1,3.745365620E0,-1.199940777E1,6.011967063E-1
5.051888594E1,6.540182590E0,-9.499505997E0,-2.410768867E-1
5.101888594E1,6.138786316E0,-6.299703598E0,-4.794020176E0
5.151888594E1,4.015156269E0,-8.898308754E0,3.840480447E-1
5.201888594E1,5.574080467E0,-5.149354458E0,-5.938985825E0
5.251888594E1,1.491924882E0,-9.282955170E0,-1.837687731E0
5.301888594E1,7.495516777E0,-8.914461136E0,-1.262213945E0
5.351888594E1,2.442473650E0,-1.058106136E1,-2.006979942E0
5.401888594E1,9.615557671E0,-1.017248726E1,1.427318692E0
5.451888594E1,5.316852093E0,-1.347637749E1,-1.302891970E0
5.501888594E1,8.565108299E0,-1.076949692E1,-1.545763373E0
5.551888594E1,5.715855122E0,-1.265623760E1,4.007977843E-1
5.601888594E1,9.812367439E0,-8.816354752E0,-1.201196909E0
5.651888594E1,5.569294930E0,-1.011505985E1,4.241278172E-1
5.701888594E1,7.449455261E0,-8.636893272E0,-1.369890928E0
5.751888594E1,4.284348965E0,-5.935994625E0,-5.643472195E0
5.801888594E1,2.726023197E0,-6.212964058E0,5.012963414E-1
5.851888594E1,3.799802303E0,-4.202992916E0,-3.966103554E0
5.901888594E1,2.300100803E0,-7.022336483E0,-3.367897868E-1
5.951888594E1,3.287738323E0,-5.696712494E0,-2.755335331E0
6.001888594E1,1.461416483E0,-8.893523216E0,-2.291127682E0
6.051888594E1,2.970689297E0,-9.869196892E0,-6.699903607E-1
6.101888594E1,3.308077335E0,-9.973284721E0,-2.373680115E0
6.151888594E1,5.440082073E0,-1.104885864E1,-7.070791125E-1
6.201888594E1,4.492524624E0,-1.024008465E1,-2.341975212E0
6.251888594E1,7.552944660E0,-1.055892849E1,-2.249253243E-1
6.301888594E1,4.055236340E0,-1.100100231E1,-1.339980721E0
6.351888594E1,9.443274498E0,-1.149033451E1,-2.913261652E0
6.401888594E1,6.969694138E0,-7.986045361E0,-1.794617064E-2
6.451888594E1,6.803991318E0,-9.757930756E0,3.541377485E-1
6.501888594E1,6.197410583E0,-4.790431023E0,-2.552543640E0
6.551888594E1,4.896911621E0,-6.112465382E0,6.634100676E-1
6.601888594E1,4.195216179E0,-5.115854740E0,-3.906282902E0
6.651888594E1,2.904886723E0,-6.781259537E0,-2.373680115E0
6.701888594E1,3.238087177E0,-6.495915413E0,-1.185045362E0
6.751888594E1,1.929811478E0,-7.821538925E0,-2.102094650E0
6.801888594E1,2.844467878E0,-7.689335346E0,-3.990031779E-1
6.851888594E1,2.826521635E0,-9.384650230E0,-4.995017350E-1
6.901888594E1,4.252644062E0,-9.724431038E0,-2.853440940E-1
6.951888594E1,4.060021877E0,-1.158126163E1,-5.252245665E-1
7.001888594E1,8.009973526E0,-1.065942669E1,-2.011167526E0
7.051888594E1,5.157131195E0,-1.272024536E1,-2.380858511E-1
7.101888594E1,7.743174076E0,-1.154297638E1,-1.352542996E0
7.151888594E1,3.932005882E0,-1.329153156E1,4.462614357E-1
7.201888594E1,8.352147102E0,-1.153938675E1,-1.085145116E0
7.251888594E1,5.650650501E0,-1.199880886E1,1.671386600E0
7.301888594E1,7.481758118E0,-9.337990761E0,-1.288534999E0
7.351888594E1,5.506483078E0,-7.600800991E0,-3.911666870E0
7.401888594E1,5.498706341E0,-5.313262463E0,2.947957516E0
7.451888594E1,2.554338217E0,-4.609772682E0,-3.955934048E0
7.501888594E1,4.465006828E0,-6.419344902E0,2.841476798E-1
7.551888594E1,2.930011272E0,-4.633700848E0,-3.394218922E0
7.601888594E1,1.548754454E0,-8.507680893E0,-2.046461582E0
7.651888594E1,3.337389469E0,-8.378468513E0,-9.571290612E-1
7.701888594E1,1.958525300E0,-1.035793114E1,-2.743969440E0
7.751888594E1,4.365705013E0,-1.059063339E1,1.932204217E-1
7.801888594E1,4.938786030E0,-1.031665516E1,-1.503889084E0
7.851888594E1,6.999604225E0,-1.041476059E1,-6.059823632E-1
7.901888594E1,5.143372059E0,-1.098784161E1,-4.307080805E-2
7.951888594E1,8.151150703E0,-1.132881927E1,5.694918036E-1
8.001888594E1,6.014359951E0,-9.909276962E0,-1.482353687E0
8.051888594E1,9.451649666E0,-1.349910927E1,-3.530609846E0
8.101888594E1,5.705685616E0,-7.846663475E0,-2.324028969E0
8.151888594E1,3.193221807E0,-6.553342819E0,1.456630826E0
8.201888594E1,5.130211830E0,-5.468197823E0,-2.871387243E0
8.251888594E1,3.385245800E0,-6.002395630E0,9.188438654E-1
8.301888594E1,3.557528973E0,-5.814558983E0,-1.368694544E0
8.351888594E1,2.694318295E0,-9.100502968E0,-5.730810165E-1
8.401888594E1,5.452644825E0,-1.096510983E1,2.755335331E0
8.451888594E1,6.004788399E0,-1.053440189E1,2.114058733E0
8.501888594E1,6.286543369E0,-1.198983574E1,1.228116274E0
8.551888594E1,7.396812916E0,-1.031426239E1,4.120440483E0
8.601888594E1,9.135796547E0,-1.127318573E1,7.274180651E-1
8.651888594E1,4.367499352E0,-7.386045456E0,-1.480558991E0
8.701888594E1,5.651846886E0,-6.585047722E0,2.707478762E0
8.751888594E1,3.550948858E0,-4.322634220E0,-2.584248543E0
8.801888594E1,3.372683525E0,-5.977271080E0,-3.367897868E-1
8.851888594E1,3.946362734E0,-1.944766641E0,-2.255833626E0
8.901888594E1,3.707678795E0,-7.599604607E0,-3.784249067E0
8.951888594E1,4.822135925E0,-1.064207840E1,2.092523336E0
9.001888594E1,3.722035646E0,-1.194018459E1,-2.901297510E-1
9.051888594E1,7.747959614E0,-1.186062336E1,-2.165504545E-1
9.101888594E1,4.589433670E0,-1.303968716E1,2.482553482E0
9.151888594E1,6.987041950E0,-1.023170948E1,-1.295713425E0
9.201888594E1,4.907081127E0,-7.954938889E0,-1.585843205E0
9.251888594E1,3.784249067E0,-8.242077827E0,2.535195589E0
9.301888594E1,3.879961967E0,-5.245067120E0,-4.954339504E0
9.351888594E1,2.130808592E0,-5.822933674E0,7.513462901E-1
9.401888594E1,2.217548370E0,-6.748956203E0,-3.772284985E0
9.451888594E1,4.640879631E0,-6.768697262E0,1.902294010E-1
9.501888594E1,3.300300598E0,-6.963113785E0,-9.966106415E-1
9.551888594E1,3.071187973E0,-7.371688366E0,-2.311466694E0
9.601888594E1,1.594816327E0,-9.108279228E0,-7.716853023E-1
9.651888594E1,4.207778454E0,-1.023350430E1,6.807580590E-1
9.701888594E1,6.385845661E0,-1.274536991E1,-1.710868180E-1
9.751888594E1,5.133202553E0,-1.291466236E1,-5.862415582E-2
9.801888594E1,9.522237778E0,-9.622138023E0,-3.796213150E0
9.851888594E1,8.830712318E0,-7.286743164E0,-4.235296249E0
9.901888594E1,4.251447678E0,-7.344171047E0,1.339980721E0
9.951888594E1,6.163911343E0,-4.546362877E0,-1.903490424E0
1.000188859E2,4.562514782E0,-6.479763508E0,2.391027927E0
1.005188859E2,4.135993958E0,-3.801596880E0,-2.665604353E0
1.010188859E2,1.170688510E0,-8.583653450E0,-5.982056726E-3
1.015188859E2,3.895515203E0,-7.947760582E0,7.357929647E-2
1.020188859E2,3.242872953E0,-9.263813019E0,-1.563111424E0
1.025188859E2,6.157928944E0,-1.053499985E1,-7.058826834E-2
1.030188859E2,3.539582968E0,-1.138804150E1,-1.312463164E0
1.035188859E2,8.827720642E0,-1.221476173E1,1.707278967E0
1.040188859E2,3.305086374E0,-1.481994724E1,1.483550072E-1
1.045188859E2,8.894720078E0,-1.012164021E1,-2.791825771E0
1.050188859E2,6.538986206E0,-1.014377308E1,-1.529611826E0
1.055188859E2,6.306283951E0,-8.438288689E0,-1.390828133E0
1.060188859E2,5.745765209E0,-5.771488190E0,-2.133201361E0
1.065188859E2,3.117249727E0,-7.094120979E0,1.220339537E0
1.070188859E2,2.311466694E0,-4.877768993E0,-3.245863914E0
1.075188859E2,1.810768485E0,-7.794021606E0,-1.392622828E0
1.080188859E2,3.193221807E0,-6.870391846E0,-1.097109199E0
1.085188859E2,3.466601849E0,-8.352746010E0,-1.389631748E0
1.090188859E2,5.072783947E0,-1.030169964E1,1.116251707E0
1.095188859E2,2.857030153E0,-1.082991505E1,-3.242274821E-1
1.100188859E2,8.374878883E0,-1.218903828E1,2.977867842E0
1.105188859E2,4.066003799E0,-1.235055447E1,4.558327198E-1
1.110188859E2,8.422736168E0,-9.321240425E0,-4.785645381E-2
1.115188859E2,5.063212872E0,-1.163749313E1,2.627319336E0
1.120188859E2,8.153543472E0,-1.025264645E1,-2.871387079E-2
1.125188859E2,6.025127411E0,-6.541976929E0,-4.500301361E0
1.130188859E2,3.781856298E0,-6.413960934E0,1.992623091E0
1.135188859E2,3.990031719E0,-5.191228867E0,-2.611167669E0
1.140188859E2,2.261815548E0,-6.223133564E0,3.254238665E-1
1.145188859E2,2.053041935E0,-6.620342255E0,4.342973232E-1
1.150188859E2,2.651247501E0,-7.098906517E0,-6.173482537E-1
1.155188859E2,2.873181820E0,-6.808776855E0,-1.751546144E0
1.160188859E2,3.410370588E0,-7.411767960E0,-1.284347534E0
1.165188859E2,4.726422787E0,-9.113663673E0,9.056833982E-1
1.170188859E2,5.173282623E0,-9.987641335E0,-1.084546804E0
1.175188859E2,6.552744865E0,-1.150170040E1,-9.589236975E-1
1.180188859E2,5.446064472E0,-1.043569756E1,1.710868180E-1
1.185188859E2,1.008036327E1,-1.126062298E1,1.609173268E-1
1.190188859E2,5.377270699E0,-1.234098244E1,1.397408366E0
1.195188859E2,9.964909554E0,-1.190967655E1,-4.060021877E0
1.200188859E2,8.075178146E0,-1.094118118E1,5.802595019E-1
1.205188859E2,7.657032490E0,-7.184450150E0,-1.289133191E0
1.210188859E2,6.709474564E0,-6.433103561E0,-1.526620865E0
1.215188859E2,5.487340450E0,-6.183053493E0,9.553344250E-1
1.220188859E2,2.967100143E0,-5.059623718E0,-3.664607763E0
1.225188859E2,2.961117983E0,-5.860620975E0,5.246263742E-1
1.230188859E2,3.515654564E0,-5.267200947E0,-2.182254314E0
1.235188859E2,2.590230465E0,-5.846862316E0,-9.170492887E-1
1.240188859E2,3.467798233E0,-5.810969830E0,-1.740180254E0
1.245188859E2,3.911666870E0,-7.371089935E0,-5.324030519E-1
1.250188859E2,2.659622431E0,-7.974679470E0,-1.759322882E0
1.255188859E2,2.821736097E0,-9.074779510E0,-2.050050735E0
1.260188859E2,3.491726398E0,-9.547362328E0,-8.823533654E-1
1.265188859E2,4.439882278E0,-9.964909554E0,-1.056431174E0
1.270188859E2,7.969295979E0,-1.033400249E1,-2.488535494E-1
1.275188859E2,3.123231649E0,-1.181695461E1,-2.069791555E-1
1.280188859E2,9.944570541E0,-1.187139130E1,-2.428714931E-1
1.285188859E2,4.633700848E0,-1.197188950E1,-7.262216806E-1
1.290188859E2,7.725826263E0,-9.090931892E0,-2.662015200E0
1.295188859E2,5.598008633E0,-7.899305820E0,-2.573480844E0
1.300188859E2,4.988437176E0,-7.009175777E0,-5.850451589E-1
1.305188859E2,4.079164505E0,-5.498706341E0,-4.434498787E0
1.310188859E2,2.922234535E0,-4.983053207E0,-2.919243574E-1
1.315188859E2,4.010370731E0,-4.545166492E0,-3.987638950E0
1.320188859E2,2.225325108E0,-7.747959614E0,-1.959123492E0
1.325188859E2,4.393222332E0,-7.995616913E0,-1.209571838E0
1.330188859E2,4.171886444E0,-1.122054386E1,-1.614557028E0
1.335188859E2,5.693123341E0,-1.278425312E1,-2.967100143E-1
1.340188859E2,4.198207378E0,-9.335597992E0,-5.024927258E-1
1.345188859E2,8.408378601E0,-1.075513935E1,1.036690354E0
1.350188859E2,3.748954773E0,-1.175354481E1,-1.067198873E0
1.355188859E2,9.387641907E0,-1.125284672E1,-3.614358664E0
1.360188859E2,5.553143024E0,-9.403793335E0,-2.486740828E0
1.365188859E2,4.596014023E0,-7.068397999E0,-6.765705943E-1
1.370188859E2,2.965903759E0,-4.016951084E0,-4.064807415E0
1.375188859E2,3.587439299E0,-5.466403484E0,-6.340979785E-2
1.380188859E2,1.981257200E0,-6.000002861E0,-1.992623091E0
1.385188859E2,2.455035925E0,-8.495717049E0,-1.718046665E0
1.390188859E2,5.246861935E0,-8.462217331E0,1.288534999E0
1.395188859E2,5.339583874E0,-9.089137077E0,-7.274180651E-1
1.400188859E2,7.619943619E0,-1.135753250E1,7.674978375E-1
1.405188859E2,4.823930264E0,-1.087298584E1,-5.204389095E-1
1.410188859E2,9.664012909E0,-9.946365356E0,-1.826321840E0
1.415188859E2,6.144768715E0,-1.055354404E1,1.774278045E0
1.420188859E2,5.707480431E0,-6.829115868E0,1.333400369E0
1.425188859E2,4.107878208E0,-4.290929317E0,-4.595416069E0
1.430188859E2,3.401397467E0,-6.277570248E0,4.905286431E-2
1.435188859E2,3.049652576E0,-6.881757736E0,-1.901695848E0
1.440188859E2,3.118446112E0,-7.925028801E0,-2.206182480E0
1.445188859E2,5.962913990E0,-9.595218658E0,-6.448656917E-1
1.450188859E2,3.693321705E0,-1.079761219E1,-1.000199914E0
1.455188859E2,9.355937004E0,-1.078086281E1,-1.164706469E0
1.460188859E2,3.717249870E0,-1.501615810E1,-8.913264424E-2
1.465188859E2,8.741579056E0,-1.088375378E1,-3.285943747E0
1.470188859E2,5.411368370E0,-8.011170387E0,-2.184048891E0
1.475188859E2,3.600001574E0,-5.047060966E0,6.382854581E-1
1.480188859E2,2.085345030E0,-5.460421085E0,-3.329612732E0
1.485188859E2,2.316252232E0,-7.714460373E0,-2.123630047E0
1.490188859E2,2.075773716E0,-7.045666218E0,-1.566102386E0
1.495188859E2,3.056232691E0,-9.760921478E0,-1.737189293E0
1.500188859E2,5.541777134E0,-1.081256771E1,1.642672777E0
1.505188859E2,3.632304668E0,-1.269033527E1,3.571287692E-1
1.510188859E2,8.569893837E0,-1.325444317E1,-2.391027927E0
1.515188859E2,7.312466145E0,-1.008036327E1,1.618744493E0
1.520188859E2,6.625127792E0,-8.565108299E0,2.201396823E-1
1.525188859E2,5.115854740E0,-4.696512699E0,-3.236292601E0
1.530188859E2,3.969094515E0,-6.034698486E0,1.496710539E0
1.535188859E2,3.352942705E0,-5.999404430E0,-3.693321705E0
1.540188859E2,2.477767944E0,-8.706883430E0,-1.941177368E0
1.545188859E2,3.994817495E0,-8.384450912E0,-7.465606928E-1
1.550188859E2,3.269792080E0,-1.126660538E1,-6.299105883E-1
1.555188859E2,6.385845661E0,-1.149870968E1,4.995017350E-1
1.560188859E2,4.313661098E0,-1.082692432E1,-1.351944804E-1
1.565188859E2,6.756134510E0,-1.241695499E1,-1.068395257E0
1.570188859E2,7.971090317E0,-9.625727654E0,2.483749866E0
1.575188859E2,6.760322094E0,-8.076972961E0,9.924231768E-1
1.580188859E2,5.346762180E0,-5.200201988E0,-3.834498405E0
1.585188859E2,2.687737942E0,-6.745965004E0,-1.501496136E-1
1.590188859E2,3.175873756E0,-5.423332691E0,-1.638485312E0
1.595188859E2,2.038684845E0,-7.429116249E0,-1.777269006E0
1.600188859E2,4.347160339E0,-7.567899704E0,-1.331605792E0
1.605188859E2,3.781856298E0,-1.048415279E1,-9.092726111E-1
1.610188859E2,6.174678802E0,-1.135334492E1,-1.244267747E-1
1.615188859E2,2.739183664E0,-1.059242725E1,1.389033556E0
1.620188859E2,7.084549427E0,-1.212862015E1,-3.422932863E0
1.625188859E2,4.859224796E0,-9.318847656E0,-1.843669891E0
1.630188859E2,2.161915302E0,-7.768897057E0,4.019941986E-1
1.635188859E2,1.925624013E0,-6.323033810E0,-5.542973518E0
1.640188859E2,3.865604877E0,-6.851249218E0,5.246263742E-1
1.645188859E2,4.871787071E0,-4.720440865E0,-1.534397483E0
1.650188859E2,1.907677889E0,-7.033702374E0,-1.103689432E0
1.655188859E2,4.424927235E0,-8.554939270E0,-2.030309916E0
1.660188859E2,2.951546669E0,-9.492925644E0,1.488335729E0
1.665188859E2,6.461817741E0,-1.118524933E1,1.716252089E0
1.670188859E2,5.983851433E0,-1.272682571E1,1.521835208E0
1.675188859E2,8.216953278E0,-1.014556789E1,-3.104089260E0
1.680188859E2,5.355136871E0,-8.723034859E0,1.692921966E-1
1.685188859E2,4.518845558E0,-6.457031727E0,1.813759565E0
1.690188859E2,3.855435371E0,-4.423730850E0,-3.832105398E0
1.695188859E2,2.483749866E0,-7.519444942E0,6.239284873E-1
1.700188859E2,3.131008387E0,-5.792425632E0,-2.490330219E0
1.705188859E2,1.989033818E0,-9.855438232E0,-1.611566067E0
1.710188859E2,4.019941807E0,-1.104048347E1,-3.744767308E-1
1.715188859E2,6.176473618E0,-1.088375378E1,-1.601994753E0
1.720188859E2,1.013001442E1,-1.121276665E1,-2.263610125E0
1.725188859E2,4.506881237E0,-1.320060444E1,6.508477330E-1
1.730188859E2,7.578667641E0,-7.670193195E0,-2.447259426E0
1.735188859E2,5.419145107E0,-8.376075745E0,7.956135273E-2
1.740188859E2,3.570091486E0,-6.830910206E0,9.062815905E-1
1.745188859E2,2.794816732E0,-4.837090969E0,-3.823730469E0
1.750188859E2,2.069193363E0,-7.136593342E0,-1.034895778E-1
1.755188859E2,1.302891970E0,-6.128616810E0,-2.532802820E0
1.760188859E2,2.346760750E0,-9.459425926E0,-1.046859860E0
1.765188859E2,4.435096741E0,-9.973284721E0,2.291127682E0
1.770188859E2,3.085544825E0,-1.206939697E1,-3.810569942E-1
1.775188859E2,6.275775433E0,-1.349432373E1,8.961120844E-1
1.780188859E2,4.385445595E0,-1.398664665E1,-4.133601189E-1
1.785188859E2,7.177271366E0,-1.064806080E1,-8.518448472E-1
1.790188859E2,4.622933388E0,-6.084349632E0,-1.330409408E0
1.795188859E2,4.004388809E0,-5.970690727E0,2.136192322E0
1.800188859E2,3.930809498E0,-4.223930359E0,-2.944368362E0
1.805188859E2,1.805982947E0,-7.740182877E0,-8.883354068E-1
1.810188859E2,2.748754978E0,-7.274180889E0,-2.809173822E0
1.815188859E2,2.657827854E0,-1.092861938E1,-2.230110645E0
1.820188859E2,6.090332031E0,-1.232602787E1,2.506481707E-1
1.825188859E2,1.996810555E0,-1.172303677E1,-8.105686903E-1
1.830188859E2,8.885149002E0,-1.131685448E1,-1.599601984E0
1.835188859E2,4.228715897E0,-1.058764172E1,5.551348329E-1
1.840188859E2,6.766902447E0,-6.946962357E0,-1.080359459E0
1.845188859E2,5.775077343E0,-5.124229908E0,-3.758526087E0
1.850188859E2,3.852444410E0,-5.611767292E0,9.218349457E-1
1.855188859E2,3.712464333E0,-4.640281200E0,-3.623929977E0
1.860188859E2,1.040279627E0,-8.583653450E0,-1.357328653E0
1.865188859E2,3.128615618E0,-8.781659126E0,-8.171489239E-1
1.870188859E2,4.526023865E0,-1.054756260E1,2.572284341E-1
1.875188859E2,6.990033150E0,-1.076471043E1,1.456630826E0
1.880188859E2,3.099901676E0,-1.046142101E1,5.503492355E-1
1.885188859E2,9.161520004E0,-9.702297211E0,1.405185103E0
1.890188859E2,3.560520172E0,-1.190010548E1,1.639681697E0
1.895188859E2,1.010847950E1,-8.564510345E0,-3.074777126E-1
1.900188859E2,4.552943230E0,-1.014736271E1,-1.191625714E0
1.905188859E2,6.803991318E0,-8.969495773E0,1.346560955E0
1.910188859E2,5.168497086E0,-5.366502762E0,-3.625724554E0
1.915188859E2,1.896311998E0,-6.835097790E0,1.202991605E0
1.920188859E2,3.558725595E0,-4.654638290E0,-2.469393015E0
1.925188859E2,1.630708575E0,-6.728617191E0,-8.434699774E-1
1.930188859E2,1.640279889E0,-1.045484066E1,-1.623530149E0
1.935188859E2,2.622533560E0,-1.158305645E1,-6.664010882E-1
1.940188859E2,5.653641701E0,-1.181695461E1,3.637090325E-1
1.945188859E2,5.949753284E0,-1.269332600E1,-2.165504545E-1
1.950188859E2,8.035098076E0,-1.333280754E1,-1.461416483E0
1.955188859E2,3.692723513E0,-1.291526031E1,-1.639681697E0
1.960188859E2,9.397810936E0,-1.216869926E1,-2.485544443E0
1.965188859E2,4.780859470E0,-1.115533924E1,2.985046208E-1
1.970188859E2,6.792625427E0,-6.787241459E0,-4.767699242E-1
1.975188859E2,3.338585854E0,-4.740779877E0,-3.980460405E0
1.980188859E2,3.606581926E0,-4.913063049E0,-1.420140266E0
1.985188859E2,4.324428558E0,-3.906881094E0,-3.298506021E0
1.990188859E2,2.880958557E0,-8.487939835E0,-8.279166222E-1
1.995188859E2,1.604387641E0,-9.568299294E0,-3.290131092E-1
2.000188859E2,2.742174864E0,-1.076590729E1,-7.962117195E-1
2.005188859E2,6.558128834E0,-1.232483101E1,1.143769264E0
2.010188859E2,3.229114056E0,-1.145982552E1,-3.463610709E-1
2.015188859E2,7.916653633E0,-1.126840019E1,-1.501496196E0
2.020188859E2,1.692323804E0,-1.231466198E1,1.818545163E-1
2.025188859E2,7.753942013E0,-8.769096375E0,1.292124242E-1
2.030188859E2,5.192425251E0,-8.698508263E0,-2.699103832E0
2.035188859E2,4.068994999E0,-1.075813103E1,7.914260626E-1
2.040188859E2,5.854040623E0,-6.893123627E0,-2.522035122E0
2.045188859E2,2.015953064E0,-1.060140038E1,-1.308275819E0
2.050188859E2,3.948157310E0,-4.907081127E0,-2.057827473E0
2.055188859E2,2.341377020E0,-1.022094154E1,-1.286142230E0
2.060188859E2,4.046861172E0,-1.084307575E1,5.060819983E-1
2.065188859E2,2.834298372E0,-1.075693417E1,-1.259821177E0
2.070188859E2,8.454441071E0,-1.117448139E1,2.707478762E0
2.075188859E2,-5.264209956E-2,-1.209033489E1,1.663011760E-1
2.080188859E2,4.997410297E0,-1.235952759E1,4.307080805E-1
2.085188859E2,2.033899307E0,-1.282433319E1,-2.967100143E-1
2.090188859E2,7.381259441E0,-9.638289452E0,-1.084546804E0
2.095188859E2,4.002593994E0,-1.029691410E1,-1.357926875E-1
2.100188859E2,4.887938499E0,-8.457431793E0,-3.481557071E-1
2.105188859E2,4.604987144E0,-5.338985443E0,-3.160320520E0
2.110188859E2,2.775674343E0,-6.600601196E0,9.445667267E-1
2.115188859E2,3.817150354E0,-4.504488468E0,-2.467598438E0
2.120188859E2,2.085345030E0,-7.160521984E0,1.413560033E0
2.125188859E2,2.903690338E0,-7.001399040E0,-1.071984529E0
2.130188859E2,2.822334290E0,-8.338388443E0,-1.118644595E0
2.135188859E2,3.600599766E0,-1.014915752E1,7.956135273E-1
2.140188859E2,4.256233215E0,-9.521639824E0,-5.359922647E-1
2.145188859E2,7.127620220E0,-8.039883614E0,-1.905883193E0
2.150188859E2,7.191628456E0,-1.057029438E1,-5.084748268E-1
2.155188859E2,7.348956585E0,-9.884152412E0,-1.147358418E0
2.160188859E2,5.916254044E0,-1.285304642E1,-7.800601721E-1
2.165188859E2,7.117451191E0,-1.063190937E1,-7.962117195E-1
2.170188859E2,4.920839787E0,-1.103868866E1,-4.612165689E-1
2.175188859E2,6.653841496E0,-9.426525116E0,-2.633301258E0
2.180188859E2,5.618347645E0,-9.675378799E0,-6.586244106E-1
2.185188859E2,6.867401123E0,-9.801001549E0,-1.920838356E0
2.190188859E2,6.234499454E0,-8.852247238E0,-1.654636860E0
2.195188859E2,4.816154003E0,-9.357730865E0,-3.607180119E-1
2.200188859E2,4.466801643E0,-5.218147755E0,-4.067798615E0
2.205188859E2,2.742174864E0,-5.605785370E0,-5.563312769E-2
2.210188859E2,2.581257343E0,-6.399604321E0,-2.431107759E0
2.215188859E2,2.271985054E0,-7.768298626E0,-2.089532375E0
2.220188859E2,4.481158733E0,-7.557730198E0,-2.554338276E-1
2.225188859E2,5.945566177E0,-9.218947411E0,-9.302098155E-1
2.230188859E2,6.741777897E0,-9.907482147E0,-1.606780410E0
2.235188859E2,3.687937975E0,-1.022871876E1,-1.631905079E0
2.240188859E2,8.330014229E0,-9.438488960E0,6.400800496E-2
2.245188859E2,6.742974281E0,-6.448058605E0,-2.373680115E0
2.250188859E2,2.800798893E0,-5.935994625E0,1.545763373E0
2.255188859E2,2.713460922E0,-4.506881237E0,-2.609373093E0
2.260188859E2,2.940180779E0,-7.125825882E0,-2.155334949E0
2.265188859E2,4.411168575E0,-1.027657509E1,1.379462242E0
2.270188859E2,2.204387903E0,-1.084427261E1,-1.471585929E-1
2.275188859E2,7.953742504E0,-1.036929703E1,1.102493048E0
2.280188859E2,2.577668190E0,-1.282253838E1,-4.295116663E-1
2.285188859E2,9.652647018E0,-1.221416283E1,-1.133001566E0
2.290188859E2,5.967699528E0,-6.731608391E0,-1.710868180E-1
2.295188859E2,4.183850288E0,-6.596413612E0,1.414756417E0
2.300188859E2,3.769891977E0,-4.595416069E0,-4.019941807E0
2.305188859E2,3.231507063E0,-5.921039581E0,6.113662124E-1
2.310188859E2,3.946362734E0,-5.698507309E0,-1.929811478E0
2.315188859E2,4.845465720E-1,-1.030469036E1,-4.072584152E0
2.320188859E2,5.285147190E0,-1.149811077E1,-5.886343718E-1
2.325188859E2,5.123631477E0,-1.073719311E1,-1.190429211E0
2.330188859E2,6.926024914E0,-8.373682976E0,-1.848455518E-1
2.335188859E2,4.135993958E0,-1.106919765E1,1.219143152E0
2.340188859E2,8.295317650E0,-9.745368004E0,-1.880758643E0
2.345188859E2,6.452844620E0,-7.478767395E0,-1.167697430E0
2.350188859E2,6.315257072E0,-7.376473904E0,-1.019342422E0
2.355188859E2,5.417350292E0,-5.251049519E0,-3.442075491E0
2.360188859E2,2.727817774E0,-5.964110374E0,-1.758724600E-1
2.365188859E2,3.726222992E0,-4.210171223E0,-3.000599623E0
2.370188859E2,1.527817249E0,-7.420741081E0,-9.248259664E-1
2.375188859E2,3.094517946E0,-7.751548767E0,-1.971685886E0
2.380188859E2,3.129812002E0,-1.126720333E1,4.965106845E-1
2.385188859E2,5.284548759E0,-1.231466198E1,3.297309637E0
2.390188859E2,3.006581545E0,-1.132582760E1,4.277170599E-1
2.395188859E2,8.955737114E0,-1.198923779E1,1.531406522E0
2.400188859E2,4.702494621E0,-1.246959686E1,3.176472187E-1
2.405188859E2,8.565108299E0,-9.858428955E0,-6.029912829E-1
2.410188859E2,6.623332977E0,-7.277172089E0,-2.573480844E0
2.415188859E2,3.255435228E0,-7.859225750E0,1.262213886E-1
2.420188859E2,3.001796007E0,-5.663212776E0,-3.177668571E0
2.425188859E2,1.537986755E0,-5.240281582E0,-8.871390224E-1
2.430188859E2,3.826721668E0,-4.335794449E0,-2.070389748E0
2.435188859E2,1.874776483E0,-8.020741463E0,-1.239482164E0
2.440188859E2,3.461816072E0,-8.574081421E0,-1.459621787E0
2.445188859E2,4.380660057E0,-1.073599720E1,-5.635097623E-1
2.450188859E2,7.377670288E0,-1.238225937E1,1.473978758E0
2.455188859E2,3.126821041E0,-1.306002617E1,-8.195417523E-1
2.460188859E2,8.684749603E0,-1.242951679E1,-2.022533417E0
2.465188859E2,5.450850010E0,-9.936196327E0,1.173679471E0
2.470188859E2,6.445067883E0,-8.599804878E0,-1.405783296E-1
2.475188859E2,3.681955814E0,-5.905486107E0,-4.377070904E0
2.480188859E2,4.332803726E0,-6.287141323E0,4.402793646E-1
2.485188859E2,3.025724173E0,-4.554139614E0,-4.130012035E0
2.490188859E2,3.144168854E0,-7.001399040E0,-1.649851203E0
2.495188859E2,3.927220106E0,-7.132406235E0,-1.062413216E0
2.500188859E2,3.157329559E0,-8.558527946E0,-2.264806747E0
2.505188859E2,5.595615864E0,-9.531210899E0,7.130611539E-1
2.510188859E2,3.348755360E0,-1.036929703E1,-1.033699393E0
2.515188859E2,8.891729355E0,-1.209212875E1,1.513460279E0
2.520188859E2,4.365705013E0,-1.185224915E1,-4.277170599E-1
2.525188859E2,1.025384331E1,-9.634700775E0,2.709871531E-1
2.530188859E2,6.033502102E0,-1.045304585E1,-3.379862010E-1
2.535188859E2,7.859225750E0,-9.311071396E0,-3.372085333E0
2.540188859E2,5.471786976E0,-1.002951622E1,-6.065805554E-1
2.545188859E2,5.150550842E0,-6.116054535E0,1.830509305E-1
2.550188859E2,4.273581028E0,-4.860421181E0,-3.005385160E0
2.555188859E2,3.782454491E0,-5.728417397E0,5.539384484E-1
2.560188859E2,2.562114954E0,-5.186442852E0,-2.202593327E0
2.565188859E2,3.492324591E0,-7.323832035E0,-1.363908887E0
2.570188859E2,3.256033421E0,-7.261020184E0,-3.092723191E-1
2.575188859E2,3.016751051E0,-1.122413254E1,4.307080805E-2
2.580188859E2,6.876972198E0,-1.255454254E1,7.782655358E-1
2.585188859E2,3.014956474E0,-1.213520050E1,-9.942178130E-1
2.590188859E2,8.417949677E0,-1.084068298E1,-2.190030813E0
2.595188859E2,3.658027649E0,-9.898509026E0,-5.862415582E-2
2.600188859E2,6.939185619E0,-7.622336388E0,3.732803464E-1
2.605188859E2,4.927420139E0,-5.401797295E0,-2.937189817E0
2.610188859E2,4.423730850E0,-5.812764645E0,4.516452849E-1
2.615188859E2,3.366103172E0,-5.295914650E0,-3.927220106E0
2.620188859E2,3.071187973E0,-8.742177963E0,-1.019342422E0
2.625188859E2,2.781656265E0,-8.510073662E0,-1.320838094E0
2.630188859E2,3.265604734E0,-1.026221848E1,-1.448255897E0
2.635188859E2,5.819344521E0,-1.537926960E1,1.446461320E0
2.640188859E2,5.238486767E0,-1.222732353E1,1.926820397E0
2.645188859E2,7.761120319E0,-1.130249786E1,-1.697707653E0
2.650188859E2,4.248456478E0,-1.143589783E1,1.144965649E0
2.655188859E2,6.605386734E0,-8.170292854E0,-3.655036688E-1
2.660188859E2,4.920839787E0,-6.281757832E0,-1.666600943E0
2.665188859E2,3.624528170E0,-6.591030121E0,2.050050735E0
2.670188859E2,3.877569199E0,-4.645665169E0,-3.929014683E0
2.675188859E2,2.676970243E0,-8.081758499E0,6.161518097E-1
2.680188859E2,3.235096216E0,-8.410173416E0,-1.370489120E0
2.685188859E2,1.952543259E0,-1.107518005E1,-6.664010882E-1
2.690188859E2,4.420141697E0,-1.153460121E1,-2.075773627E-1
2.695188859E2,2.114058733E0,-1.140120125E1,3.044866920E-1
2.700188859E2,1.912463546E0,-1.538226032E1,1.156331539E0
2.705188859E2,4.698307037E0,-1.225962639E1,2.171486616E-1
2.710188859E2,8.673383713E0,-1.057807064E1,-2.394019127E0
2.715188859E2,5.705685616E0,-1.121934700E1,-2.269592285E0
2.720188859E2,6.281757832E0,-8.993423462E0,-1.734198213E0
2.725188859E2,6.830312252E0,-5.505286694E0,-6.783652306E-1
2.730188859E2,3.614358664E0,-5.954539299E0,1.216750264E0
2.735188859E2,1.210768223E0,-5.796612740E0,-3.906282902E0
2.740188859E2,2.250449657E0,-6.507281303E0,-6.113662124E-1
2.745188859E2,1.686341763E0,-7.204190731E0,-9.505487680E-1
2.750188859E2,1.661815286E0,-7.922037601E0,-1.572682738E0
2.755188859E2,2.978466034E0,-1.028315544E1,6.508477330E-1
2.760188859E2,3.366103172E0,-1.021256733E1,-7.357929647E-2
2.765188859E2,4.075575352E0,-1.273639679E1,7.190431952E-1
2.770188859E2,2.893520832E0,-1.239601803E1,3.242274821E-1
2.775188859E2,6.497709751E0,-1.152562809E1,-6.873382926E-1
2.780188859E2,2.496910334E0,-1.207059383E1,3.397808075E-1
2.785188859E2,7.151548862E0,-9.448657990E0,-1.102493048E0
2.790188859E2,3.482753277E0,-1.224526978E1,-4.534398913E-1
2.795188859E2,7.634898663E0,-9.501300812E0,5.371887088E-1
2.800188859E2,5.712863922E0,-7.505088329E0,2.985046208E-1
2.805188859E2,2.341377020E0,-8.343173981E0,2.042274237E0
2.810188859E2,3.847658873E0,-5.703292847E0,-2.772084951E0
2.815188859E2,1.671984792E0,-7.601399422E0,8.315058798E-2
2.820188859E2,3.579662561E0,-5.824130535E0,-1.118644595E0
2.825188859E2,2.298904419E0,-7.601399422E0,-3.128615618E-1
2.830188859E2,2.584248543E0,-8.176873207E0,-6.616154313E-1
2.835188859E2,2.313261271E0,-9.311071396E0,-7.399803996E-1
2.840188859E2,5.748756409E0,-1.032263660E1,-8.249256015E-1
2.845188859E2,3.588037491E0,-9.520442963E0,-1.405783296E-1
2.850188859E2,5.658427238E0,-1.157767200E1,2.085345030E0
2.855188859E2,1.476969719E0,-1.250309658E1,7.417750359E-1
2.860188859E2,4.281956196E0,-1.200060368E1,-7.046862841E-1
2.865188859E2,3.386442184E0,-9.113064766E0,-2.551945448E0
2.870188859E2,2.283949137E0,-9.394221306E0,7.992027402E-1
2.875188859E2,3.750151396E0,-5.468796253E0,-2.124826431E0
2.880188859E2,1.740778446E0,-5.644070625E0,-2.315055877E-1
2.885188859E2,2.120040894E0,-5.301298618E0,-2.142174482E0
2.890188859E2,2.355733871E0,-7.797610760E0,-2.806182861E0
2.895188859E2,6.186643124E0,-7.374679565E0,-1.011565804E0
2.900188859E2,4.372285366E0,-1.009651470E1,-1.596610904E0
2.905188859E2,7.089335442E0,-1.033400249E1,-5.054838061E-1
2.910188859E2,4.372883320E0,-1.236132145E1,1.531406492E-1
2.915188859E2,7.505686283E0,-1.224766254E1,3.475574851E-1
2.920188859E2,4.602594376E0,-1.198624706E1,-1.146760225E0
2.925188859E2,8.720642090E0,-1.003190899E1,-5.922235847E-1
2.930188859E2,5.284548759E0,-6.577271461E0,-3.443870068E0
2.935188859E2,3.798007727E0,-7.338188648E0,3.409772217E-1
2.940188859E2,3.193221807E0,-5.102694511E0,-3.169891834E0
2.945188859E2,2.375474691E0,-6.793821812E0,-1.716850281E0
2.950188859E2,4.039084435E0,-7.358527660E0,-1.741974831E0
2.955188859E2,2.290529490E0,-9.004789352E0,-2.889333248E0
2.960188859E2,6.098108292E0,-1.008156013E1,5.120640397E-1
2.965188859E2,3.576073408E0,-1.027956581E1,-1.453639716E-1
2.970188859E2,8.424530029E0,-1.211845016E1,-2.237289101E-1
2.975188859E2,3.164507866E0,-1.142632675E1,-1.126421213E0
2.980188859E2,1.005344391E1,-9.667003632E0,-3.378665686E0
2.985188859E2,7.325028419E0,-8.285746574E0,-1.981257200E0
2.990188859E2,6.166902065E0,-6.914061069E0,-1.770688742E-1
2.995188859E2,4.114458561E0,-4.260420799E0,-4.554139614E0
3.000188859E2,3.418147087E0,-5.416153908E0,-4.181457460E-1
3.005188859E2,3.525824070E0,-6.349354744E0,-1.850848317E0
3.010188859E2,2.303689957E0,-8.486743927E0,-1.667199135E0
3.015188859E2,5.012365341E0,-1.001515961E1,5.294120312E-1
3.020188859E2,3.521038532E0,-1.113500023E1,-6.059823632E-1
3.025188859E2,7.754539967E0,-1.240259838E1,-4.049852192E-1
3.030188859E2,2.833101988E0,-1.243968678E1,-3.619144261E-1
3.035188859E2,9.081359863E0,-1.149512005E1,-2.445464849E0
3.040188859E2,5.784648895E0,-1.209452248E1,-1.944168359E-1
3.045188859E2,6.680760860E0,-9.340383530E0,-1.483550072E-1
3.050188859E2,7.146164894E0,-5.849853039E0,-2.472982168E0
3.055188859E2,4.656432629E0,-7.737192154E0,1.310070455E-1
3.060188859E2,7.131807804E0,-4.159922123E0,-4.428516388E0
3.065188859E2,4.003790379E0,-6.463612080E0,7.812566161E-1
3.070188859E2,4.222135544E0,-5.077569485E0,-2.542972326E0
3.075188859E2,3.832105398E0,-6.631708145E0,-3.954139352E-1
3.080188859E2,3.610171080E0,-5.304289818E0,-1.126421213E0
3.085188859E2,2.598605394E0,-7.848458290E0,-1.432104349E0
3.090188859E2,4.686343193E0,-8.502895355E0,9.320043921E-1
3.095188859E2,4.135993958E0,-9.636494637E0,-1.189831018E0
3.100188859E2,7.395018578E0,-9.517452240E0,3.367897868E-1
3.105188859E2,4.283152580E0,-1.207777214E1,2.344966233E-1
3.110188859E2,9.180064201E0,-9.834501266E0,-9.092725813E-2
3.115188859E2,5.064409256E0,-7.623532772E0,-3.296113253E0
3.120188859E2,4.537988186E0,-6.687341213E0,1.393819213E0
3.125188859E2,3.948157310E0,-3.558725595E0,-3.163311481E0
3.130188859E2,2.681157827E0,-5.450850010E0,-1.758724600E-1
3.135188859E2,4.064807415E0,-4.678566456E0,-2.632104874E0
3.140188859E2,2.681756020E0,-7.535596848E0,-1.186840057E0
3.145188859E2,3.086741209E0,-8.246863365E0,1.292124242E-1
3.150188859E2,3.096312523E0,-9.859625816E0,3.559323549E-1
3.155188859E2,5.295914650E0,-1.105783176E1,7.549355626E-1
3.160188859E2,3.553939819E0,-9.497711182E0,6.281159520E-1
3.165188859E2,8.518448830E0,-1.130728340E1,1.223928809E0
3.170188859E2,2.480758905E0,-1.213759327E1,3.577269912E-1
3.175188859E2,1.014078236E1,-1.116610718E1,-1.459621787E0
3.180188859E2,4.549952030E0,-1.195274734E1,5.120640397E-1
3.185188859E2,6.988836765E0,-9.842875481E0,7.304090858E-1
3.190188859E2,5.875576019E0,-4.852644444E0,-3.394817114E0
3.195188859E2,2.887538671E0,-6.593422890E0,7.645068169E-1
3.200188859E2,3.936791420E0,-5.201996326E0,-1.603191137E0
3.205188859E2,3.233301640E0,-7.043273449E0,-1.807777524E0
3.210188859E2,3.616153240E0,-5.940182209E0,-2.863012314E0
3.215188859E2,2.977867842E0,-8.991030693E0,-2.391626120E0
3.220188859E2,7.184450150E0,-9.023932457E0,1.027717352E0
3.225188859E2,3.717249870E0,-1.068455124E1,-1.304088384E-1
3.230188859E2,8.595019341E0,-1.103210926E1,1.204786181E0
3.235188859E2,3.369094372E0,-1.257368469E1,2.213360928E-2
3.240188859E2,1.007856941E1,-1.071506023E1,-7.716853023E-1
3.245188859E2,5.796612740E0,-1.237268734E1,-7.980063558E-1
3.250188859E2,1.050628567E1,-8.660223007E0,-4.336991012E-1
3.255188859E2,9.028717995E0,-7.068397999E0,-1.944168359E-1
3.260188859E2,8.124231339E0,-7.234101295E0,1.566700578E0
3.265188859E2,5.661418438E0,-5.656632900E0,-6.304489613E0
3.270188859E2,4.475774765E0,-8.236095428E0,-1.659422517E0
3.275188859E2,9.427721024E0,-7.313662529E0,-2.734398127E0
3.280188859E2,6.613761902E0,-9.426525116E0,-2.650051117E-1
3.285188859E2,5.178068161E0,-1.098963642E1,-4.001995921E-1
3.290188859E2,6.765706062E0,-1.052662468E1,-3.846462369E-1
3.295188859E2,4.916054249E0,-8.883354187E0,-7.310073376E-1
3.300188859E2,1.143171024E1,-9.625727654E0,-1.588834286E0
3.305188859E2,9.995418549E0,-7.902296543E0,6.113662124E-1
3.310188859E2,1.705484390E0,-7.634300709E0,1.256231815E-1
3.315188859E2,4.024727821E0,-5.232504845E0,-2.858824968E0
3.320188859E2,2.772683144E0,-6.310471535E0,-2.295315027E0
3.325188859E2,3.516252756E0,-6.762116909E0,-1.610967875E0
3.330188859E2,1.808973908E0,-8.273183823E0,-2.252244234E0
3.335188859E2,2.167897224E0,-8.657232285E0,-1.292124242E-1
3.340188859E2,2.258824587E0,-8.248658180E0,-9.218349457E-1
3.345188859E2,3.262015581E0,-7.476374149E0,-7.034898400E-1
3.350188859E2,2.806182861E0,-8.038089752E0,7.914260626E-1
3.355188859E2,3.932604074E0,-9.062217712E0,-9.762716293E-1
3.360188859E2,4.251447678E0,-1.018684387E1,-1.708475351E0
3.365188859E2,6.949953556E0,-8.304888725E0,-4.654040039E-1
3.370188859E2,5.886343479E0,-1.131924725E1,-1.298704505E0
3.375188859E2,4.124029636E0,-9.118449211E0,-5.790630579E-1
3.380188859E2,4.256233215E0,-8.823533058E0,-3.541377485E-1
3.385188859E2,5.630909920E0,-8.349754333E0,-6.813562512E-1
3.390188859E2,3.580859184E0,-8.435895920E0,1.591227055E-1
3.395188859E2,5.789434433E0,-8.186444283E0,1.420140266E0
3.400188859E2,4.313062668E0,-8.744570732E0,-1.345962763E0
3.405188859E2,5.100301266E0,-8.275577545E0,-3.649054468E-2
3.410188859E2,4.368097782E0,-8.605786324E0,9.571290575E-3
3.415188859E2,4.949553490E0,-8.559724808E0,2.991028316E-2
3.420188859E2,5.141577721E0,-8.450253487E0,1.292124242E-1
3.425188859E2,4.805984497E0,-8.490931511E0,-3.170489892E-2
3.430188859E2,5.280361176E0,-8.285148621E0,3.361915946E-1
3.435188859E2,4.949553490E0,-8.381459236E0,2.165504545E-1
3.440188859E2,4.946562767E0,-8.407182693E0,1.447657645E-1
3.445188859E2,5.190630436E0,-8.311469078E0,1.561316848E-1
3.450188859E2,5.118845940E0,-8.301300049E0,1.226321608E-1
3.455188859E2,5.112864017E0,-8.392227173E0,3.589233849E-3
3.460188859E2,5.210371494E0,-8.528019905E0,-2.901297510E-1
3.465188859E2,5.661418438E0,-8.022536278E0,2.841476798E-1
3.470188859E2,4.749154568E0,-8.455039024E0,-6.221338734E-2
3.475188859E2,5.152943611E0,-8.271389961E0,3.637090325E-1
3.480188859E2,5.283352375E0,-8.316255569E0,1.782652885E-1
3.485188859E2,5.145765305E0,-8.353941917E0,2.249253243E-1
3.490188859E2,5.310271740E0,-8.215158463E0,3.074777126E-1
3.495188859E2,4.676771641E0,-8.502895355E0,-2.458625287E-1
3.500188859E2,5.195415974E0,-8.373085022E0,6.699903309E-2
3.505188859E2,4.768297195E0,-8.473583221E0,3.768695593E-1
3.510188859E2,4.948357105E0,-8.448458672E0,2.440679073E-1
3.515188859E2,5.030909538E0,-8.427521706E0,1.166501045E-1
3.520188859E2,4.783850670E0,-8.553144455E0,1.645065546E-1
3.525188859E2,5.222933769E0,-8.124231339E0,3.672982752E-1
3.530188859E2,4.289134502E0,-8.635098457E0,1.022931710E-1
3.535188859E2,4.418945312E0,-8.737391472E0,2.871387303E-1
3.540188859E2,4.281357765E0,-8.765507698E0,5.635097623E-1
3.545188859E2,4.082155228E0,-8.928817749E0,4.384847581E-1
3.550188859E2,4.247858524E0,-8.788239479E0,3.409772217E-1
3.555188859E2,3.978067636E0,-8.758927345E0,5.467599630E-1
3.560188859E2,4.268795490E0,-8.770891190E0,4.977070987E-1
3.565188859E2,4.318446636E0,-8.799007416E0,7.292127013E-1
3.570188859E2,4.229313850E0,-8.832506180E0,6.969096065E-1
3.575188859E2,4.463212490E0,-8.699107170E0,7.782655358E-1
3.580188859E2,4.324428558E0,-8.746364594E0,8.949156404E-1
3.585188859E2,4.346562386E0,-8.698508263E0,8.566305041E-1
3.590188859E2,4.442873478E0,-8.738588333E0,9.284151793E-1
3.595188859E2,4.382454872E0,-8.682954788E0,9.026923180E-1
3.600188859E2,4.385445595E0,-8.724231720E0,1.001396298E0
3.605188859E2,4.378865242E0,-8.700303078E0,1.112064362E0
3.610188859E2,4.380660057E0,-8.672785759E0,1.095912814E0
3.615188859E2,4.317848682E0,-8.761320114E0,1.040279627E0
3.620188859E2,4.431507587E0,-8.654241562E0,1.051645517E0
3.625188859E2,4.453640938E0,-8.605786324E0,1.137787223E0
3.630188859E2,4.554738045E0,-8.583653450E0,1.200000525E0
3.635188859E2,4.482355118E0,-8.626724243E0,1.268195987E0
3.640188859E2,4.506283283E0,-8.586644173E0,1.044467092E0
3.645188859E2,4.586442947E0,-8.555537224E0,1.188634634E0
3.650188859E2,4.664209366E0,-8.511868477E0,1.060618639E0
3.655188859E2,4.642076015E0,-8.577671051E0,1.169492126E0
3.660188859E2,4.702494621E0,-8.529814720E0,1.243071318E0
3.665188859E2,4.750949383E0,-8.467600822E0,1.298704505E0
3.670188859E2,4.717449665E0,-8.487939835E0,1.362114310E0
3.675188859E2,4.681557655E0,-8.488538742E0,1.356132269E0
3.680188859E2,4.646861553E0,-8.518448830E0,1.369890928E0
3.685188859E2,5.038087845E0,-7.987242222E0,1.524826288E0
3.690188859E2,3.530011654E0,-7.302894592E0,-1.042074203E0
3.695188859E2,6.287141442E-1,-8.200801849E0,-1.447059512E0
3.700188859E2,4.075575352E0,-1.022871876E1,3.714857101E-1
3.705188859E2,5.184648514E0,-1.189352512E1,-5.790630579E-1
3.710188859E2,9.651450157E0,-1.244626713E1,-1.400399446E0
3.715188859E2,5.688337803E0,-8.822935104E0,-5.802595019E-1
3.720188859E2,3.317648649E0,-7.473383427E0,1.397408366E0
3.725188859E2,3.640679598E0,-5.321637630E0,-3.935595036E0
3.730188859E2,2.815155745E0,-8.319246292E0,1.722832322E-1
3.735188859E2,3.941577196E0,-5.632704735E0,-2.176272154E0
3.740188859E2,1.652842283E0,-8.985647202E0,-1.189831018E0
3.745188859E2,3.329612732E0,-1.086042404E1,6.424728632E-1
3.750188859E2,5.507081509E0,-1.059362411E1,-1.435693540E-2
3.755188859E2,6.995417118E0,-1.233559895E1,1.620539188E0
3.760188859E2,2.723032236E0,-1.092682457E1,7.334001660E-1
3.765188859E2,8.868997574E0,-1.164347458E1,-6.652047038E-1
3.770188859E2,6.433701992E0,-9.647860527E0,7.764709592E-1
3.775188859E2,7.124629498E0,-7.870592117E0,1.082752272E-1
3.780188859E2,5.562714577E0,-8.423932076E0,-1.534995675E0
3.785188859E2,4.774877548E0,-9.282357216E0,1.188634634E0
3.790188859E2,7.339385033E0,-7.804191113E0,-1.335195065E0
3.795188859E2,6.733402729E0,-8.099106789E0,-1.084546804E0
3.800188859E2,5.521438122E0,-6.089135647E0,-2.981456995E0
3.805188859E2,4.328018188E0,-7.625327587E0,4.438686073E-1
3.810188859E2,8.411369324E0,-6.789634228E0,3.469592705E-2
3.815188859E2,3.050848842E-2,-1.006062317E1,-1.563111424E0
3.820188859E2,7.590033531E0,-1.582612896E1,-6.011967063E-1
3.825188859E2,1.249352551E1,-1.592363644E1,2.091326952E0
3.830188859E2,9.652647018E0,-1.957328916E0,3.224328518E0
3.835188859E2,5.760122299E0,-7.296314240E0,-2.422732860E-1
3.840188859E2,1.782652885E-1,-7.210771084E0,-3.339184046E0
3.845188859E2,2.513660192E0,-5.420341492E0,-4.103690982E-1
3.850188859E2,2.673979282E0,-8.937790871E0,-8.919246197E-1
3.855188859E2,9.862018585E0,-1.184746265E1,1.561316729E0
3.860188859E2,6.148357868E0,-9.037093163E0,-2.605185747E0
3.865188859E2,4.331008911E0,-8.242675781E0,2.131406784E0
3.870188859E2,4.576273441E0,-3.929014683E0,-2.279761791E0
3.875188859E2,1.841277003E0,-8.752944946E0,-1.716850281E0
3.880188859E2,6.572485447E0,-1.190967655E1,1.680957913E0
3.885188859E2,4.887938499E0,-1.313181114E1,2.103889227E0
3.890188859E2,3.919443607E0,-5.734997749E0,1.461416483E0
3.895188859E2,4.287938118E0,-3.926023722E0,-2.953939438E0
3.900188859E2,2.191825628E0,-9.186644554E0,-1.992024779E-1
3.905188859E2,4.921437740E0,-9.602995872E0,4.241278172E-1
3.910188859E2,3.208176851E0,-1.024307537E1,1.118644595E0
3.915188859E2,5.286941528E0,-9.314660072E0,9.200403094E-1
3.920188859E2,1.487139225E0,-1.000379372E1,-4.863412082E-1
3.925188859E2,5.194219589E0,-8.237292290E0,-1.381256819E0
3.930188859E2,2.347957134E0,-9.250652313E0,2.614158690E-1
3.935188859E2,3.156731367E0,-8.826524734E0,-8.650053740E-1
3.940188859E2,2.399402857E0,-8.765507698E0,1.399203062E0
3.945188859E2,5.182853699E0,-6.321837425E0,4.606183618E-2
3.950188859E2,2.743969440E0,-1.126421261E1,1.495514214E-1
3.955188859E2,6.076572895E0,-1.061157036E1,-1.113260746E0
3.960188859E2,2.427518606E0,-1.098903847E1,-1.914258152E-1
3.965188859E2,9.215357780E0,-1.248395348E1,-1.167697430E0
3.970188859E2,5.074578762E0,-1.100997543E1,6.568298340E-1
3.975188859E2,7.350750923E0,-1.135932732E1,-4.055834413E-1
3.980188859E2,5.125426292E0,-6.358327866E0,-3.262613773E0
3.985188859E2,4.198805332E0,-6.364908218E0,1.619342685E0
3.990188859E2,3.144168854E0,-5.062016487E0,-4.823930264E0
3.995188859E2,7.292127013E-1,-8.344968796E0,-4.558327198E-1
4.000188859E2,2.121835470E0,-7.782655716E0,-1.607976794E0
4.005188859E2,1.764706731E0,-1.061336517E1,-1.464407444E0
4.010188859E2,5.236692429E0,-1.263589859E1,4.420739710E-1
4.015188859E2,2.720041037E0,-1.086161995E1,6.969096065E-1
4.020188859E2,7.389036179E0,-1.399681568E1,1.165902853E0
4.025188859E2,3.753142357E0,-1.473320675E1,-7.148557901E-1
4.030188859E2,1.043629551E1,-1.097169018E1,-1.356132269E0
4.035188859E2,7.529016495E0,-1.048654556E1,-2.395813704E0
4.040188859E2,1.886740685E0,-8.206185341E0,4.127619043E-2
4.045188859E2,3.129812002E0,-3.624528170E0,-5.620141983E0
4.050188859E2,1.808973908E0,-5.809773445E0,-1.269990563E0
4.055188859E2,2.431107759E0,-6.418746948E0,-2.182254314E0
4.060188859E2,3.906881094E0,-8.459226608E0,-2.699103832E0
4.065188859E2,5.081159115E0,-1.191506004E1,3.336791277E0
4.070188859E2,2.537588358E0,-1.172842026E1,-3.846462369E-1
4.075188859E2,1.127797127E1,-1.011027431E1,-1.408176184E0
4.080188859E2,5.531009674E0,-9.214161873E0,-2.787638307E-1
4.085188859E2,6.487540245E0,-6.708278179E0,1.274776220E0
4.090188859E2,3.554538012E0,-4.723432064E0,-3.537788391E0
4.095188859E2,1.597209096E0,-6.132206440E0,2.117647976E-1
4.100188859E2,1.893919110E0,-4.846662045E0,-1.128215909E0
4.105188859E2,9.062815905E-1,-6.634100914E0,-1.810170293E0
4.110188859E2,3.788436413E0,-9.000003815E0,-1.381256819E0
4.115188859E2,2.379662037E0,-1.182712460E1,-7.262216806E-1
4.120188859E2,2.032702923E0,-1.448255920E1,1.476969719E0
4.125188859E2,3.443870068E0,-1.024008465E1,-1.164108157E0
4.130188859E2,4.956133842E0,-6.380461693E0,-2.883351147E-1
4.135188859E2,3.172882795E0,-4.030709743E0,-2.886940479E0
4.140188859E2,2.210968018E0,-6.420541286E0,8.626125455E-1
4.145188859E2,1.430907965E0,-7.631309509E0,-1.015753269E0
4.150188859E2,2.109273195E0,-9.697511673E0,-3.946362734E0
4.155188859E2,4.267599106E0,-1.035912704E1,-1.643270969E0
4.160188859E2,3.978665829E0,-1.120499039E1,-1.165902853E0
4.165188859E2,6.966702938E0,-1.192941761E1,-1.092921734E0
4.170188859E2,3.467798233E0,-1.340818214E1,5.706881881E-1
4.175188859E2,9.194420815E0,-1.238644600E1,-1.837687731E0
4.180188859E2,6.360122681E0,-1.361635685E1,-5.264209956E-2
4.185188859E2,1.071805096E1,-7.701299667E0,-2.054836512E0
4.190188859E2,5.231906891E0,-8.155936241E0,-8.697910309E-1
4.195188859E2,3.876372576E0,-8.112865448E0,1.853839397E0
4.200188859E2,4.460221291E0,-5.505286694E0,-6.047261238E0
4.205188859E2,2.836092949E0,-6.430710793E0,3.062812984E-1
4.210188859E2,3.608376503E0,-5.571687698E0,-4.120440483E0
4.215188859E2,2.359323025E0,-8.099106789E0,-2.374876499E0
4.220188859E2,4.005585194E0,-8.237890244E0,-6.113662124E-1
4.225188859E2,3.181257725E0,-8.968298912E0,-1.068993568E0
4.230188859E2,4.056432724E0,-1.092383385E1,1.133001566E0
4.235188859E2,4.913661480E0,-1.299900913E1,5.324030519E-1
4.240188859E2,6.933203697E0,-1.156989574E1,1.126421213E0
4.245188859E2,5.058426857E0,-1.129292679E1,-6.634100676E-1
4.250188859E2,8.580661774E0,-1.160519028E1,-9.780662656E-1
4.255188859E2,5.785845280E0,-7.280162811E0,-2.585444927E0
4.260188859E2,6.793821812E0,-8.185248375E0,-7.196413875E-1
4.265188859E2,4.200001717E0,-5.076373100E0,-2.539981127E0
4.270188859E2,2.331805706E0,-6.914061069E0,1.178465128E0
4.275188859E2,3.279961586E0,-6.200401783E0,-3.098107100E0
4.280188859E2,2.707478762E0,-5.894718647E0,-2.767897606E0
4.285188859E2,4.541577339E0,-6.808178425E0,-1.102493048E0
4.290188859E2,5.297709465E0,-7.064808846E0,-2.057827413E-1
4.295188859E2,5.807978630E0,-6.399604321E0,-2.727817893E-1
4.300188859E2,6.813562393E0,-1.041835022E1,-1.357926875E-1
4.305188859E2,1.090648556E1,-1.030169964E1,1.243071318E0
4.310188859E2,7.768298626E0,-1.189053345E1,2.102094650E0
4.315188859E2,5.467001438E0,-1.156570816E1,7.477570772E-1
4.320188859E2,2.231307030E0,-4.648656368E0,-4.158725739E0
4.325188859E2,2.309672117E0,-6.052046776E0,1.858026743E0
4.330188859E2,3.202793121E0,-4.339384079E0,-3.882354736E0
4.335188859E2,2.370688915E0,-6.368497372E0,-3.367897868E-1
4.340188859E2,2.231307179E-1,-7.570890903E0,-3.241676569E0
4.345188859E2,3.625126183E-1,-1.019701385E1,1.377069473E0
4.350188859E2,4.192225456E0,-8.715856552E0,1.597209126E-1
4.355188859E2,3.228515863E0,-1.117807102E1,6.891329288E-1
4.360188859E2,8.632107735E0,-1.260419369E1,-1.738385677E0
4.365188859E2,4.109673023E0,-1.312104321E1,1.969891191E0
4.370188859E2,6.186643124E0,-8.982656479E0,-7.160521746E-1
4.375188859E2,5.061418056E0,-5.781059742E0,-4.275375843E0
4.380188859E2,2.593819857E0,-6.792625427E0,9.032905698E-1
4.385188859E2,3.038884640E0,-6.478567123E0,-2.389831543E0
4.390188859E2,1.370489120E0,-9.026923180E0,-2.217548370E0
4.395188859E2,2.187039852E0,-1.005643559E1,-1.115055323E0
4.400188859E2,3.420539856E0,-1.044048309E1,-8.644071817E-1
4.405188859E2,7.402196884E0,-1.280160141E1,-1.166501045E-1
4.410188859E2,1.948953986E0,-1.269332600E1,-1.896311939E-1
4.415188859E2,7.258029461E0,-1.077906799E1,-2.681756020E0
4.420188859E2,7.092326164E0,-9.478569031E0,7.094719410E-1
4.425188859E2,6.505486488E0,-7.707880020E0,-1.968096614E0
4.430188859E2,5.935396671E0,-5.835496426E0,-3.659224033E0
4.435188859E2,3.001796007E0,-6.492924213E0,-7.298108935E-2
4.440188859E2,4.436293125E0,-4.965705395E0,-3.970290899E0
4.445188859E2,2.539382935E0,-6.438487530E0,5.778666735E-1
4.450188859E2,3.166302681E0,-4.340580463E0,-1.233500123E0
4.455188859E2,2.030908108E0,-7.858029366E0,-3.263810158E0
4.460188859E2,1.793420553E0,-9.792626381E0,-6.364908218E-1
4.465188859E2,3.645465374E0,-9.861420631E0,-1.049850941E0
4.470188859E2,7.128817081E0,-1.260838032E1,1.362712502E0
4.475188859E2,1.998605132E0,-1.174098206E1,1.453639746E0
4.480188859E2,9.480362892E0,-9.729216576E0,6.095715761E-1
4.485188859E2,4.905286312E0,-1.135155106E1,-4.803591371E-1
4.490188859E2,7.633104324E0,-8.510671616E0,-8.297112584E-1
4.495188859E2,6.837490559E0,-6.170491219E0,-1.188036442E0
4.500188859E2,3.128615618E0,-8.090731621E0,7.980063558E-1
4.505188859E2,4.217947960E0,-4.884947300E0,-4.407579422E0
4.510188859E2,5.994020700E-1,-8.435895920E0,-1.741974831E0
4.515188859E2,2.087737799E0,-8.626724243E0,-1.593619823E0
4.520188859E2,2.714657307E0,-1.020658493E1,-3.324826956E0
4.525188859E2,6.286543369E0,-1.192582798E1,-2.793620527E-1
4.530188859E2,2.453839540E0,-1.163510036E1,-8.787640929E-1
4.535188859E2,8.194819450E0,-1.005105114E1,-9.924231768E-1
4.540188859E2,3.579662561E0,-1.156570816E1,-7.668996453E-1
4.545188859E2,6.913462639E0,-9.446864128E0,-2.298904419E0
4.550188859E2,5.940182209E0,-8.096115112E0,-3.787240028E0
4.555188859E2,2.884547710E0,-8.054241180E0,4.582255483E-1
4.560188859E2,3.072384357E0,-5.182853699E0,-2.874378204E0
4.565188859E2,2.324627161E0,-6.351747513E0,3.792623878E-1
4.570188859E2,1.585245013E0,-8.088936806E0,-1.177268744E0
4.575188859E2,2.743969440E0,-1.120140076E1,-2.121237278E0
4.580188859E2,4.243670940E0,-1.234517002E1,2.799602509E0
4.585188859E2,4.286143780E0,-1.158006477E1,2.859423161E-1
4.590188859E2,9.617950439E0,-1.229551888E1,-7.752745152E-1
4.595188859E2,5.452644825E0,-1.168475151E1,2.392822690E-2
4.600188859E2,5.846263885E0,-7.306483746E0,-9.044869542E-1
4.605188859E2,5.450850010E0,-5.200201988E0,-4.876572609E0
4.610188859E2,2.879163742E0,-6.607779503E0,6.969096065E-1
4.615188859E2,3.594019651E0,-5.261219025E0,-2.667398930E0
4.620188859E2,7.178468108E-1,-9.201001167E0,-1.847259045E0
4.625188859E2,3.287738323E0,-9.698708534E0,5.539384484E-1
4.630188859E2,1.902892232E0,-1.012283611E1,-1.673181176E0
4.635188859E2,7.016952515E0,-1.164227867E1,5.300102234E-1
4.640188859E2,3.389433384E0,-1.171525955E1,-6.999006122E-2
4.645188859E2,8.462217331E0,-1.105663490E1,-2.251047850E0
4.650188859E2,4.458426952E0,-9.869196892E0,-1.403390527E0
4.655188859E2,9.523434043E-1,-8.944371223E0,2.377269268E0
4.660188859E2,2.790031195E0,-4.889134884E0,-3.078366280E0
4.665188859E2,1.972882271E0,-5.362913609E0,-1.082752272E-1
4.670188859E2,3.121437073E0,-6.500700951E0,-1.801197290E0
4.675188859E2,1.680957913E0,-8.885149002E0,-1.528415442E0
4.680188859E2,5.918646812E0,-1.203470135E1,1.041476011E0
4.685188859E2,2.635694027E0,-1.133898830E1,3.505485058E-1
4.690188859E2,7.307680130E0,-1.346022511E1,4.342973232E-1
4.695188859E2,3.525225878E0,-1.400578880E1,1.574477315E0
4.700188859E2,6.595815659E0,-9.445667267E0,5.982056726E-3
4.705188859E2,5.264209747E0,-7.089335442E0,-3.286541939E0
4.710188859E2,4.680361271E0,-6.610172749E0,1.748555183E0
4.715188859E2,4.372883320E0,-4.884947300E0,-2.914458036E0
4.720188859E2,1.782054663E0,-7.033702374E0,2.333002090E-1
4.725188859E2,2.254039049E0,-6.490531445E0,-2.514258385E0
4.730188859E2,2.798406124E0,-1.009771156E1,-2.558525562E0
4.735188859E2,4.048655987E0,-1.058704376E1,3.553341627E-1
4.740188859E2,2.970689297E0,-1.048714352E1,-4.277170599E-1
4.745188859E2,7.886743546E0,-1.209332561E1,1.296909928E0
4.750188859E2,3.180659533E0,-1.193719387E1,3.314059377E-1
4.755188859E2,9.464810371E0,-9.671789169E0,-1.555334687E0
4.760188859E2,4.429712772E0,-1.104826069E1,5.324030519E-1
4.765188859E2,4.716851711E0,-7.755736351E0,5.539384484E-1
4.770188859E2,4.500301361E0,-4.591228485E0,-3.784249067E0
4.775188859E2,2.624328136E0,-7.342376232E0,-2.021935135E-1
4.780188859E2,3.719642878E0,-5.727221012E0,-2.484946251E0
4.785188859E2,2.709871531E0,-9.896714211E0,-1.577468276E0
4.790188859E2,3.256033421E0,-9.572486877E0,-8.650053740E-1
4.795188859E2,3.769891977E0,-9.893125534E0,-1.515853167E0
4.800188859E2,9.453444481E0,-1.317488194E1,-1.164706469E0
4.805188859E2,3.903890133E0,-1.185404301E1,1.896311998E0
4.810188859E2,8.719446182E0,-1.133121204E1,1.177268744E0
4.815188859E2,6.993024349E0,-1.022393322E1,1.218544960E0
4.820188859E2,5.415555954E0,-8.813364029E0,2.710469961E0
4.825188859E2,5.644070625E0,-4.834698200E0,-1.209571838E0
4.830188859E2,2.554338217E0,-5.431707382E0,-1.030708313E0
4.835188859E2,3.192025423E0,-5.997610092E0,-1.303490162E0
4.840188859E2,3.399602890E0,-5.542973518E0,-1.197607756E0
4.845188859E2,2.700898647E0,-7.389036179E0,-7.178468108E-1
4.850188859E2,2.444268227E0,-9.029315948E0,-2.879163742E0
4.855188859E2,4.825725079E0,-1.005344391E1,-4.486542568E-2
4.860188859E2,2.933600664E0,-1.118883896E1,-1.956132531E0
4.865188859E2,8.227720261E0,-1.094477081E1,-2.015953064E0
4.870188859E2,3.292523861E0,-1.415713501E1,-2.121237278E0
4.875188859E2,9.105886459E0,-1.101296616E1,-3.892524242E0
4.880188859E2,4.552943230E0,-1.134556866E1,-1.902294010E-1
4.885188859E2,4.820939541E0,-8.739784241E0,-1.584048629E0
4.890188859E2,3.911666870E0,-4.461417675E0,-3.914657831E0
4.895188859E2,4.268795490E0,-5.227719307E0,1.606780410E0
4.900188859E2,4.386641979E0,-5.242076397E0,-3.489931822E0
4.905188859E2,2.316252232E0,-5.620141983E0,-2.112264156E0
4.910188859E2,1.740778446E0,-5.693721294E0,-1.420140266E0
4.915188859E2,2.766103029E0,-9.426525116E0,-3.141177893E0
4.920188859E2,4.969294548E0,-1.068036366E1,9.810572863E-1
4.925188859E2,2.218744755E0,-1.177268696E1,-1.036690354E0
4.930188859E2,8.684151649E0,-1.206341553E1,-6.807580590E-1
4.935188859E2,4.128217220E0,-1.136710358E1,2.871387303E-1
4.940188859E2,6.224927902E0,-8.873783112E0,1.702493310E0
4.945188859E2,6.166902065E0,-5.253442287E0,-3.329612732E0
4.950188859E2,5.353342533E0,-5.100301266E0,9.032905698E-1
4.955188859E2,3.942175388E0,-4.678566456E0,-3.738785267E0
4.960188859E2,3.329014540E0,-6.744170666E0,-2.193022013E0
4.965188859E2,3.287738323E0,-8.194221497E0,-2.261217386E-1
4.970188859E2,2.662613392E0,-9.526425362E0,-1.907677889E0
4.975188859E2,4.366302967E0,-1.041176987E1,5.090730190E-1
4.980188859E2,4.747360229E0,-1.126181984E1,-2.602194548E-1
4.985188859E2,8.904291153E0,-1.222911835E1,-4.767699242E-1
4.990188859E2,6.025127411E0,-1.263589859E1,5.108676553E-1
4.995188859E2,1.187019539E1,-1.322094345E1,-1.885544300E0
5.000188859E2,6.907480717E0,-1.345603848E1,-4.677968323E-1
5.005188859E2,9.613164902E0,-9.757930756E0,7.178468257E-2
5.010188859E2,7.500302792E0,-5.129015446E0,-1.125823021E0
5.015188859E2,5.334199905E0,-5.094917774E0,9.475577474E-1
5.020188859E2,5.112265587E0,-4.141377926E0,-3.885943890E0
5.025188859E2,4.466203690E0,-7.808976650E0,-4.803591371E-1
5.030188859E2,4.570291042E0,-7.737192154E0,-4.911268353E-1
5.035188859E2,3.016751051E0,-9.960124016E0,-2.257030010E0
5.040188859E2,8.334799767E0,-1.275494099E1,2.605185747E0
5.045188859E2,3.461217880E0,-1.223569870E1,-4.223332107E-1
5.050188859E2,1.102732277E1,-1.064686394E1,2.809173822E0
5.055188859E2,4.820939541E0,-1.199402332E1,1.907677889E0
5.060188859E2,9.549157143E0,-1.081376362E1,-2.013560295E0
5.065188859E2,9.574879646E0,-8.636295319E0,2.053041935E0
5.070188859E2,4.984847546E0,-7.454240799E0,7.483552694E-1
5.075188859E2,5.557928562E0,-4.709074974E0,-3.576671600E0
5.080188859E2,4.230510235E0,-6.972685337E0,2.048256159E0
5.085188859E2,4.740779877E0,-4.456632137E0,-2.703889608E0
5.090188859E2,2.029113531E0,-8.328817368E0,-3.242274821E-1
5.095188859E2,3.303291559E0,-7.732406139E0,-6.059823632E-1
5.100188859E2,3.650250912E0,-1.051286602E1,-1.769492388E0
5.105188859E2,6.262615204E0,-1.003549862E1,1.410568953E0
5.110188859E2,5.184050083E0,-1.050927734E1,-5.120640397E-1
5.115188859E2,9.726225853E0,-1.198923779E1,3.402593851E0
5.120188859E2,3.327818155E0,-1.195573807E1,5.012963414E-1
5.125188859E2,1.068754196E1,-9.654440880E0,-1.410568953E0
5.130188859E2,4.541577339E0,-1.147478104E1,1.204187989E0
5.135188859E2,9.587442398E0,-8.009973526E0,-1.231107235E0
5.140188859E2,6.484549522E0,-9.146564484E0,-1.278963685E0
5.145188859E2,6.958328247E0,-9.217152596E0,-3.481557071E-1
5.150188859E2,8.497511864E0,-7.864609718E0,-1.536192179E0
5.155188859E2,6.110072613E0,-9.163313866E0,2.379662037E0
5.160188859E2,5.921638012E0,-5.160720348E0,-3.517449379E0
5.165188859E2,5.516652584E0,-8.829515457E0,1.521835208E0
5.170188859E2,4.812564373E0,-5.062016487E0,-3.228515863E0
5.175188859E2,4.257429600E0,-9.266803741E0,-6.999006271E-1
5.180188859E2,5.155336380E0,-1.038485050E1,8.596215248E-1
5.185188859E2,4.310071945E0,-1.011206818E1,-1.085145116E0
5.190188859E2,5.855835438E0,-1.341894913E1,3.720241070E0
5.195188859E2,3.329612732E0,-1.160219860E1,6.616154313E-1
5.200188859E2,1.146820068E1,-9.571290970E0,6.305087805E-1
5.205188859E2,4.232305050E0,-1.137368393E1,2.347957134E0
5.210188859E2,1.262812138E1,-7.634898663E0,1.216750264E0
5.215188859E2,1.195095253E1,-8.912068367E0,1.269392371E0
5.220188859E2,1.056550884E1,-8.589036942E0,2.227119684E0
5.225188859E2,1.198205948E1,-6.521637917E0,7.716853023E-1
5.230188859E2,6.811768055E0,-6.860820770E0,2.608176708E0
5.235188859E2,6.280561447E0,-3.292523861E0,-4.758127689E0
5.240188859E2,3.115455151E0,-7.515257835E0,-8.967102766E-1
5.245188859E2,3.829712629E0,-8.275577545E0,-5.186443329E-1
5.250188859E2,4.339384079E0,-1.082034397E1,-9.343972206E-1
5.255188859E2,7.470392227E0,-1.300259781E1,1.317847013E0
5.260188859E2,4.640281200E0,-1.206281757E1,1.853241086E0
5.265188859E2,9.169296265E0,-1.028435135E1,-7.866404653E-1
5.270188859E2,5.880361557E0,-1.535055542E1,1.306481123E0
5.275188859E2,1.003669453E1,-9.566504478E0,-9.840483069E-1
5.280188859E2,9.464211464E0,-5.973681927E0,-5.587241054E-1
5.285188859E2,5.548357487E0,-6.693921566E0,1.919043779E0
5.290188859E2,6.488138676E0,-3.895515203E0,-4.213162422E0
5.295188859E2,4.241876125E0,-5.189434052E0,1.121037364E0
5.300188859E2,5.684150219E0,-3.367299557E0,-3.681357622E0
5.305188859E2,3.595814228E0,-6.082555294E0,-6.305087805E-1
5.310188859E2,2.156531334E0,-6.355337143E0,-1.814955950E0
5.315188859E2,2.867797852E0,-8.871390343E0,-7.812566161E-1
5.320188859E2,3.265006542E0,-1.192223835E1,4.833501875E-1
5.325188859E2,3.131606579E0,-1.075992489E1,-1.716252089E0
5.330188859E2,4.319643021E0,-1.586561012E1,3.078964472E0
5.335188859E2,2.798406124E0,-1.746401596E1,-1.217348576E0
5.340188859E2,8.675178528E0,-1.085982513E1,-1.709671736E0
5.345188859E2,2.743969440E0,-1.119182968E1,1.782652885E-1
5.350188859E2,7.281957626E0,-1.029033375E1,-1.304088384E-1
5.355188859E2,7.109674454E0,-7.663612843E0,-9.798609018E-1
5.360188859E2,5.631507874E0,-7.312466145E0,-8.709874153E-1
5.365188859E2,4.578666210E0,-5.538187981E0,-6.923632145E0
5.370188859E2,5.138586521E0,-6.452246189E0,2.524427772E-1
5.375188859E2,4.317848682E0,-5.004588604E0,-4.656432629E0
5.380188859E2,3.665804386E0,-5.514259815E0,2.596212626E-1
5.385188859E2,3.337389469E0,-5.211567879E0,-3.402593851E0
5.390188859E2,1.902892232E0,-6.516254425E0,-5.599204898E-1
5.395188859E2,3.377469063E0,-5.626722336E0,-3.085544825E0
5.400188859E2,2.103889227E0,-7.840083599E0,-6.861419082E-1
5.405188859E2,2.702693224E0,-8.592027664E0,-4.438686073E-1
5.410188859E2,4.091726780E0,-8.751151085E0,-1.070189953E0
5.415188859E2,4.924428940E0,-1.083649540E1,-1.440479279E0
5.420188859E2,4.750350952E0,-1.074377346E1,2.123630047E-1
5.425188859E2,7.905886173E0,-1.133240795E1,7.465606928E-1
5.430188859E2,2.876172781E0,-1.140299606E1,6.999006122E-2
5.435188859E2,9.909874916E0,-9.510871887E0,-6.634100676E-1
5.440188859E2,5.985047817E0,-9.798010826E0,5.742774606E-1
5.445188859E2,6.554539204E0,-6.993024349E0,1.836491376E-1
5.450188859E2,4.872983456E0,-5.781059742E0,-4.142574310E0
5.455188859E2,4.913063049E0,-7.258029461E0,2.566302299E0
5.460188859E2,4.369294167E0,-4.188635826E0,-3.748954773E0
5.465188859E2,2.537588358E0,-7.773682594E0,3.864408433E-1
5.470188859E2,2.968894720E0,-7.618747234E0,-1.527817249E0
5.475188859E2,2.282752752E0,-9.003593445E0,-1.274178028E0
5.480188859E2,2.912663460E0,-8.408378601E0,-9.888339639E-1
5.485188859E2,3.053241730E0,-1.042971611E1,-7.692924738E-1
5.490188859E2,7.633104324E0,-1.129711437E1,1.892124534E0
5.495188859E2,4.152145386E0,-1.126899815E1,-6.376872063E-1
5.500188859E2,7.596613884E0,-1.115713406E1,1.268195987E0
5.505188859E2,4.149154663E0,-1.189531994E1,-2.937189937E-1
5.510188859E2,1.033519936E1,-1.038006496E1,-8.853443861E-1
5.515188859E2,5.562116146E0,-1.041236782E1,9.224331379E-1
5.520188859E2,7.578667641E0,-7.800601959E0,-7.405785918E-1
5.525188859E2,7.025327206E0,-8.085946083E0,-6.987041831E-1
5.530188859E2,5.682355404E0,-7.047461033E0,6.909275651E-1
5.535188859E2,4.538586140E0,-5.059623718E0,-4.152145386E0
5.540188859E2,3.463012457E0,-6.629314899E0,3.427718580E-1
5.545188859E2,3.393022537E0,-5.760720730E0,-1.581057549E0
5.550188859E2,2.480758905E0,-8.067401886E0,-7.070791125E-1
5.555188859E2,3.013161898E0,-7.012166977E0,-1.871187329E0
5.560188859E2,2.669193745E0,-9.014361382E0,-1.054636598E0
5.565188859E2,4.826921463E0,-1.050449181E1,3.427718580E-1
5.570188859E2,4.702494621E0,-1.096271706E1,-6.669993401E-1
5.575188859E2,7.607979774E0,-1.251087284E1,1.363908887E0
5.580188859E2,4.508078098E0,-1.088913727E1,8.614161611E-2
5.585188859E2,8.755936623E0,-1.183131123E1,-2.512463741E-2
5.590188859E2,2.831905603E0,-1.102732277E1,6.909275651E-1
5.595188859E2,1.062054348E1,-7.950751305E0,4.821537733E-1
5.600188859E2,7.564310551E0,-7.884948730E0,-9.122636318E-1
5.605188859E2,7.555337429E0,-7.587042332E0,-1.369890928E0
5.610188859E2,6.720840454E0,-6.234499454E0,-2.682952404E0
5.615188859E2,3.463012457E0,-6.800402164E0,5.742774606E-1
5.620188859E2,4.125226021E0,-5.282155991E0,-4.424927235E0
5.625188859E2,3.366103172E0,-5.969494343E0,4.295116663E-1
5.630188859E2,4.490131855E0,-4.935196877E0,-2.234896421E0
5.635188859E2,3.464807272E0,-6.867401123E0,1.510469317E0
5.640188859E2,3.393022537E0,-4.968696117E0,-3.080759048E0
5.645188859E2,2.676970243E0,-6.148357868E0,-8.973085135E-2
5.650188859E2,2.046461582E0,-6.055037498E0,-1.389033556E0
5.655188859E2,3.571287870E0,-7.615158081E0,-9.571290612E-1
5.660188859E2,2.379662037E0,-6.658029079E0,-1.551745534E0
5.665188859E2,2.171486616E0,-8.813961983E0,-8.913264275E-1
5.670188859E2,5.297709465E0,-1.066361427E1,9.457631707E-1
5.675188859E2,5.610570908E0,-1.234995556E1,-1.242473125E0
5.680188859E2,8.316255569E0,-1.135513973E1,2.416750908E0
5.685188859E2,4.546362877E0,-1.152383423E1,-6.251249313E-1
5.690188859E2,6.409175396E0,-1.324307728E1,-1.836491376E-1
5.695188859E2,3.718446493E0,-1.125224876E1,-7.244270444E-1
5.700188859E2,1.010369396E1,-1.005823040E1,-3.799802303E0
5.705188859E2,6.206982136E0,-1.148435211E1,9.924231768E-1
5.710188859E2,8.087740898E0,-8.550751686E0,-5.617151260E-1
5.715188859E2,6.787839413E0,-6.013761520E0,-2.388036966E0
5.720188859E2,4.092923164E0,-7.922037601E0,2.163111687E0
5.725188859E2,4.243072987E0,-4.826921463E0,-3.892524242E0
5.730188859E2,4.391427994E0,-5.943771362E0,-3.218346536E-1
5.735188859E2,2.555534601E0,-6.731608391E0,-1.621137381E0
5.740188859E2,3.504288673E0,-7.216753006E0,-1.446461320E0
5.745188859E2,2.709871531E0,-7.574480057E0,-5.072783828E-1
5.750188859E2,4.505086899E0,-8.688937187E0,1.549352705E-1
5.755188859E2,9.677771568E0,-6.337390900E0,-2.997010350E-1
5.760188859E2,5.552545071E0,-9.854840279E0,-9.056833982E-1
5.765188859E2,5.632704735E0,-8.204390526E0,1.298106313E0
5.770188859E2,7.813164234E0,-1.135035419E1,-4.959124923E-1
5.775188859E2,9.410373688E0,-1.348116302E1,1.884347796E-1
5.780188859E2,3.882952929E0,-1.383649731E1,-1.336391449E0
5.785188859E2,7.731808186E0,-8.287541389E0,-1.289133191E0
5.790188859E2,5.418546677E0,-8.434102058E0,-2.488535494E-1
5.795188859E2,3.841676712E0,-6.457630157E0,1.298704505E0
5.800188859E2,5.513063431E0,-2.740978241E0,-3.701098442E0
5.805188859E2,3.938585997E0,-7.878966808E0,1.403390527E0
5.810188859E2,3.537788391E0,-6.763911247E0,-4.486542568E-2
5.815188859E2,1.045065284E0,-8.746963501E0,-6.287141442E-1
5.820188859E2,3.133401155E0,-6.626324177E0,-2.482553482E0
5.825188859E2,-1.448854089E0,-1.063370419E1,-2.070389748E0
5.830188859E2,3.107678413E0,-1.053679466E1,-2.141576260E-1
5.835188859E2,3.434298754E0,-1.149870968E1,-7.082754970E-1
5.840188859E2,7.497311592E0,-1.087478065E1,6.652047038E-1
5.845188859E2,3.839882135E0,-1.362473202E1,-1.214357466E-1
5.850188859E2,5.184050083E0,-1.114576817E1,5.216353536E-1
5.855188859E2,1.892124534E0,-1.052243805E1,-2.723032236E0
5.860188859E2,7.579265594E0,-1.096570778E1,-8.871390224E-1
5.865188859E2,6.200401783E0,-9.306883812E0,2.402393818E0
5.870188859E2,6.253642082E0,-8.936594009E0,-4.582255483E-1
5.875188859E2,5.806184292E0,-6.883552551E0,-2.274976015E0
5.880188859E2,4.329214573E0,-7.017550468E0,1.814955950E0
5.885188859E2,3.697509289E0,-4.186243057E0,-3.999004841E0
5.890188859E2,2.237887383E0,-5.990431309E0,4.905286431E-2
5.895188859E2,2.054238319E0,-5.996413708E0,-2.147558212E0
5.900188859E2,2.038684845E0,-8.274380684E0,-1.582852125E0
5.905188859E2,2.492124796E0,-9.306285858E0,-1.902294010E-1
5.910188859E2,5.014159679E0,-1.097049332E1,-4.755735099E-1
5.915188859E2,6.404389858E0,-1.236251831E1,1.372283816E0
5.920188859E2,4.243670940E0,-1.206102276E1,5.084748268E-1
5.925188859E2,8.886942863E0,-1.238883877E1,8.961120844E-1
5.930188859E2,6.687341213E0,-1.208973598E1,7.878368497E-1
5.935188859E2,9.108279228E0,-8.193024635E0,-9.361918569E-1
5.940188859E2,7.223333359E0,-6.942176819E0,-5.772684813E-1
5.945188859E2,5.009374142E0,-5.726622581E0,4.390829504E-1
5.950188859E2,4.133002758E0,-5.825326920E0,-3.509074450E0
5.955188859E2,4.418346882E0,-5.866004944E0,1.922633052E0
5.960188859E2,4.618147850E0,-4.986642361E0,-2.039881229E0
5.965188859E2,2.703889608E0,-7.920242786E0,-1.310070455E-1
5.970188859E2,1.903490424E0,-8.222934723E0,-2.365903378E0
5.975188859E2,2.469393015E0,-8.971888542E0,-2.161317110E0
5.980188859E2,3.772284985E0,-1.243669605E1,1.734796353E-2
5.985188859E2,3.570091486E0,-1.029392338E1,-6.592226624E-1
5.990188859E2,6.966702938E0,-1.193360519E1,9.044869542E-1
5.995188859E2,1.591825247E0,-1.257368469E1,3.170489892E-2
6.000188859E2,9.395418167E0,-1.106142044E1,-1.448255897E0
6.005188859E2,4.523631096E0,-1.266102314E1,-4.941178858E-1
6.010188859E2,7.960322857E0,-7.829315662E0,5.264209956E-2
6.015188859E2,5.931209087E0,-5.539982796E0,-9.158528447E-1
6.020188859E2,4.595416069E0,-7.318448067E0,1.941775560E0
6.025188859E2,5.119443893E0,-4.919643402E0,-3.946960926E0
6.030188859E2,3.763311863E0,-7.631907940E0,1.207777262E0
6.035188859E2,4.380660057E0,-4.951348305E0,-2.772084951E0
6.040188859E2,2.282752752E0,-8.810373306E0,-8.823533654E-1
6.045188859E2,3.519243956E0,-8.250452042E0,-6.352944374E-1
6.050188859E2,2.950948477E0,-1.016770172E1,-1.103689432E0
6.055188859E2,4.578067780E0,-1.060140038E1,9.110672474E-1
6.060188859E2,4.171886444E0,-1.067976570E1,-6.604190469E-1
6.065188859E2,7.298109055E0,-1.192223835E1,2.615953445E0
6.070188859E2,4.499702930E0,-1.197667599E1,-9.212367237E-2
6.075188859E2,9.151947975E0,-1.263290691E1,1.260419369E0
6.080188859E2,3.994817495E0,-1.106919765E1,8.775677085E-1
6.085188859E2,8.261219978E0,-1.077906799E1,1.212562919E0
6.090188859E2,5.531009674E0,-1.108654594E1,4.689932466E-1
6.095188859E2,9.450452805E0,-8.534600258E0,-8.105686903E-1
6.100188859E2,7.864609718E0,-7.878368378E0,1.025922656E0
6.105188859E2,7.038487911E0,-7.057032108E0,-1.926222295E-1
6.110188859E2,7.615756035E0,-8.559724808E0,1.116251707E0
6.115188859E2,6.602993965E0,-8.229515076E0,1.826920033E0
6.120188859E2,8.143971443E0,-5.273781300E0,-3.442673683E0
6.125188859E2,5.905486107E0,-6.131608009E0,3.266801119E0
6.130188859E2,8.081160545E0,-3.875176191E0,-2.310270309E0
6.135188859E2,7.744968891E0,-6.900900364E0,1.111466169E0
6.140188859E2,8.510073662E0,-6.168696880E0,6.520441920E-2
6.145188859E2,4.571487427E0,-6.406184196E0,-1.794616925E-3
6.150188859E2,5.845067501E0,-7.049255371E0,-4.328018188E0
6.155188859E2,4.704289436E0,-8.127222061E0,6.287141442E-1
6.160188859E2,7.402196884E0,-8.068597794E0,-1.447657645E-1
6.165188859E2,8.166105270E0,-6.987041950E0,8.805587292E-1
6.170188859E2,7.122834682E0,-7.739584923E0,2.628515720E0
6.175188859E2,9.314660072E0,-6.534200668E0,3.351746321E0
6.180188859E2,5.063212872E0,-9.539586067E0,1.759322882E0
6.185188859E2,7.963313580E0,-6.921239376E0,5.036891699E-1
6.190188859E2,7.706683636E0,-1.046979523E1,2.967100143E-1
6.195188859E2,4.940580368E0,-7.821538925E0,-3.667000830E-1
6.200188859E2,3.553939819E0,-9.316454887E0,-7.992027402E-1
6.205188859E2,4.736592293E0,-1.142692471E1,2.575873613E0
6.210188859E2,3.384647608E0,-1.040279675E1,-4.707878530E-1
6.215188859E2,6.604190350E0,-1.173081303E1,2.134397745E0
6.220188859E2,3.616751432E0,-1.179781246E1,-1.097109199E0
6.225188859E2,5.933003902E0,-1.044108200E1,2.242672920E0
6.230188859E2,4.346562386E0,-9.686145782E0,-1.034895778E-1
6.235188859E2,9.162715912E0,-1.089212894E1,2.719442844E0
6.240188859E2,4.463212490E0,-8.822935104E0,9.032905698E-1
6.245188859E2,8.024331093E0,-8.775078773E0,1.390828133E0
6.250188859E2,5.164907455E0,-9.853643417E0,-9.314061999E-1
6.255188859E2,9.046066284E0,-9.230313301E0,1.887338877E0
6.260188859E2,4.491926193E0,-9.816555023E0,-5.730810165E-1
6.265188859E2,9.786644936E0,-9.861420631E0,3.603590965E0
6.270188859E2,5.985047817E0,-1.207238865E1,-1.409970760E0
6.275188859E2,1.254138184E1,-1.091605663E1,9.415757060E-1
6.280188859E2,6.964908600E0,-9.510871887E0,2.864806890E0
6.285188859E2,5.482554913E0,-8.089534760E0,1.198205948E0
6.290188859E2,5.921039581E0,-5.723631859E0,-3.626322746E0
6.295188859E2,5.233701229E0,-7.710870743E0,1.984248161E0
6.300188859E2,6.361319065E0,-4.963910580E0,-3.702893019E0
6.305188859E2,5.894120216E0,-8.011170387E0,2.184048891E0
6.310188859E2,7.548757076E0,-5.740979671E0,-6.735795736E-1
6.315188859E2,7.089335442E0,-8.760722160E0,7.214360237E-1
6.320188859E2,4.088735580E0,-8.752944946E0,9.511470199E-1
6.325188859E2,7.830512047E0,-1.043569756E1,1.587637782E0
6.330188859E2,4.705485821E0,-7.619943619E0,9.463613629E-1
6.335188859E2,7.435696602E0,-4.679164886E0,6.107679605E-1
6.340188859E2,6.229713917E0,-5.709274769E0,4.605585575E0
6.345188859E2,6.619743824E0,-5.401797295E0,2.223530531E0
6.350188859E2,7.996813297E0,-6.409773827E0,2.165504545E-1
6.355188859E2,7.722237110E0,-7.116254330E0,1.598405480E0
6.360188859E2,6.244070530E0,-8.499305725E0,4.785645306E-1
6.365188859E2,7.113263607E0,-8.380861282E0,3.571287692E-1
6.370188859E2,4.694717884E0,-8.088936806E0,-4.510470629E-1
6.375188859E2,5.483152866E0,-8.024331093E0,-7.142575383E-1
6.380188859E2,5.088935375E0,-8.450253487E0,-1.671984792E0
6.385188859E2,4.996213913E0,-8.317451477E0,-9.541380405E-1
6.390188859E2,4.502095699E0,-8.852247238E0,-1.127617717E0
6.395188859E2,4.936991215E0,-8.708079338E0,8.614161611E-2
6.400188859E2,5.855835438E0,-8.414958954E0,-8.787640929E-1
6.405188859E2,5.519643784E0,-8.210372925E0,3.667000830E-1
6.410188859E2,5.048855782E0,-8.459824562E0,2.315055877E-1
6.415188859E2,5.573482037E0,-8.197810173E0,1.854437590E-1
6.420188859E2,5.227719307E0,-8.208578110E0,-9.690931439E-2
6.425188859E2,5.371288776E0,-8.237890244E0,1.339980662E-1
6.430188859E2,5.446064472E0,-8.314460754E0,-5.443671346E-2
6.435188859E2,5.680561066E0,-8.041080475E0,2.171486616E-1
6.440188859E2,5.348556995E0,-8.137392044E0,4.666004330E-2
6.445188859E2,5.203791142E0,-8.182256699E0,5.982056726E-3
6.450188859E2,5.368297577E0,-8.175676346E0,3.475574851E-1
6.455188859E2,5.111069202E0,-8.391031265E0,2.500499785E-1
6.460188859E2,5.109274387E0,-8.392825127E0,6.221338734E-2
6.465188859E2,5.131408215E0,-8.301898003E0,2.470589429E-1
6.470188859E2,5.262415409E0,-8.105687141E0,1.836491376E-1
6.475188859E2,5.466403484E0,-8.173882484E0,6.340979785E-2
6.480188859E2,5.606981754E0,-8.113463402E0,2.237289101E-1
6.485188859E2,5.516054630E0,-8.053044319E0,8.614161611E-2
6.490188859E2,5.482554913E0,-8.099106789E0,-8.255238086E-2
6.495188859E2,5.598008633E0,-8.148757935E0,3.469592705E-2
6.500188859E2,5.527420521E0,-8.079365730E0,-5.443671346E-2
6.505188859E2,5.505286694E0,-8.020741463E0,-1.734796464E-1
6.510188859E2,5.722435474E0,-8.038089752E0,-7.357929647E-2
6.515188859E2,5.062016487E0,-8.110472679E0,-4.055834413E-1
6.520188859E2,5.696712494E0,-8.043473244E0,-3.433700502E-1
6.525188859E2,5.465207100E0,-7.981259823E0,-1.196411327E-1
6.530188859E2,5.535795212E0,-8.185248375E0,-2.901297510E-1
6.535188859E2,5.469992638E0,-8.029116631E0,-1.962114573E-1
6.540188859E2,5.522634506E0,-8.212167740E0,3.206382394E-1
6.545188859E2,5.254638672E0,-8.159524918E0,2.201396823E-1
6.550188859E2,5.348556995E0,-8.231309891E0,7.058826834E-2
6.555188859E2,5.377270699E0,-8.221738815E0,-1.196411322E-3
6.560188859E2,5.538187981E0,-8.099106789E0,-9.571290575E-3
6.565188859E2,6.088537216E0,-7.855038643E0,-8.255238086E-2
6.570188859E2,5.698507309E0,-8.055437088E0,-2.033899166E-2
6.575188859E2,5.254638672E0,-8.206185341E0,-1.453639716E-1
6.580188859E2,5.602794170E0,-8.045866013E0,-2.033899166E-2
6.585188859E2,5.615356445E0,-8.093722343E0,-1.579262912E-1
6.590188859E2,4.928018093E0,-8.526823044E0,-7.082754970E-1
6.595188859E2,5.081159115E0,-7.813762188E0,-1.539781332E0
6.600188859E2,3.522234917E0,-6.452246189E0,-4.621737003E0
6.605188859E2,4.508078098E0,-5.104488850E0,1.593619823E0
6.610188859E2,4.185645103E0,-4.138386726E0,-3.496512175E0
6.615188859E2,2.222334146E0,-6.275177479E0,1.196411327E-1
6.620188859E2,2.291127682E0,-7.483552933E0,5.772684813E-1
6.625188859E2,4.171886444E0,-9.550353050E0,-2.937189937E-1
6.630188859E2,4.301098824E0,-1.102014446E1,-1.256231815E-1
6.635188859E2,3.734597921E0,-1.018086243E1,-5.198407173E-1
6.640188859E2,7.641479015E0,-1.025085258E1,1.477568030E0
6.645188859E2,4.803591251E0,-1.072163963E1,1.137188911E0
6.650188859E2,1.211845016E1,-1.042014408E1,2.164308071E0
6.655188859E2,4.615156651E0,-1.102911758E1,2.536391914E-1
6.660188859E2,7.069594383E0,-6.751348972E0,-1.405185103E0
6.665188859E2,6.421139717E0,-7.019345284E0,-1.116850019E0
6.670188859E2,3.463610888E0,-6.221338749E0,9.631111026E-1
6.675188859E2,4.869992256E0,-5.801398277E0,-1.261615753E0
6.680188859E2,2.638087034E0,-8.685946465E0,-1.113858938E0
6.685188859E2,5.218147755E0,-1.025563812E1,1.320838094E0
6.690188859E2,3.183650494E0,-1.036869907E1,-2.407179594E0
6.695188859E2,9.890133858E0,-1.117089272E1,2.517249346E0
6.700188859E2,4.752145767E0,-1.257069397E1,9.690931439E-2
6.705188859E2,1.072762203E1,-7.620542049E0,-5.982056726E-3
6.710188859E2,7.904689789E0,-6.280561447E0,-1.400399446E0
6.715188859E2,5.462215900E0,-6.488138676E0,1.086341500E0
6.720188859E2,5.538187981E0,-5.120640278E0,-2.820539713E0
6.725188859E2,3.211168051E0,-8.070392609E0,1.143769264E0
6.730188859E2,2.884547710E0,-5.356931686E0,-2.732603550E0
6.735188859E2,2.117647976E-1,-9.386445045E0,-1.253839016E0
6.740188859E2,6.656832695E0,-9.123234749E0,1.331605792E0
6.745188859E2,4.222733974E0,-1.176491070E1,-5.252245665E-1
6.750188859E2,4.667798996E0,-1.345065403E1,-6.640082598E-1
6.755188859E2,5.531009674E0,-1.135334492E1,1.236491084E0
6.760188859E2,8.656036377E0,-1.236311626E1,-1.296909928E0
6.765188859E2,5.998208046E0,-1.150648594E1,1.082752272E-1
6.770188859E2,7.414160728E0,-1.085743237E1,-1.150349498E0
6.775188859E2,4.365705013E0,-7.527820110E0,-1.582852125E0
6.780188859E2,2.981456995E0,-5.497509956E0,3.166302681E0
6.785188859E2,6.257829189E0,-3.547359467E0,-2.843869686E0
6.790188859E2,2.898904562E0,-7.135396957E0,-1.244267747E-1
6.795188859E2,3.290729284E0,-5.985047817E0,-2.453839540E0
6.800188859E2,1.372283816E0,-9.908080101E0,-2.258824587E0
6.805188859E2,3.628715515E0,-1.182832050E1,8.458628058E-1
6.810188859E2,3.088535786E0,-1.067976570E1,-6.508477330E-1
6.815188859E2,8.751749039E0,-1.442094421E1,2.343171597E0
6.820188859E2,3.561716557E0,-1.363131237E1,5.108676553E-1
6.825188859E2,1.119541931E1,-9.853643417E0,-1.274776220E0
6.830188859E2,5.655436516E0,-1.191984558E1,1.747956991E0
6.835188859E2,8.153543472E0,-7.904689789E0,-1.384247899E0
6.840188859E2,6.780063152E0,-4.470989227E0,-1.523629785E0
6.845188859E2,3.193820000E0,-6.339185238E0,5.371887088E-1
6.850188859E2,5.000999451E0,-3.908675671E0,-1.783849239E0
6.855188859E2,2.265404940E0,-6.514459610E0,4.749752879E-1
6.860188859E2,3.224328518E0,-6.163911343E0,-2.763111830E0
6.865188859E2,9.792626500E-1,-1.015693378E1,-2.082952023E0
6.870188859E2,5.877968788E0,-1.056550884E1,2.070389748E0
6.875188859E2,4.664807796E0,-1.024606609E1,1.935195327E0
6.880188859E2,9.761520386E0,-7.138986588E0,2.857030153E0
6.885188859E2,3.217748165E0,-1.321914864E1,-4.271188378E-1
6.890188859E2,8.216953278E0,-1.013479996E1,-2.520240545E0
6.895188859E2,6.083751678E0,-8.254041672E0,-1.329213023E0
6.900188859E2,5.525625706E0,-7.811369419E0,-3.188436031E-1
6.905188859E2,3.973880291E0,-4.993222713E0,-2.288734913E0
6.910188859E2,2.102094650E0,-5.784648895E0,-2.536391914E-1
6.915188859E2,3.786641836E0,-3.897309780E0,9.302098155E-1
6.920188859E2,1.860419631E0,-6.971488953E0,6.041877344E-2
6.925188859E2,1.838884234E0,-9.358927727E0,1.363908887E0
6.930188859E2,3.823730469E0,-9.917053223E0,-7.776673418E-3
6.935188859E2,5.000999451E0,-1.186062336E1,5.617151260E-1
6.940188859E2,2.054836512E0,-1.236431313E1,5.886343718E-1
6.945188859E2,7.818548203E0,-1.143589783E1,-9.343972206E-1
6.950188859E2,4.214358807E0,-1.341057491E1,-4.917250574E-1
6.955188859E2,7.400402069E0,-9.545567513E0,-1.709671736E0
6.960188859E2,5.965905190E0,-6.098706722E0,-4.457230568E0
6.965188859E2,3.662214994E0,-7.898109436E0,9.391828775E-1
6.970188859E2,2.463410854E0,-5.345565796E0,-4.279563427E0
6.975188859E2,2.425125837E0,-7.938189030E0,-7.046862841E-1
6.980188859E2,3.760320902E0,-7.423732281E0,-1.728814363E0
6.985188859E2,2.493321180E0,-8.019545555E0,-9.942178130E-1
6.990188859E2,3.179463148E0,-9.684949875E0,2.456232548E0
6.995188859E2,1.819741607E0,-9.625128746E0,-7.543373108E-1
7.000188859E2,5.950351715E0,-9.335597992E0,1.219143152E0
7.005188859E2,3.388236761E0,-1.111226845E1,4.085744619E-1
7.010188859E2,9.253643036E0,-1.247797203E1,6.747759581E-1
7.015188859E2,3.590430260E0,-1.225005531E1,6.544370055E-1
7.020188859E2,9.797411919E0,-9.881160736E0,-7.381857634E-1
7.025188859E2,7.325028419E0,-8.880363464E0,2.562114954E0
7.030188859E2,4.439284325E0,-7.291528702E0,2.044667006E0
7.035188859E2,6.851847649E0,-4.415356159E0,-3.256033421E0
7.040188859E2,3.065804005E0,-7.548159122E0,-4.851447940E-1
7.045188859E2,4.633700848E0,-7.036693096E0,-1.628913999E0
7.050188859E2,3.506681681E0,-9.296713829E0,-1.107278705E0
7.055188859E2,5.696114540E0,-9.708877563E0,1.960319996E0
7.060188859E2,4.734199524E0,-1.039322472E1,-7.052844763E-1
7.065188859E2,7.947162151E0,-1.081376362E1,3.641875982E0
7.070188859E2,3.868596077E0,-1.071326542E1,8.057830334E-1
7.075188859E2,1.065165043E1,-9.771091461E0,1.108475089E0
7.080188859E2,5.385047436E0,-8.170292854E0,-7.980063558E-1
7.085188859E2,4.253242016E0,-6.615556240E0,2.107478619E0
7.090188859E2,5.209773064E0,-4.807778835E0,-3.574877024E0
7.095188859E2,3.329612732E0,-7.009175777E0,4.085744619E-1
7.100188859E2,2.250449657E0,-6.707680225E0,-2.097907305E0
7.105188859E2,3.174079180E0,-9.781859398E0,-1.375274777E0
7.110188859E2,1.419542074E0,-1.152861977E1,9.559326172E-1
7.115188859E2,2.099701881E0,-1.094477081E1,-1.400399446E0
7.120188859E2,1.252642632E0,-1.296550941E1,-3.080759048E-1
7.125188859E2,-1.866401732E-1,-1.205204964E1,-3.131008387E0
7.130188859E2,2.274377823E0,-1.153520012E1,-1.881955028E0
7.135188859E2,2.861815929E0,-1.161296654E1,1.030708313E0
7.140188859E2,7.237092018E0,-7.694121361E0,2.279163599E-1
7.145188859E2,6.318846226E0,-5.327619553E0,-2.183450699E0
7.150188859E2,4.956133842E0,-6.853044033E0,2.551945448E0
7.155188859E2,4.649852753E0,-5.495117188E0,-2.050050735E0
7.160188859E2,-4.193421602E-1,-9.002995491E0,1.853839397E0
7.165188859E2,3.471387386E0,-8.358727455E0,2.624328136E0
7.170188859E2,3.010170937E0,-1.001037312E1,1.686341763E0
7.175188859E2,5.277370453E0,-8.258827209E0,2.036890268E0
7.180188859E2,4.472783566E0,-1.190967655E1,-1.405783296E-1
7.185188859E2,8.663812637E0,-1.064985561E1,-1.161117196E0
7.190188859E2,3.831507206E0,-1.513400459E1,-1.335195065E0
7.195188859E2,1.292483139E1,-9.251849174E0,-5.322834015E0
7.200188859E2,6.894320011E0,-1.023290634E1,5.395814776E-1
7.205188859E2,5.575276852E0,-7.386045456E0,8.518448472E-1
7.210188859E2,6.289534092E0,-4.023531437E0,-3.688536167E0
7.215188859E2,3.547957659E0,-6.622136593E0,2.075175524E0
7.220188859E2,4.796412945E0,-5.832505226E0,-1.240678549E0
7.225188859E2,3.817748547E0,-8.567501068E0,-1.207179070E0
7.230188859E2,6.920042992E0,-1.040040398E1,2.331805706E0
7.235188859E2,4.516452789E0,-1.276152134E1,2.334198475E0
7.240188859E2,8.622536659E0,-1.280040455E1,1.776670814E0
7.245188859E2,3.760320902E0,-1.268794250E1,3.442075491E0
7.250188859E2,9.958928108E0,-8.401798248E0,2.107478619E0
7.255188859E2,6.795616150E0,-5.666203976E0,-3.834498405E0
7.260188859E2,6.730412006E0,-6.093322754E0,3.238685369E0
7.265188859E2,5.440082073E0,-4.785645485E0,-2.214557409E0
7.270188859E2,1.260419369E0,-9.461220741E0,-5.180460811E-1
7.275188859E2,3.040081263E0,-5.405984402E0,-2.657827854E0
7.280188859E2,2.576471806E0,-9.183652878E0,-1.009771109E0
7.285188859E2,3.744169235E0,-9.023932457E0,5.330012441E-1
7.290188859E2,5.637490273E0,-1.064028454E1,1.694118381E0
7.295188859E2,7.237092018E0,-1.170568848E1,4.879563808E0
7.300188859E2,8.221738815E0,-1.146281719E1,5.243272781E0
7.305188859E2,8.559724808E0,-9.225527763E0,7.499105930E0
7.310188859E2,5.292923450E0,-1.040997505E1,2.589034081E0
7.315188859E2,1.061575794E1,-8.188239098E0,4.320241451E0
7.320188859E2,9.033503532E0,-5.298905849E0,1.017547846E0
7.325188859E2,6.921239376E0,-6.131608009E0,5.539982796E0
7.330188859E2,6.626922131E0,-3.475574970E0,7.429714203E-1
7.335188859E2,3.670589924E0,-6.468397617E0,1.104287624E0
7.340188859E2,3.609572887E0,-5.347360611E0,2.880958557E0
7.345188859E2,5.553143024E0,-8.755936623E0,1.908276081E0
7.350188859E2,5.755336761E0,-9.322437286E0,2.958725214E0
7.355188859E2,3.430111170E0,-1.010429192E1,5.922235847E-1
7.360188859E2,8.352147102E0,-1.215853024E1,2.223530531E0
7.365188859E2,5.874379873E-1,-1.066899776E1,2.056032896E0
7.370188859E2,5.345565796E0,-1.186540890E1,1.143769264E0
7.375188859E2,2.188236237E0,-1.049491978E1,-1.591227055E-1
7.380188859E2,6.081358910E0,-9.783653259E0,1.440479279E0
7.385188859E2,6.519245148E0,-6.320042610E0,-1.204187989E0
7.390188859E2,5.573482037E0,-6.914061069E0,2.827120066E0
7.395188859E2,5.377270699E0,-4.787439823E0,-1.542174220E0
7.400188859E2,4.257429600E0,-8.376673698E0,-4.737788737E-1
7.405188859E2,3.415156126E0,-7.529016495E0,-1.893919110E0
7.410188859E2,3.791427374E0,-9.818349838E0,-1.890329838E0
7.415188859E2,5.474778175E0,-1.137428284E1,1.320838094E0
7.420188859E2,4.206582069E0,-1.051107121E1,1.255633712E0
7.425188859E2,8.677571297E0,-1.049791145E1,4.186243057E0
7.430188859E2,2.941975355E0,-1.235474110E1,1.001396298E0
7.435188859E2,1.056311512E1,-8.877371788E0,-1.131206870E0
7.440188859E2,4.261018753E0,-1.147597694E1,1.275972724E0
7.445188859E2,8.251648903E0,-7.312466145E0,8.793623000E-2
7.450188859E2,5.670989513E0,-4.506881237E0,-3.108874798E0
7.455188859E2,4.350151539E0,-6.116054535E0,9.655039310E-1
7.460188859E2,4.386641979E0,-3.037688255E0,-3.088535786E0
7.465188859E2,2.276172638E0,-7.630113125E0,-1.999203324E0
7.470188859E2,3.317648649E0,-8.286943436E0,6.209374666E-1
7.475188859E2,4.731806755E0,-1.089691448E1,7.836493850E-2
7.480188859E2,1.018026352E1,-1.025922680E1,2.946761131E0
7.485188859E2,3.731606960E0,-1.068814087E1,-5.617151260E-1
7.490188859E2,9.123234749E0,-1.167338562E1,-3.236292601E-1
7.495188859E2,3.040081263E0,-1.208495045E1,1.177268744E0
7.500188859E2,7.811967850E0,-8.454441071E0,-3.469592705E-2
7.505188859E2,5.069792747E0,-5.419145107E0,-4.471587181E0
7.510188859E2,3.087937593E0,-6.497709751E0,8.632107973E-1
7.515188859E2,3.539582968E0,-4.555934429E0,-4.590630054E0
7.520188859E2,2.638087034E0,-6.548557281E0,-5.760720372E-1
7.525188859E2,3.259024382E0,-6.032904148E0,-1.035493970E0
7.530188859E2,3.434298754E0,-9.647860527E0,-1.839482427E0
7.535188859E2,6.180062771E0,-1.099621677E1,1.483550072E-1
7.540188859E2,4.777270317E0,-1.094178009E1,2.788236618E0
7.545188859E2,8.586644173E0,-8.778069496E0,1.667199135E0
7.550188859E2,4.264009953E0,-1.221476173E1,2.056631088E0
7.555188859E2,8.231309891E0,-1.238644600E1,-4.929214716E-1
7.560188859E2,4.431507587E0,-1.317847061E1,-2.069791555E-1
7.565188859E2,9.958928108E0,-9.737591743E0,-1.092921734E0
7.570188859E2,6.984051228E0,-7.910671711E0,-1.842473388E0
7.575188859E2,4.683950424E0,-7.098906517E0,2.039881229E0
7.580188859E2,3.313461065E0,-5.072783947E0,-4.109074593E0
7.585188859E2,3.460021496E0,-6.078966141E0,1.949552298E0
7.590188859E2,3.726222992E0,-5.300700188E0,-2.340180635E0
7.595188859E2,2.474178553E0,-6.683752060E0,-2.452643216E-1
7.600188859E2,2.281556368E0,-7.564908981E0,-1.156929731E0
7.605188859E2,3.068794966E0,-7.936394691E0,-5.467599630E-1
7.610188859E2,3.257229805E0,-9.454640388E0,1.453639746E0
7.615188859E2,4.171288013E0,-9.821340561E0,1.743171334E0
7.620188859E2,6.771687984E0,-1.332024574E1,3.315255880E0
7.625188859E2,3.566502094E0,-1.137368393E1,1.039681435E0
7.630188859E2,9.964909554E0,-1.116012478E1,-1.987837434E0
7.635188859E2,4.532006264E0,-1.284826088E1,2.763710022E-1
7.640188859E2,9.270991325E0,-7.402196884E0,-2.572284341E-1
7.645188859E2,8.240880966E0,-6.020341873E0,-1.579262912E-1
7.650188859E2,5.789434433E0,-5.809773445E0,1.381256819E0
7.655188859E2,3.483949661E0,-5.276772022E0,-3.175873756E0
7.660188859E2,3.497110367E0,-5.554339409E0,1.044467092E0
7.665188859E2,2.466402054E0,-6.411568165E0,-1.896311998E0
7.670188859E2,2.338984251E0,-8.264809608E0,-1.357328653E0
7.675188859E2,6.028118610E0,-8.113463402E0,-5.952146053E-1
7.680188859E2,4.707878590E0,-1.156869888E1,8.135596663E-2
7.685188859E2,8.674580574E0,-1.087119102E1,1.982453585E0
7.690188859E2,3.767499208E0,-1.425284767E1,-1.883749604E0
7.695188859E2,9.716055870E0,-1.030648518E1,-6.879364848E-1
7.700188859E2,3.498306751E0,-1.147418308E1,3.984049559E-1
7.705188859E2,6.071189404E0,-9.723235130E0,1.232303679E-1
7.710188859E2,3.426522017E0,-7.634898663E0,-3.769891977E0
7.715188859E2,1.896311998E0,-7.858029366E0,-1.962114573E-1
7.720188859E2,2.554338217E0,-4.829912663E0,-2.273181438E0
7.725188859E2,2.204986095E0,-5.391627789E0,1.437488198E0
7.730188859E2,3.945166349E0,-5.362913609E0,3.122633696E-1
7.735188859E2,1.671984792E0,-8.395816803E0,-2.014756680E0
7.740188859E2,3.940380573E0,-8.952147484E0,4.181457460E-1
7.745188859E2,4.011567116E0,-1.104407310E1,2.045863420E-1
7.750188859E2,8.263014793E0,-1.239960670E1,-3.924229145E-1
7.755188859E2,3.911068678E0,-1.268495083E1,-1.232303679E-1
7.760188859E2,9.236295700E0,-1.008215809E1,-3.176471949E0
7.765188859E2,5.389832973E0,-1.039083195E1,-2.327020019E-1
7.770188859E2,8.065009117E0,-8.604590416E0,-2.073380709E0
7.775188859E2,1.034776115E1,-3.314657450E0,-3.552145243E0
7.780188859E2,2.998805046E0,-4.363312244E0,-1.936391711E0
7.785188859E2,2.419741869E0,-5.192425251E0,-3.428316593E0
7.790188859E2,1.878963947E0,-8.919246674E0,-3.892524242E0
7.795188859E2,4.281956196E0,-1.231226921E1,-1.579262912E-1
7.800188859E2,2.989233732E0,-1.283031464E1,-2.727817893E-1
7.805188859E2,7.936394691E0,-1.011685371E1,-9.248259664E-1
7.810188859E2,1.287338614E0,-1.247916794E1,-4.127618968E-1
7.815188859E2,7.720442295E0,-9.708279610E0,-8.249256015E-1
7.820188859E2,5.790630817E0,-6.254838467E0,-2.203191519E0
7.825188859E2,2.428116798E0,-6.473781586E0,3.625126183E-1
7.830188859E2,5.024927616E0,-4.073780537E0,-5.100301266E0
7.835188859E2,2.941975355E0,-5.929414749E0,8.787640929E-1
7.840188859E2,3.686143398E0,-5.023132801E0,-4.130012035E0
7.845188859E2,1.666600943E0,-9.314062119E0,-5.934200287E-1
7.850188859E2,6.019145489E0,-9.540781975E0,8.297112584E-1
7.855188859E2,2.128415823E0,-1.150648594E1,-2.775674164E-1
7.860188859E2,6.689135551E0,-1.112004471E1,8.338986635E-1
7.865188859E2,1.336989641E0,-9.824930191E0,-8.853443861E-1
7.870188859E2,1.071984577E1,-1.031964588E1,-4.797609448E-1
7.875188859E2,3.265604734E0,-8.926424980E0,-2.333600283E0
7.880188859E2,4.392025948E0,-6.981060028E0,-9.930214286E-2
7.885188859E2,4.001996040E0,-4.993222713E0,-2.935395241E0
7.890188859E2,3.906282902E0,-7.021738052E0,3.637090325E-1
7.895188859E2,3.380460262E0,-9.399007797E0,-1.103689432E0
7.900188859E2,3.093321562E0,-1.153161049E1,-1.116850019E0
7.905188859E2,8.325826645E0,-1.135155106E1,9.684949517E-1
7.910188859E2,3.334398270E0,-1.133360481E1,-3.385843933E-1
7.915188859E2,8.368298531E0,-1.094477081E1,-3.320041299E-1
7.920188859E2,5.256433010E0,-9.458230019E0,-1.442273855E0
7.925188859E2,4.415954113E0,-7.892725468E0,2.612962246E0
7.930188859E2,3.705883980E0,-4.310669899E0,-4.369294167E0
7.935188859E2,3.621536970E0,-5.945566177E0,1.046261668E0
7.940188859E2,4.789234638E0,-4.528416634E0,-2.898306370E0
7.945188859E2,2.865405083E0,-8.741579056E0,-5.138586760E-1
7.950188859E2,3.419941664E0,-7.936394691E0,-1.375873089E-1
7.955188859E2,2.333600283E0,-9.984650612E0,-2.030908108E0
7.960188859E2,4.838287354E0,-9.195018768E0,1.336391449E0
7.965188859E2,3.343371391E0,-1.097468090E1,-1.692921966E-1
7.970188859E2,7.402196884E0,-1.154417324E1,7.387840152E-1
7.975188859E2,2.384447813E0,-1.274596786E1,-7.573283911E-1
7.980188859E2,1.005942631E1,-1.033579731E1,-6.652047038E-1
7.985188859E2,5.439484119E0,-9.676574707E0,9.320043921E-1
7.990188859E2,6.905686378E0,-7.912466049E0,-1.186840057E0
7.995188859E2,6.202196121E0,-6.141179085E0,-1.448255897E0
8.000188859E2,3.635295868E0,-5.866004944E0,1.351346612E0
8.005188859E2,1.939382792E0,-4.680361271E0,-2.035095692E0
8.010188859E2,2.153540373E0,-7.155735970E0,-7.495517135E-1
8.015188859E2,2.169093609E0,-7.205387115E0,-1.008574724E0
8.020188859E2,3.047259569E0,-8.014759064E0,-1.530210137E0
8.025188859E2,6.258427620E0,-9.014959335E0,3.708875179E-2
8.030188859E2,3.376870871E0,-1.064447117E1,-5.419743061E-1
8.035188859E2,8.117650986E0,-1.101535892E1,1.681556106E0
8.040188859E2,3.811168194E0,-1.159202957E1,1.161715388E0
8.045188859E2,5.909075737E0,-1.105184937E1,1.813759565E0
8.050188859E2,4.802993298E0,-1.063549805E1,1.568495274E0
8.055188859E2,5.467001438E0,-9.667003632E0,3.430111170E0
8.060188859E2,3.464807272E0,-6.952346325E0,3.332005441E-1
8.065188859E2,2.516052961E0,-5.479563713E0,1.615155339E-1
8.070188859E2,2.805584431E0,-5.875576019E0,-7.597211599E-1
8.075188859E2,2.429313183E0,-6.349354744E0,-1.228714466E0
8.080188859E2,1.435693622E0,-7.905886173E0,-9.523434043E-1
8.085188859E2,2.434098721E0,-8.100302696E0,-4.229314029E-1
8.090188859E2,3.920639992E0,-8.663812637E0,4.576273263E-1
8.095188859E2,2.927020311E0,-8.603393555E0,-1.214357495E0
8.100188859E2,4.234099865E0,-1.007258701E1,1.667199135E0
8.105188859E2,1.015753269E0,-1.029571724E1,-2.458625287E-1
8.110188859E2,6.618547440E0,-1.091007519E1,1.805982947E0
8.115188859E2,3.074178934E0,-1.021256733E1,2.309073806E-1
8.120188859E2,8.046463966E0,-8.796015739E0,1.852044702E0
8.125188859E2,4.308875561E0,-1.077248764E1,7.369893789E-1
8.130188859E2,7.753942013E0,-9.368498802E0,3.577269912E-1
8.135188859E2,4.433301926E0,-1.091964626E1,2.140978098E0
8.140188859E2,8.734998703E0,-1.263589859E1,5.820540786E-1
8.145188859E2,5.982056856E-1,-1.487199116E1,2.717050076E0
8.150188859E2,7.871190071E0,-1.275494099E1,1.820339799E0
8.155188859E2,2.297109842E0,-1.253719425E1,-2.602194548E-1
8.160188859E2,6.368497372E0,-9.981060982E0,2.269592285E0
8.165188859E2,2.444268227E0,-5.720042706E0,-5.064409256E0
8.170188859E2,4.610371113E0,-5.207978249E0,2.143969059E0
8.175188859E2,4.219144344E0,-4.409373760E0,-3.236292601E0
8.180188859E2,2.321038008E0,-8.162516594E0,-5.328217983E0
8.185188859E2,3.544966698E0,-9.081359863E0,1.316052489E-2
8.190188859E2,1.232901812E0,-9.985847473E0,-2.456830740E0
8.195188859E2,1.013001442E1,-9.955936432E0,-1.293918848E0
8.200188859E2,2.231905222E0,-1.033819008E1,-1.144965649E0
8.205188859E2,1.204068375E1,-1.240439224E1,-3.000599623E0
8.210188859E2,7.761120319E0,-6.873981476E0,-1.841277003E0
8.215188859E2,3.227319479E0,-5.251647472E0,4.498506486E-1
8.220188859E2,4.886143684E0,-4.380061626E0,-2.067398787E0
8.225188859E2,3.698107481E0,-6.872186661E0,-3.710669756E0
8.230188859E2,2.041675806E0,-8.592027664E0,-5.491527915E-1
8.235188859E2,3.362514019E0,-1.251147175E1,-6.137589812E-1
8.240188859E2,7.404589653E0,-1.271067429E1,-2.167897224E0
8.245188859E2,4.265206337E0,-1.342373466E1,-7.453642488E-1
8.250188859E2,2.894119024E0,-8.502895355E0,3.375674486E0
8.255188859E2,5.989833355E0,-4.640879631E0,-5.578866005E0
8.260188859E2,6.508477330E-1,-6.514459610E0,-3.902095556E0
8.265188859E2,2.572882652E0,-6.988836765E0,-2.770888567E0
8.270188859E2,2.740380049E0,-9.571290970E0,-2.621337175E0
8.275188859E2,8.002795219E0,-6.034698486E0,4.898705959E0
8.280188859E2,2.225325108E0,-2.288734913E0,1.053918743E1
8.285188859E2,-7.190431952E-1,-1.786840320E0,1.093998528E1
8.290188859E2,2.549552441E0,-3.846462488E0,1.345603848E1
8.295188859E2,-6.358327866E0,-3.332005441E-1,8.267800331E0
8.300188859E2,1.980060697E0,-9.348159790E0,9.912865639E0
8.305188859E2,1.697109461E0,-6.610172749E0,1.328315639E1
8.310188859E2,1.087537885E0,-7.572685242E0,6.181857109E0
8.315188859E2,3.586242914E0,-1.042433167E1,6.363711834E0
8.320188859E2,1.645065546E0,-1.010070229E1,6.655636311E0
8.325188859E2,3.169891834E0,-1.085264683E1,7.252047062E0
8.330188859E2,2.750549555E0,-8.322237015E0,2.683550596E0
8.335188859E2,4.718646049E0,-7.021738052E0,9.762716293E-1
8.340188859E2,4.766502857E0,-6.701099873E0,6.101697683E-2
8.345188859E2,3.753740549E0,-1.097946644E1,-1.764108539E0
8.350188859E2,7.514659405E0,-1.099382401E1,1.959123492E0
8.355188859E2,1.006780148E0,-1.182413292E1,-1.196411322E-3
8.360188859E2,8.773882866E0,-1.223031521E1,-7.112665176E-1
8.365188859E2,6.472585201E-1,-1.308873940E1,-2.123630047E-1
8.370188859E2,6.266204357E0,-9.210572243E0,1.805982947E0
8.375188859E2,5.803791523E0,-4.015156269E0,-2.584248543E0
8.380188859E2,2.190030813E0,-6.304489613E0,-7.764709592E-1
8.385188859E2,4.835296154E0,-4.805984497E0,-1.879562140E0
8.390188859E2,1.927418590E0,-6.974479675E0,-9.206385016E-1
8.395188859E2,3.985246181E0,-7.881958008E0,1.457827210E0
8.400188859E2,2.952743053E0,-1.010728264E1,-6.185446382E-1
8.405188859E2,6.119045734E0,-1.128574753E1,2.196611166E0
8.410188859E2,3.455235958E0,-1.056550884E1,3.553341627E-1
8.415188859E2,4.267599106E0,-1.530568981E1,-2.874378204E0
8.420188859E2,-6.825526357E-1,-1.115414238E1,3.949951887E0
8.425188859E2,-1.265205026E0,-5.222933769E0,3.698107481E0
8.430188859E2,-2.249253243E-1,-5.985047817E0,-2.415554523E0
8.435188859E2,1.183848977E0,-5.843272686E0,-6.137589812E-1
8.440188859E2,4.131208420E0,-7.194021225E0,-4.151547253E-1
8.445188859E2,3.499503136E0,-9.925428391E0,1.265205026E0
8.450188859E2,6.313462734E0,-1.003430176E1,5.282155871E-1
8.455188859E2,5.318048477E0,-1.235175037E1,-4.516452849E-1
8.460188859E2,9.354740143E0,-1.059242725E1,-9.391828775E-1
8.465188859E2,7.406384468E0,-4.220939159E0,-2.200200319E0
8.470188859E2,7.016952634E-1,-5.848058701E0,-1.025324464E0
8.475188859E2,2.844467878E0,-5.994618893E0,-2.965903759E0
8.480188859E2,2.021337032E0,-7.752745152E0,-2.127817631E0
8.485188859E2,4.600201607E0,-9.476774216E0,-9.924231768E-1
8.490188859E2,3.477967739E0,-1.111107159E1,-8.679963946E-1
8.495188859E2,5.603990555E0,-1.056072235E1,8.219345808E-1
8.500188859E2,1.314257860E0,-1.318624783E1,8.243274093E-1
8.505188859E2,8.416753769E0,-1.114875889E1,-2.158325911E0
8.510188859E2,3.590430260E0,-1.016112137E1,-3.767499208E0
8.515188859E2,4.315455437E0,-5.559125423E0,2.196611166E0
8.520188859E2,3.799802303E0,-3.547359467E0,-2.890529871E0
8.525188859E2,1.540977836E0,-6.444469452E0,-1.979462504E0
8.530188859E2,3.202793121E0,-6.921837807E0,-1.832902193E0
8.535188859E2,3.248256683E0,-1.139641571E1,-1.448854089E0
8.540188859E2,6.490531445E0,-1.360439301E1,1.125823021E0
8.545188859E2,1.859821439E0,-1.237268734E1,1.513460279E-1
8.550188859E2,8.684749603E0,-1.369292736E1,-2.739183664E0
8.555188859E2,5.490331650E0,-8.202595711E0,-2.145763636E0
8.560188859E2,2.642872572E0,-6.757331371E0,4.037888348E-1
8.565188859E2,3.424727440E0,-5.196014404E0,-3.769891977E0
8.570188859E2,1.819741607E0,-7.350750923E0,-2.297109842E0
8.575188859E2,4.328018188E0,-9.713663101E0,-2.679961324E-1
8.580188859E2,3.032902777E-1,-1.191625690E1,1.615753531E0
8.585188859E2,6.516852379E0,-1.208554935E1,-3.529413417E-2
8.590188859E2,5.324628353E0,-1.321316624E1,-2.417947292E0
8.595188859E2,6.416353703E0,-9.904491425E0,-2.928814888E0
8.600188859E2,5.174479008E0,-3.257827997E0,-5.372485161E0
8.605188859E2,1.022931710E-1,-5.971288681E0,-2.788834810E0
8.610188859E2,1.734198213E0,-5.694917679E0,-1.958525300E0
8.615188859E2,3.838087559E0,-1.034776115E1,-1.664208174E0
8.620188859E2,7.357331276E0,-1.162313557E1,1.046859860E0
8.625188859E2,2.446661234E0,-1.442393494E1,7.046862841E-1
8.630188859E2,8.529814720E0,-1.159681511E1,-6.448656917E-1
8.635188859E2,3.798605919E0,-6.970890522E0,-2.089532375E0
8.640188859E2,1.743769526E0,-5.910272121E0,1.160518974E-1
8.645188859E2,4.075575352E0,-4.083351612E0,-3.354737282E0
8.650188859E2,1.612762451E0,-8.000402451E0,-2.425125837E0
8.655188859E2,2.432304144E0,-1.052243805E1,-5.186443329E-1
8.660188859E2,1.453639716E-1,-1.199163055E1,-1.633699656E0
8.665188859E2,8.110472679E0,-1.095793152E1,1.375873089E-1
8.670188859E2,6.318846226E0,-1.206102276E1,1.304088384E-1
8.675188859E2,5.377869129E0,-9.821340561E0,2.090130568E0
8.680188859E2,3.467798233E0,-4.261018753E0,-3.906282902E0
8.685188859E2,1.663609982E0,-4.773082733E0,-7.543373108E-1
8.690188859E2,2.193022013E0,-6.438487530E0,-6.999006271E-1
8.695188859E2,3.161516905E0,-8.280363083E0,-1.764108539E0
8.700188859E2,5.463412285E0,-9.773484230E0,2.215753794E0
8.705188859E2,3.726821184E0,-1.246660614E1,3.026322365E0
8.710188859E2,7.865806103E0,-1.110449123E1,2.763111830E0
8.715188859E2,3.345165968E0,-1.373659706E1,5.994020700E-1
8.720188859E2,4.847858906E0,-1.034955597E1,-1.974078715E-1
8.725188859E2,2.441875458E0,-5.795416355E0,-3.259024382E0
8.730188859E2,2.676372051E0,-4.442275047E0,-6.526423693E-1
8.735188859E2,1.627119422E0,-5.410770416E0,-1.497906923E0
8.740188859E2,3.099303484E0,-6.379265308E0,-7.501499057E-1
8.745188859E2,6.538986206E0,-8.541180611E0,5.300102234E-1
8.750188859E2,5.454439163E0,-1.023051357E1,2.566302419E-1
8.755188859E2,9.091529846E0,-1.033699417E1,4.019941986E-1
8.760188859E2,5.687141418E0,-1.109192944E1,-1.926222295E-1
8.765188859E2,1.014556789E1,-9.802796364E0,-2.367697954E0
8.770188859E2,6.361917019E0,-5.923432350E0,-2.547757864E0
8.775188859E2,4.753940582E0,-5.241477966E0,2.027318954E0
8.780188859E2,4.085744858E0,-4.602594376E0,-2.757728100E0
8.785188859E2,3.781856298E0,-6.007779598E0,-5.090730190E-1
8.790188859E2,4.251447678E0,-5.903691769E0,-5.838487148E-1
8.795188859E2,3.686741590E0,-7.494320393E0,-1.424327731E0
8.800188859E2,6.471388817E0,-7.894520283E0,-2.883351147E-1
8.805188859E2,4.746163845E0,-9.700503349E0,-7.453642488E-1
8.810188859E2,6.419344902E0,-8.507082939E0,-2.679961324E-1
8.815188859E2,5.227719307E0,-9.676574707E0,-9.445667267E-1
8.820188859E2,1.164227867E1,-7.149754047E0,2.488535494E-1
8.825188859E2,4.383651257E0,-9.859625816E0,-5.635097623E-1
8.830188859E2,9.110074043E0,-7.950153351E0,-3.188436031E-1
8.835188859E2,3.632304668E0,-1.008455086E1,-2.572284266E-2
8.840188859E2,7.219744205E0,-7.354340553E0,-1.289133191E0
8.845188859E2,4.705485821E0,-6.704689026E0,6.580262445E-3
8.850188859E2,7.931010723E0,-5.136193752E0,1.853241086E0
8.855188859E2,3.667000771E0,3.905086517E0,5.792425632E0
8.860188859E2,2.560320139E0,3.028116941E0,8.531010628E0
8.865188859E2,1.584048629E0,3.710669756E0,1.021555805E1
