"Time (s)","Gyroscope x (rad/s)","Gyroscope y (rad/s)","Gyroscope z (rad/s)"
2.784639070E-1,-5.694786906E-1,1.905898154E-1,1.072067693E-1
7.825721880E-1,-1.481347084E-1,3.150535226E-1,-1.954767294E-2
1.286680730E0,-1.299614757E-1,1.450803876E-2,3.072649837E-1
1.790789584E0,-2.011577606E0,-2.205374479E0,-1.892153621E-1
2.294898802E0,2.110537887E-1,-7.846558094E-1,-1.533270627E-1
2.799008438E0,1.734855920E-1,-2.535088919E-2,3.985892609E-2
3.303118594E0,-1.834121495E-1,3.741546720E-2,-1.818849891E-1
3.807228959E0,2.420551628E-1,-2.052505612E-1,2.840521336E-1
4.311339740E0,-1.059850380E-1,1.861610413E-1,-2.394589931E-1
4.815450625E0,7.055488229E-2,-2.580903769E-1,2.609919906E-1
5.319561511E0,-2.507599890E-1,5.254964232E-1,-5.436696485E-2
5.823672344E0,-1.539379209E-1,-4.303542376E-1,-1.774562150E-1
6.327783177E0,-2.370155305E-1,4.305069447E-1,2.470948100E-1
6.831894115E0,-4.764745384E-2,-4.471530318E-1,-4.291325212E-1
7.336005157E0,-4.581485991E-4,2.165515572E-1,8.643736839E-1
7.840116198E0,-6.230821013E-1,7.956513762E-2,-8.703296185E-1
8.344227240E0,6.117810607E-1,-2.942841053E-1,7.484620810E-1
8.848338177E0,-5.424479246E-1,-1.705839932E-1,-8.272636533E-1
9.352449167E0,3.558287323E-1,-1.044578776E-1,7.246383429E-1
9.856560209E0,-1.479819864E-1,2.438877672E-1,-2.892444730E-1
1.036067146E1,3.252854943E-2,-2.116646469E-1,3.155116439E-1
1.086478286E1,-4.581485991E-4,2.930623889E-1,-2.034179717E-1
1.136889443E1,1.458439678E-1,-9.300415963E-2,1.942549944E-1
1.187300604E1,-2.273944169E-1,1.765399277E-1,-1.244636998E-1
1.237711771E1,1.690568328E-1,-3.704894781E-1,1.832594350E-2
1.288122938E1,-2.675587833E-1,1.834121495E-1,1.957821548E-1
1.338534089E1,-6.123919412E-2,-2.356410921E-1,-1.640172005E-1
1.388945229E1,1.437059343E-1,1.812741160E-1,2.547306120E-1
1.439356370E1,-4.123337269E-1,-5.192350596E-2,-2.626718581E-1
1.489767505E1,4.856374860E-1,6.322450191E-2,6.126973629E-1
1.540178630E1,-5.184714794E-1,6.719512492E-2,-5.114465356E-1
1.590589745E1,1.774562150E-1,1.027780026E-1,4.993819594E-1
1.641000854E1,5.833758786E-2,-2.958112657E-1,-1.974620372E-1
1.691411948E1,1.153007299E-1,-1.175914705E-1,1.750127524E-1
1.741823021E1,-2.163988501E-1,1.585194170E-1,-3.286452591E-1
1.792234078E1,6.734783947E-2,-3.949240744E-1,2.855792940E-1
1.842645120E1,-1.519526094E-1,3.640754223E-1,-3.578140438E-1
1.893056141E1,-1.175914705E-1,-3.958403766E-1,1.744018942E-1
1.943467141E1,-2.142608166E-1,4.182896614E-1,5.100720748E-2
1.993878120E1,-1.728747338E-1,-3.142899275E-1,-6.261363626E-2
2.044289078E1,5.131264031E-2,1.505781710E-1,-2.244928107E-2
2.094700016E1,-2.751945853E-1,-6.108647957E-2,1.649334840E-2
2.145110927E1,2.716821134E-1,-6.200277433E-2,5.158752799E-1
2.195521823E1,-3.996582925E-1,-1.099556610E-1,-3.755291104E-1
2.245932719E1,2.516762912E-1,3.350593448E-1,6.091849208E-1
2.296343599E1,-4.692968726E-1,5.894844979E-2,-5.161807537E-1
2.346754469E1,7.223475724E-2,1.609628648E-1,5.094612241E-1
2.397165318E1,1.305723488E-1,-1.980729103E-1,-3.278816640E-1
2.447576151E1,1.177441850E-1,-4.190532267E-1,-1.004872546E-1
2.497986969E1,-1.296560466E-1,4.564687014E-1,-1.527161989E-2
2.548397776E1,2.046396956E-2,-2.904661894E-1,-1.398880333E-1
2.598808589E1,4.108065739E-2,1.837175786E-1,5.864302069E-2
2.649219401E1,-1.988364905E-1,-2.466366589E-1,-5.955931544E-2
2.699630224E1,-5.696314201E-2,2.832885385E-1,5.296197534E-1
2.750041036E1,-5.665770769E-1,-2.405280024E-1,-3.466657698E-1
2.800451839E1,4.176788032E-1,1.427896470E-1,6.012436748E-1
2.850862625E1,-7.971785665E-1,-6.108647957E-2,-4.393644929E-1
2.901273396E1,6.870701313E-1,-3.092502952E-1,4.679224193E-1
2.951684151E1,-1.490510106E-1,2.435823381E-1,-2.625191510E-1
3.002094896E1,7.696896046E-2,-4.896081090E-1,2.272416949E-1
3.052505620E1,-9.132428467E-2,3.538434207E-1,-1.525634825E-1
3.102916318E1,-3.359756246E-2,-4.634936452E-1,2.550360374E-2
3.153326990E1,-6.582067907E-2,1.472184062E-1,-2.596175373E-1
3.203737636E1,7.971785218E-2,-3.419315517E-1,-8.552107029E-3
3.254148250E1,2.631300092E-1,5.558869243E-1,9.957095981E-2
3.304558839E1,-2.848156989E-1,-3.086394370E-1,-2.614501119E-1
3.354969406E1,-2.745837271E-1,1.072067693E-1,4.610501826E-1
3.405379964E1,-2.519817352E-1,-2.454149276E-1,-5.436696410E-1
3.455790495E1,5.849030241E-2,1.012508348E-1,8.399390578E-1
3.506201005E1,-3.365865052E-1,-1.401934624E-1,-1.035110354E0
3.556611500E1,1.908952445E-1,1.084284950E-2,1.054810762E0
3.607021974E1,-3.836230934E-1,-3.405570984E-2,-6.270527244E-1
3.657432432E1,4.468475878E-1,-6.475166678E-1,4.615083337E-1
3.707842865E1,1.290451884E-1,5.042688847E-1,-1.740964651E-1
3.758253281E1,-3.344484568E-1,-3.648389876E-1,2.179260105E-1
3.808663672E1,1.609628648E-1,7.544180006E-2,-4.718930274E-2
3.859074047E1,-1.794415265E-1,-2.287688553E-1,-1.828012913E-1
3.909484391E1,-2.594648004E-1,5.844448805E-1,2.935205400E-1
3.959894698E1,-1.527161949E-4,-4.250091612E-1,-3.630063832E-1
4.010304979E1,-1.737910360E-1,2.977965772E-1,6.267472506E-1
4.060715203E1,-2.857320011E-1,-2.292270064E-1,-8.150463104E-1
4.111125380E1,3.106247485E-1,-1.169806048E-1,1.161101222E0
4.161535578E1,-4.586067200E-1,1.603520103E-2,-1.103527188E0
4.211945859E1,6.093376130E-2,-4.918988645E-1,6.947059631E-1
4.262356234E1,5.513054505E-2,3.988946974E-1,-5.009090900E-1
4.312766667E1,-3.972148299E-1,-7.012727857E-1,-1.168278903E-1
4.363177136E1,-2.460257858E-1,7.909171581E-1,2.115119249E-1
4.413587615E1,-3.506363928E-1,-3.704894781E-1,-4.798342884E-1
4.463998089E1,-2.774853408E-1,4.114174247E-1,6.626355648E-1
4.514408552E1,-2.816086709E-1,-2.269362658E-1,-1.056796074E0
4.564818990E1,-8.109229803E-2,-9.483675659E-2,1.471878648E0
4.615229417E1,-2.063195854E-1,-2.072358727E-1,-1.476612926E0
4.665639812E1,3.455967605E-1,-4.506655037E-1,1.118646145E0
4.716050188E1,-1.611155868E-1,2.435823381E-1,-7.809906006E-1
4.766460536E1,-3.061959743E-1,-2.460257858E-1,-2.840521187E-2
4.816870849E1,1.091920808E-1,2.449567765E-1,5.061014891E-1
4.867281136E1,-3.341430426E-1,-2.741255760E-1,-8.483384848E-1
4.917691391E1,-3.912588954E-1,3.008508980E-1,1.120936871E0
4.968101609E1,-2.622137070E-1,-2.496909797E-1,-1.578932762E0
5.018511807E1,4.656316638E-1,-1.682932526E-1,1.553123713E0
5.068921984E1,-6.415607333E-1,-7.925970852E-2,-1.326951027E0
5.119332099E1,2.999345958E-1,-7.849612087E-2,1.082147002E0
5.169742193E1,-3.048215210E-1,1.566868126E-1,-8.628464937E-1
5.220152250E1,5.192350596E-2,-1.333212405E-1,2.147189677E-1
5.270562266E1,-8.933897316E-2,1.194240674E-1,4.920515716E-1
5.320972255E1,-1.140789986E-1,-1.343902480E-2,-1.177289128E0
5.371382224E1,-6.076577306E-1,8.567378670E-2,1.495244265E0
5.421792172E1,1.814268380E-1,-2.791652083E-1,-1.066111803E0
5.472202099E1,7.757982612E-2,1.304196268E-1,3.675878942E-1
5.522612016E1,-3.930914998E-1,-2.310595959E-1,-4.876227975E-1
5.573021917E1,2.394589931E-1,-1.007926911E-1,8.107702732E-1
5.623431807E1,-2.707658112E-1,-2.017380893E-1,-7.463240623E-1
5.673841672E1,4.818195999E-1,-9.712749720E-2,8.811724186E-1
5.724251526E1,-4.659371078E-1,-5.497783050E-2,-6.727148294E-1
5.774661472E1,1.446222365E-1,-1.811214089E-1,3.872882724E-1
5.825071279E1,2.069304436E-1,1.840230078E-1,-7.131846249E-2
5.875481050E1,-3.080285788E-1,-2.530507445E-1,-2.596175298E-2
5.925890784E1,5.177079141E-2,1.711948514E-1,1.475238502E-1
5.976300482E1,-8.597921580E-2,-5.380191803E-1,-2.759581506E-1
6.026710149E1,-6.979130208E-2,3.631591201E-1,2.069304436E-1
6.077119779E1,-1.934914142E-1,1.284343153E-1,-3.961458206E-1
6.127529378E1,-1.629481763E-1,1.165224537E-1,4.196641147E-1
6.177938946E1,-1.159115955E-1,-2.597702444E-1,-4.592176080E-1
6.228348477E1,-8.552107029E-3,6.246092543E-2,6.258309484E-1
6.278757967E1,-3.785834610E-1,-6.352993846E-2,-4.615083337E-1
6.329167425E1,2.365573794E-1,-3.390299529E-2,7.209731340E-1
6.379576857E1,-3.530798554E-1,9.483675957E-1,-7.718276381E-1
6.429986264E1,5.048797131E-1,-6.369792223E-1,3.373500705E-1
6.480395659E1,-1.166751757E-1,4.986183643E-1,-1.009454057E-1
6.530805040E1,-9.712749720E-2,-4.634936452E-1,8.552107029E-3
6.581214394E1,-2.220493406E-1,1.678351015E-1,-1.253799945E-1
6.631623722E1,2.008218020E-1,-4.566214085E-1,1.731801629E-1
6.682033024E1,-8.460476995E-2,-3.756818548E-2,-7.299833745E-2
6.732442295E1,-1.786779426E-2,-1.626427472E-1,-1.302669197E-1
6.782851540E1,-8.857539296E-2,1.983783394E-1,4.949531853E-1
6.833260758E1,1.253799945E-1,-3.903425932E-1,-1.751654744E-1
6.883669956E1,-6.307178736E-2,2.922987938E-1,3.469711840E-1
6.934079118E1,-5.404626131E-1,1.970038861E-1,-6.734784245E-1
6.984488237E1,3.889681399E-1,-1.461493969E-1,5.064069033E-1
7.034897336E1,-5.239692926E-1,-8.811724186E-2,-4.386008978E-1
7.085306425E1,4.630354941E-1,-9.651663154E-2,5.302306414E-1
7.135715503E1,-3.596466482E-1,4.184423760E-2,-4.259254634E-1
7.186124571E1,2.799287736E-1,-1.716530025E-1,4.557051361E-1
7.236533623E1,-1.137735620E-1,1.165224537E-1,-5.371028781E-1
7.286942654E1,-1.404988952E-2,-5.309942365E-1,1.872300506E-1
7.337351659E1,1.479819864E-1,3.020726442E-1,-4.184423685E-1
7.387760638E1,-2.054032832E-1,-2.394589931E-1,4.265363216E-1
7.438169597E1,-4.225656986E-1,6.316341758E-1,-2.854265571E-1
7.488578529E1,-1.725693047E-1,-3.037525117E-1,-1.172860414E-1
7.538987441E1,-3.827067912E-1,5.482511520E-1,4.254673123E-1
7.589396331E1,7.406735420E-2,-1.615737379E-1,-4.998401105E-1
7.639805217E1,-3.824013472E-1,2.409861535E-1,7.938187718E-1
7.690214092E1,-1.082757786E-1,-1.449276656E-1,-1.081230640E0
7.740622951E1,3.272708058E-1,-8.689551800E-2,1.180801630E0
7.791031805E1,-6.203331947E-1,2.550360374E-2,-1.321453214E0
7.841440664E1,4.228711426E-1,1.221729559E-3,8.842267394E-1
7.891849529E1,-3.770562708E-1,-1.275180280E-1,-4.622719288E-1
7.942258378E1,3.590357602E-1,-4.650208056E-1,4.905244112E-1
7.992667211E1,-3.824013472E-1,2.712239623E-1,-4.502073526E-1
8.043076029E1,2.965748608E-1,-5.528326333E-2,7.177661173E-3
8.093484831E1,-1.748600453E-1,2.315177470E-1,4.963276163E-2
8.143893618E1,-2.076940238E-2,-3.917170465E-1,-4.825831577E-2
8.194302415E1,5.787943676E-2,4.555523992E-1,3.988946974E-1
8.244711222E1,-3.295615613E-1,-2.319758981E-1,-4.668534100E-1
8.295120024E1,1.831067204E-1,-2.015853859E-2,7.667880058E-1
8.345528826E1,-2.701549530E-1,-3.306305707E-1,-5.829176903E-1
8.395937618E1,3.720166385E-1,1.188132018E-1,3.772090077E-1
8.446346404E1,3.972148299E-1,-1.426369250E-1,-3.100138903E-1
8.496755164E1,-3.761399984E-1,-2.834412456E-1,-2.368628234E-1
8.547163894E1,2.501491308E-1,1.669187993E-1,6.337722391E-2
8.597572597E1,-3.191768378E-2,-1.641699076E-1,-4.734202102E-2
8.647981284E1,2.791652083E-1,-3.860665262E-1,1.829539984E-1
8.698389967E1,-7.748819590E-1,5.409207344E-1,5.757400393E-2
8.748798628E1,6.017018110E-2,3.109301627E-1,1.748600453E-1
8.799207269E1,1.059850380E-1,-8.881973624E-1,-1.947131455E-1
8.849615873E1,3.816377819E-1,-4.447095692E-1,-7.452550530E-2
8.900024446E1,-6.876810193E-1,9.871574640E-1,4.586067200E-1
8.950432987E1,1.751654744E-1,3.665188700E-2,9.590577334E-2
9.000841498E1,2.167042792E-1,7.589995116E-2,-5.436696485E-2
9.051249956E1,-2.028071135E-1,-5.545125008E-1,-1.180496216E-1
9.101658368E1,-2.183841541E-2,5.674933791E-1,-2.519817278E-2
9.152066727E1,-9.147699922E-2,-2.727511227E-1,1.113301069E-1
9.202475050E1,-1.779143661E-1,2.512181401E-1,-2.306014486E-2
9.252883331E1,-1.082757786E-1,-5.148062706E-1,4.123337101E-3
9.303291576E1,-9.636391699E-2,5.364919901E-1,2.394589931E-1
9.353699800E1,-2.797760665E-1,-1.850920320E-1,-1.250745654E-1
9.404107998E1,5.331322551E-1,-1.319467872E-1,3.191768527E-1
9.454516165E1,-6.209440231E-1,4.384481907E-1,-4.300487936E-1
9.504924300E1,-6.459894776E-2,1.933387071E-1,4.587594569E-1
9.555332420E1,-1.901316643E-1,4.382954910E-2,-4.075995386E-1
9.605740508E1,-8.857538924E-3,9.514218569E-2,4.538725317E-1
9.656148566E1,1.111773923E-1,4.123337101E-3,-4.604393244E-1
9.706556581E1,4.092793912E-2,-3.530798554E-1,-8.093958721E-3
9.756964519E1,-4.314232469E-1,2.280052751E-1,4.077522457E-2
9.807372420E1,-2.535088919E-2,-4.185950756E-1,-6.131555438E-1
9.857780347E1,-2.238819450E-1,1.879936308E-1,9.022472501E-1
9.908188347E1,-2.243400961E-1,8.460476995E-2,-7.415898442E-1
9.958596414E1,5.203040838E-1,-1.956294477E-1,7.379246354E-1
1.000900453E2,-6.510291100E-1,4.703658819E-2,-6.229293346E-1
1.005941271E2,4.549415410E-1,-3.538434207E-1,7.435751557E-1
1.010982091E2,-4.051560760E-1,3.055851161E-1,-7.641918659E-1
1.016022911E2,-6.795870513E-2,-4.938841760E-1,2.338084877E-1
1.021063730E2,-6.108647678E-3,2.141081095E-1,-3.176496923E-2
1.026104546E2,-2.895499170E-1,-1.272125840E-1,5.451968312E-2
1.031145358E2,2.325867712E-1,3.685041666E-1,1.064431891E-1
1.036186165E2,-1.748600453E-1,-2.774853408E-1,-3.611738086E-1
1.041226969E2,-3.361283541E-1,1.950185746E-1,1.870773435E-1
1.046267770E2,-2.739728391E-1,-4.980075061E-1,-4.544833899E-1
1.051308567E2,-1.189659163E-1,2.971857190E-1,9.164499044E-1
1.056349363E2,-5.940660089E-2,-2.151771188E-1,-7.742711306E-1
1.061390161E2,4.622719288E-1,-3.839285076E-1,9.007201195E-1
1.066430960E2,-2.802342176E-1,3.329212964E-2,-6.830995679E-1
1.071471759E2,1.499672979E-1,-3.353647590E-1,2.748891413E-1
1.076512556E2,-1.756236255E-1,9.804379940E-2,-4.268417656E-1
1.081553349E2,-4.123337101E-3,-3.720166385E-1,-3.726275265E-2
1.086594138E2,2.247982323E-1,2.524398565E-1,-8.842267841E-2
1.091634924E2,-3.371973634E-1,-2.849684060E-1,-1.646280587E-1
1.096675707E2,-4.106538594E-1,5.626064539E-1,3.836230934E-1
1.101716487E2,3.833176568E-2,-6.992874742E-1,-6.178897023E-1
1.106757264E2,-3.491092324E-1,-8.689551800E-2,5.829176903E-1
1.111798038E2,-8.353576064E-2,7.055488229E-2,-4.683805704E-1
1.116838808E2,2.609919906E-1,7.192932814E-2,7.628173828E-1
1.121879574E2,-7.316632867E-1,9.957095981E-2,-7.754928470E-1
1.126920336E2,8.048143238E-2,-4.581485689E-2,4.754055142E-1
1.131961097E2,5.070177838E-2,-6.612611562E-2,-2.133445293E-1
1.137001856E2,2.017380893E-1,-5.474875569E-1,6.719512492E-2
1.142042614E2,3.237583488E-2,1.661552191E-1,1.061377525E-1
1.147083370E2,1.664606482E-2,-7.315105945E-2,3.420842811E-2
1.152124123E2,-2.243400961E-1,1.783725172E-1,-3.510945439E-1
1.157164873E2,4.276053514E-3,-1.534797698E-1,2.602283955E-1
1.162205619E2,-1.719584316E-1,2.964221239E-1,-4.242455959E-1
1.167246362E2,7.437278330E-2,-3.358229101E-1,-1.316413581E-1
1.172287102E2,5.390881747E-2,2.605338395E-1,5.540543795E-1
1.177327832E2,-2.218966335E-1,-2.098320574E-1,-4.166097939E-1
1.182368565E2,1.145371422E-2,3.726275265E-2,3.135263622E-1
1.187409294E2,-3.769035637E-1,-2.107483521E-2,-2.910770774E-1
1.192450020E2,2.674060464E-1,3.176496923E-2,6.785180569E-1
1.197490742E2,-6.007854939E-1,1.904370934E-1,-4.479165971E-1
1.202531460E2,4.465421438E-1,-2.405280024E-1,3.489564955E-1
1.207572176E2,-3.685041666E-1,1.582139730E-1,-1.817322671E-1
1.212612890E2,2.761108875E-1,-4.775435328E-1,2.041815519E-1
1.217653601E2,-4.382954910E-2,7.987056673E-2,-7.208204269E-2
1.222694309E2,4.886918236E-3,-1.925751269E-1,6.215549260E-2
1.227735016E2,-1.099556610E-1,2.602283955E-1,1.114828233E-2
1.232775721E2,4.734202102E-2,-4.262309074E-1,-1.098029464E-1
1.237816424E2,-8.384118974E-2,2.249509543E-1,1.033888608E-1
1.242857125E2,-9.498947114E-2,-4.628827870E-1,-5.635227636E-2
1.247897825E2,-5.864302069E-2,4.158461988E-1,3.481929377E-2
1.252938522E2,-2.163988501E-1,-1.563813835E-1,-8.842267841E-2
1.257979216E2,-3.359756246E-2,1.156061590E-1,2.408334464E-1
1.263019906E2,-2.761108875E-1,-6.826414168E-2,-3.816377819E-1
1.268060592E2,1.615737379E-1,2.043342739E-1,5.316050649E-1
1.273101275E2,-4.086685479E-1,2.779434808E-2,-5.943714380E-1
1.278141954E2,5.436696485E-2,-1.056796089E-1,9.028581381E-1
1.283182629E2,1.908952370E-2,3.405570984E-2,-5.772672296E-1
1.288223301E2,3.158170879E-1,-2.696968019E-1,3.943132162E-1
1.293263969E2,-2.432768941E-1,-2.138026804E-2,-3.266599476E-1
1.298304634E2,1.328630894E-1,-1.482874304E-1,4.886918142E-2
1.303345295E2,5.696314201E-2,2.029598206E-1,1.062904745E-1
1.308385953E2,-2.124282271E-1,-1.409570426E-1,-1.539379209E-1
1.313426607E2,1.498145908E-1,1.061377525E-1,1.660024971E-1
1.318467259E2,-3.159697950E-1,-3.513999581E-1,-1.948658675E-1
1.323507908E2,-1.681405306E-1,4.031707644E-1,4.008800089E-1
1.328548554E2,-4.265363216E-1,-6.383536756E-2,-6.087267399E-1
1.333589196E2,1.174387559E-1,-2.504545636E-2,8.804088831E-1
1.338629834E2,-3.869828284E-1,-1.679878123E-2,-9.903645515E-1
1.343670467E2,3.990474045E-1,-1.004872546E-1,1.183855891E0
1.348711096E2,-5.155698657E-1,9.056070447E-2,-7.782417536E-1
1.353751723E2,3.610210717E-1,-5.699368119E-1,5.523744822E-1
1.358792347E2,1.710421406E-2,1.687513888E-1,1.915061027E-1
1.363832970E2,-4.071413875E-1,-3.375027776E-1,-2.504545450E-1
1.368873592E2,3.243691921E-1,2.081521749E-1,6.414080411E-2
1.373914213E2,-2.519817278E-2,-4.413498193E-2,-3.851502538E-1
1.378954832E2,-4.723511934E-1,5.137372613E-1,-2.397644334E-2
1.383995451E2,5.283980444E-2,-1.785252392E-1,1.171333194E-1
1.389036068E2,-1.084285006E-1,1.305723488E-1,2.034179717E-1
1.394076684E2,-3.778198659E-1,2.003636509E-1,-1.887572110E-1
1.399117299E2,5.691732764E-1,-7.185297012E-1,6.588176489E-1
1.404157914E2,-2.519817352E-1,1.751654744E-1,-4.584540129E-1
1.409198527E2,1.464548260E-1,-2.756527364E-1,2.128863782E-1
1.414239138E2,1.644753367E-1,3.663661480E-1,-2.240346521E-1
1.419279746E2,-3.054323792E-1,-2.715294063E-1,-8.765909821E-2
1.424320351E2,-2.965748608E-1,2.208276242E-1,2.058614343E-1
1.429360954E2,-5.253437161E-2,-3.240637779E-1,-4.489856064E-1
1.434401554E2,-1.214093715E-1,-5.955931544E-2,7.640390992E-1
1.439442153E2,-2.562577724E-1,1.148425788E-1,-6.653844714E-1
1.444482750E2,3.584249020E-1,-2.228129357E-1,6.743947268E-1
1.449523345E2,-5.253437161E-1,-2.449567765E-1,-6.071996093E-1
1.454563938E2,5.322159529E-1,-1.098029464E-1,5.534434915E-1
1.459604527E2,1.634063274E-1,2.622137070E-1,-3.546070158E-1
1.464645112E2,-3.048215210E-1,-4.227184355E-1,2.316704690E-1
1.469685693E2,-1.398880333E-1,-2.840521187E-2,-1.889099330E-1
1.474726273E2,-2.215912044E-1,-8.613193035E-2,-2.738201320E-1
1.479766852E2,-6.658425927E-2,2.730565667E-1,6.215549111E-1
1.484807428E2,-2.425133139E-1,-2.339612097E-1,-7.286089659E-1
1.489848003E2,3.097084463E-1,4.444041103E-2,8.616247773E-1
1.494888575E2,-1.950185746E-1,2.084576041E-1,-5.418370366E-1
1.499929144E2,1.114828214E-1,-3.649916947E-1,3.552178741E-1
1.504969711E2,5.513054505E-2,2.907716334E-1,-4.074468017E-1
1.510010277E2,7.559451461E-2,-4.514290690E-1,-1.565341055E-1
1.515050842E2,-3.715584874E-1,2.254091054E-1,2.661843300E-1
1.520091405E2,4.108065739E-2,-3.694204688E-1,-4.776962698E-1
1.525131969E2,-2.690859437E-1,1.165224537E-1,5.748237371E-1
1.530172537E2,-1.319467872E-1,-2.412915789E-2,-5.864301920E-1
1.535213106E2,2.900080681E-1,-3.254382014E-1,7.896954417E-1
1.540253679E2,-4.437932670E-1,1.878409237E-1,-6.747001410E-1
1.545294256E2,2.484692484E-1,-2.238819450E-1,6.104066372E-1
1.550334835E2,1.044578776E-1,2.962694131E-2,-2.820668221E-1
1.555375415E2,-1.831067204E-1,-1.146898642E-1,6.169734150E-2
1.560415996E2,1.276707351E-1,1.463021189E-1,1.036942974E-1
1.565456577E2,1.168278903E-1,-2.959639728E-1,-4.440986812E-1
1.570497156E2,-1.986837685E-1,2.637408674E-1,1.238528341E-1
1.575537734E2,-3.106247485E-1,-3.481929377E-2,-3.550651670E-1
1.580578308E2,1.411097646E-1,-6.294961572E-1,6.728675365E-1
1.585618880E2,-4.002691507E-1,3.330740333E-1,-4.156934917E-1
1.590659450E2,2.020435184E-1,4.627300799E-2,5.232056975E-1
1.595700016E2,-5.955931731E-3,-2.748891478E-3,-1.627954692E-1
1.600740580E2,6.688969582E-2,-2.217439115E-1,7.666353136E-2
1.605781141E2,1.802051067E-1,1.099556591E-2,-1.081230640E-1
1.610821698E2,-8.994983882E-2,-2.547306120E-1,-2.397644334E-2
1.615862253E2,-5.207622424E-2,1.346956789E-1,1.273653060E-1
1.620902806E2,-2.813032269E-1,-1.052214578E-1,-1.737910360E-1
1.625943359E2,1.374445739E-3,2.857320011E-1,4.103484154E-1
1.630983914E2,-6.068941355E-1,2.078467458E-1,-3.440696001E-1
1.636024469E2,6.159043908E-1,-1.882990748E-1,4.497492015E-1
1.641065022E2,-1.380554438E-1,-1.828012913E-1,-3.503309488E-1
1.646105575E2,8.674279600E-2,-3.588830680E-2,5.497783050E-2
1.651146126E2,6.429351866E-2,-6.760746241E-1,-6.447677612E-1
1.656186674E2,-2.275471389E-2,3.307832778E-1,5.041161776E-1
1.661227219E2,-2.580903657E-2,7.295252681E-1,-1.660024971E-1
1.666267762E2,5.406153202E-2,-5.752819180E-1,-2.241873741E-1
1.671308303E2,-2.304487377E-1,1.543960720E-1,6.204859018E-1
1.676348841E2,-4.389063418E-1,-6.841685623E-2,-6.856957078E-1
1.681389378E2,1.881463528E-1,3.645335436E-1,9.268345833E-1
1.686429912E2,-4.935787320E-1,-2.348775119E-1,-7.916807532E-1
1.691470443E2,5.723803043E-1,-3.975202441E-1,6.847794056E-1
1.696510972E2,3.878991306E-2,-2.431241870E-1,-4.043924809E-1
1.701551499E2,-3.017672002E-1,-2.046396956E-2,1.670715213E-1
1.706592023E2,-2.916879393E-2,2.583957911E-1,-1.715002805E-1
1.711632545E2,-6.078104675E-2,-2.674060464E-1,-1.521053314E-1
1.716673064E2,-4.069886506E-1,2.225074917E-1,2.901607752E-2
1.721713578E2,1.380554438E-1,-1.583666950E-1,-1.658497900E-1
1.726754089E2,1.110246703E-1,5.696314201E-2,8.014546037E-1
1.731794596E2,-3.489564955E-1,1.634063274E-1,-3.998109996E-1
1.736835100E2,3.481929302E-1,-3.260490894E-1,5.616901517E-1
1.741875601E2,-4.602866173E-1,1.444695145E-1,-6.238456368E-1
1.746916101E2,1.713475734E-1,-3.544542789E-1,4.033234715E-1
1.751956597E2,2.215912044E-1,1.876882017E-1,-3.346011937E-1
1.756997090E2,-3.656025827E-1,-2.336557806E-1,1.360701323E-1
1.762037580E2,1.009454057E-1,4.016435891E-2,4.703658819E-2
1.767078065E2,-8.124501258E-2,-2.764163017E-1,-5.787943676E-2
1.772118546E2,-3.095557392E-1,-1.985310577E-3,-1.026252806E-1
1.777159022E2,-1.721111536E-1,-7.712167501E-2,-2.351829410E-1
1.782199497E2,3.975202441E-1,7.559451461E-2,6.284271479E-1
1.787239972E2,-3.746128380E-1,2.150243968E-1,-2.583957911E-1
1.792280445E2,1.592829973E-1,-3.671297431E-1,2.985601723E-1
1.797320916E2,7.788526267E-2,-4.948004708E-2,-2.475529462E-1
1.802361383E2,-2.858847082E-1,-7.024945319E-2,-2.055560052E-1
1.807401845E2,-4.276053514E-3,2.942841053E-1,1.979201883E-1
1.812442304E2,-2.719875574E-1,-1.637117565E-1,-4.486801922E-1
1.817482758E2,-2.079994529E-1,1.475238502E-1,5.896372199E-1
1.822523209E2,-2.025016695E-1,-1.175914705E-1,-7.076868415E-1
1.827563656E2,1.481347084E-1,1.574503928E-1,8.755219579E-1
1.832604097E2,-2.852738500E-1,1.802051067E-2,-8.155044913E-1
1.837644536E2,2.142608166E-1,-9.941824526E-2,8.675807118E-1
1.842684970E2,-6.185005978E-2,-9.987638891E-2,-5.711585879E-1
1.847725400E2,2.095266134E-1,-5.122101307E-1,1.899789423E-1
1.852765827E2,4.276053514E-3,5.115992427E-1,1.634063199E-2
1.857806251E2,-2.567159235E-1,-5.042688847E-1,-2.735147178E-1
1.862846673E2,-1.371391416E-1,5.320632458E-1,1.542433500E-1
1.867887092E2,-1.117882580E-1,-4.494437575E-1,-5.221366882E-1
1.872927507E2,-2.739728391E-1,4.190532267E-1,8.124501705E-1
1.877967917E2,6.566796452E-3,-2.736674249E-1,-1.044273376E0
1.883008324E2,-1.490510106E-1,9.621120244E-2,1.240208268E0
1.888048726E2,-6.123919412E-2,-9.330959618E-2,-1.301447392E0
1.893089125E2,-3.817904973E-3,-1.473711282E-1,1.210581303E0
1.898129520E2,1.282816008E-2,1.230892539E-1,-8.454368711E-1
1.903169911E2,-3.335321844E-1,-7.101303339E-2,4.324922562E-1
1.908210299E2,4.958694875E-1,-4.970912039E-1,-5.986474827E-2
1.913250684E2,-2.052505612E-1,-7.574722916E-2,-4.825831652E-1
1.918291067E2,-2.982547283E-1,6.782126427E-1,5.453495383E-1
1.923331445E2,-5.803215504E-2,-7.703005075E-1,-3.054323839E-3
1.928371821E2,-2.999345958E-1,3.014617562E-1,-4.381427765E-1
1.933412194E2,-9.941824526E-2,2.212857604E-1,4.465421438E-1
1.938452565E2,4.595230222E-1,-5.204567909E-1,7.345648855E-2
1.943492934E2,-8.739947677E-1,4.508182108E-1,-1.730274558E-1
1.948533300E2,6.470585465E-1,-3.361283541E-1,6.452259421E-1
1.953573662E2,-5.448913574E-1,1.278234571E-1,-3.217730224E-1
1.958614022E2,2.583957911E-1,-6.070469022E-1,3.599520624E-1
1.963654378E2,-4.398226365E-2,3.843866587E-1,-4.204276800E-1
1.968694732E2,-3.382663727E-1,-5.222893953E-1,-4.367683083E-2
1.973735086E2,1.379027218E-1,5.784889460E-1,-7.910698652E-2
1.978775438E2,-2.779434808E-2,-8.318451047E-1,9.605848789E-2
1.983815790E2,-2.330449075E-1,3.953822255E-1,-2.420551628E-1
1.988856139E2,-2.802342176E-1,-7.574722916E-2,-8.460476995E-2
1.993896487E2,-1.548542231E-1,2.313650399E-1,6.505709887E-1
1.998936832E2,-2.779434621E-1,-1.145371422E-2,-5.801688433E-1
2.003977174E2,3.181078434E-1,-8.017600328E-2,8.428406715E-1
2.009017515E2,-3.843866587E-1,3.161225095E-2,-7.377719283E-1
2.014057857E2,-4.428769462E-3,-1.076649204E-1,3.640754223E-1
2.019098198E2,2.612974048E-1,9.972367436E-2,-3.329212964E-2
2.024138537E2,-2.881754637E-1,-2.290742937E-3,-2.218966335E-1
2.029178876E2,-1.612683088E-1,4.314232469E-1,3.081812859E-1
2.034219213E2,9.850194305E-2,-8.048143238E-2,-6.444623470E-1
2.039259549E2,-5.777253509E-1,3.136790693E-1,8.759800792E-1
2.044299884E2,3.358229101E-1,-2.448040545E-1,-1.227380037E0
2.049340217E2,1.725693047E-2,-5.155698657E-1,1.255327106E0
2.054380548E2,-2.794706225E-1,-2.443459071E-2,-1.301447392E0
2.059420876E2,3.316995800E-1,-3.536907136E-1,1.211650252E0
2.064461200E2,-5.603157282E-1,1.789833754E-1,-9.825760126E-1
2.069501521E2,2.736674249E-1,-6.000219584E-1,8.437569737E-1
2.074541838E2,2.565632015E-2,3.042106628E-1,-2.336557806E-1
2.079582152E2,2.977965772E-2,-2.070831656E-1,1.719584316E-1
2.084622463E2,-2.556469142E-1,5.729911923E-1,-2.008218020E-1
2.089662772E2,-1.201876476E-1,-5.413789153E-1,-1.533270627E-1
2.094703079E2,-1.398880333E-1,3.639226854E-1,3.970621154E-3
2.099743383E2,3.512472659E-2,-5.236638188E-1,-1.264490038E-1
2.104783684E2,-2.176205814E-1,3.898844421E-1,5.146535859E-2
2.109823984E2,-1.594357044E-1,-1.710421443E-1,-2.689332068E-1
2.114864282E2,-3.339903057E-1,3.182605505E-1,5.024362803E-1
2.119904576E2,-6.307178736E-2,-1.895207912E-1,-6.181951761E-1
2.124944872E2,3.526217043E-1,-4.013381600E-1,6.511818767E-1
2.129985169E2,-4.984656572E-1,2.322813272E-1,-8.098539710E-1
2.135025465E2,2.218966335E-1,-1.771507859E-1,9.075923562E-1
2.140065761E2,-1.299614757E-1,-4.092794061E-1,-7.307469845E-1
2.145106054E2,3.032943606E-1,-1.971566081E-1,-2.151771188E-1
2.150146343E2,-1.334739476E-1,1.672242284E-1,1.992946416E-1
2.155186630E2,1.069013327E-1,-3.680460155E-2,2.641990222E-2
2.160226916E2,-1.325576603E-1,2.577849329E-1,5.849030241E-2
2.165267201E2,-1.798996776E-1,-1.317940801E-1,5.894844979E-2
2.170307486E2,-2.397644334E-2,2.477056682E-1,4.948004708E-2
2.175347770E2,-8.903354406E-2,-2.234237939E-1,-1.710421406E-2
2.180388052E2,4.581485689E-2,2.026543915E-1,1.023198515E-1
2.185428334E2,6.948586553E-2,-2.324340492E-1,3.619373962E-2
2.190468614E2,-9.758564830E-2,2.793179154E-1,3.573558852E-2
2.195508894E2,-1.925751269E-1,-9.758564830E-2,4.688387364E-2
2.200549174E2,1.290451884E-1,1.511890348E-2,2.092211880E-2
2.205589456E2,-2.501491308E-1,-6.475166976E-2,-1.369864196E-1
2.210629737E2,2.156352699E-1,-6.856957078E-2,5.574141070E-2
2.215670018E2,-1.455385387E-1,2.133445293E-1,-2.299905866E-1
2.220710296E2,1.033888608E-1,-2.098320574E-1,7.880155742E-2
2.225750570E2,7.971785218E-2,7.360920310E-2,-1.327103674E-1
2.230790843E2,-1.551596522E-1,6.643154472E-2,4.295906425E-1
2.235831112E2,-1.000291109E-1,2.276998460E-1,1.186604798E-1
2.240871381E2,-8.323032409E-2,-6.688969582E-2,-3.784307241E-1
2.245911645E2,1.922696829E-1,1.496618688E-1,5.771145225E-1
2.250951905E2,-4.095848203E-1,-1.389717404E-2,-4.040870368E-1
2.255992161E2,3.681987524E-1,-3.678933084E-1,2.432768941E-1
2.261032414E2,-2.319758981E-1,5.265654325E-1,-1.715002805E-1
2.266072664E2,1.319467872E-1,-3.669770062E-1,6.001746282E-2
2.271112912E2,-3.924806044E-2,5.940660089E-2,-5.039634556E-2
2.276153158E2,1.055268943E-1,-3.911061883E-1,-1.333212405E-1
2.281193402E2,-5.855138898E-1,7.133373618E-1,2.054032832E-1
2.286233644E2,1.195767820E-1,-5.563451052E-1,-4.463894367E-1
2.291273882E2,5.192350596E-2,-7.559451461E-2,6.922625303E-1
2.296314115E2,-4.291325212E-1,7.345648855E-2,-4.569268525E-1
2.301354345E2,4.280634820E-1,-1.815795600E-1,6.084213257E-1
2.306394573E2,-1.392771751E-1,-1.693622619E-1,-5.766563416E-1
2.311434799E2,7.803797722E-2,-2.661843300E-1,3.993528485E-1
2.316475023E2,-8.093958348E-2,3.448331654E-1,-2.115119249E-1
2.321515244E2,1.232419685E-1,-3.440696001E-1,-1.084285006E-1
2.326555463E2,-1.766926348E-1,-1.554650813E-1,-2.380845547E-1
2.331595678E2,-8.200860023E-2,6.154462695E-2,-3.985892832E-1
2.336635892E2,-2.710712552E-1,2.649625838E-1,8.665117025E-1
2.341676102E2,-1.041524485E-1,-1.313359290E-2,-6.378955245E-1
2.346716311E2,-1.408043355E-1,-2.066250145E-1,6.623301506E-1
2.351756520E2,-1.905898154E-1,-5.009091273E-2,-5.789470673E-1
2.356796729E2,3.153589368E-1,-3.055851161E-1,5.033525825E-1
2.361836940E2,-1.803578287E-1,7.162389904E-2,-2.173151523E-1
2.366877154E2,1.525634825E-1,-3.581194878E-1,2.512181401E-1
2.371917369E2,4.483747482E-1,4.917461425E-2,-3.985892609E-2
2.376957581E2,-3.344484568E-1,-8.796452731E-2,-1.531743407E-1
2.381997795E2,-1.359174121E-2,5.995637774E-1,-6.719512492E-2
2.387038007E2,-2.269362658E-1,-4.570795596E-1,-5.734493136E-1
2.392078218E2,-2.128863782E-1,-5.818486959E-2,4.121810198E-1
2.397118427E2,-1.722638607E-1,-1.453858167E-1,-4.949531853E-1
2.402158635E2,1.579085439E-1,-1.394298822E-1,7.799215913E-1
2.407198840E2,-5.132791400E-1,1.069013327E-1,-6.284271479E-1
2.412239045E2,4.224129915E-1,-4.463894367E-1,7.699950337E-1
2.417279251E2,-2.939786613E-1,-9.712749720E-2,-5.186241865E-1
2.422319459E2,3.025307953E-1,-1.525634825E-1,-3.512472659E-2
2.427359668E2,2.692386508E-1,1.435532235E-2,5.238165334E-2
2.432399880E2,-2.130390853E-1,-3.501782417E-1,-2.018908113E-1
2.437440100E2,-1.110246703E-1,4.253146052E-1,-1.740964688E-2
2.442480331E2,-1.834121495E-1,-3.272708058E-1,5.192350596E-3
2.447520571E2,-4.132500291E-1,4.025598764E-1,4.253146052E-1
2.452560816E2,-1.855501831E-1,-1.708894223E-1,-5.607738495E-1
2.457601064E2,1.624900252E-1,1.343902498E-1,9.874629378E-1
2.462641312E2,-6.359102130E-1,-7.452550530E-2,-9.970840216E-1
2.467681557E2,6.192641854E-1,-3.805687428E-1,8.026763201E-1
2.472721801E2,-1.542433500E-1,3.124573231E-1,-5.668824911E-1
2.477762043E2,-1.333212405E-1,-1.250745654E-1,3.882045746E-1
2.482802282E2,-5.803215317E-3,3.397935331E-1,-2.692386508E-1
2.487842522E2,-1.159115955E-1,-1.850920320E-1,-7.803797722E-2
2.492882766E2,-6.067414284E-1,1.718057245E-1,-1.027780026E-1
2.497923014E2,2.707658112E-1,-4.303542376E-1,-4.025598764E-1
2.502963264E2,-4.783071280E-1,3.413206935E-1,8.684970140E-1
2.508003511E2,2.434296161E-1,-3.601047993E-1,-8.698714375E-1
2.513043756E2,-6.811141968E-2,-3.084867075E-2,9.831868410E-1
2.518084001E2,-3.842339516E-1,9.850194305E-2,-9.963204265E-1
2.523124243E2,9.162971377E-2,-3.573558852E-2,8.491020203E-1
2.528164482E2,-1.049160287E-1,-3.210094273E-1,-7.654135823E-1
2.533204717E2,3.952295184E-1,-7.392991185E-1,8.894191384E-1
2.538244946E2,1.392771751E-1,1.878409274E-2,-3.970620930E-1
2.543285170E2,-3.756818548E-2,-2.168570012E-1,6.979130208E-2
2.548325390E2,-1.069013379E-3,2.596175373E-1,-3.049742281E-1
2.553365651E2,-9.208786488E-2,-3.312414289E-1,5.329795182E-2
2.558405825E2,-1.392771751E-1,3.761399984E-1,-4.219548404E-1
2.563446047E2,6.185005978E-2,-3.578140438E-1,2.703076601E-2
2.568486274E2,-1.931859851E-1,-4.428769462E-3,5.285507441E-1
2.573526505E2,-6.488910913E-1,3.349066079E-1,-2.828303874E-1
2.578566737E2,3.532325625E-1,-1.214093715E-1,7.405208349E-1
2.583606969E2,-5.806269646E-1,2.182314396E-1,-4.805978537E-1
2.588647199E2,4.946477413E-1,-5.485565662E-1,5.494728684E-1
2.593687424E2,-1.650862098E-1,-1.527161920E-3,-5.426006317E-1
2.598727646E2,2.046396956E-2,-4.063777924E-1,3.555232882E-1
2.603767867E2,2.306014486E-2,3.488037884E-1,-2.861901522E-1
2.608808087E2,-1.910479665E-1,-5.859720111E-1,-1.459966749E-1
2.613848311E2,-5.438223481E-1,6.881392002E-1,2.113592178E-1
2.618888542E2,-6.994401664E-2,-6.808087826E-1,-4.459312856E-1
2.623928780E2,1.550069451E-1,3.878991306E-2,7.031053901E-1
2.628969021E2,-3.917170465E-1,1.635590494E-1,-7.021890879E-1
2.634009264E2,5.294670463E-1,-6.548470259E-1,1.008079648E0
2.639049514E2,-3.350593448E-1,2.168570012E-1,-6.695078015E-1
2.644089771E2,1.557705179E-2,-2.084576041E-1,4.007273018E-1
2.649130035E2,-6.765327603E-2,2.377791107E-1,-3.225366175E-1
2.654170303E2,-3.527744114E-2,-3.164279461E-1,-1.774562150E-1
2.659210577E2,-1.517999023E-1,3.608683646E-1,2.993237376E-1
2.664250857E2,-8.002328873E-2,-4.918988645E-1,-4.905244112E-1
2.669291142E2,-1.197294965E-1,3.623955250E-1,6.969966888E-1
2.674331428E2,-2.790125012E-1,-7.057015300E-1,-7.562506199E-1
2.679371717E2,2.561050653E-1,3.851502538E-1,1.154534459E0
2.684412007E2,-5.534434915E-1,1.768453568E-1,-5.679515004E-1
2.689452298E2,7.055488229E-2,-5.074759126E-1,3.587303460E-1
2.694492586E2,4.274526238E-1,-2.035706937E-1,1.887572110E-1
2.699532870E2,5.299251899E-2,6.307178736E-2,-2.550360560E-1
2.704573154E2,-2.115119249E-1,3.924806118E-1,-2.515235841E-1
2.709613439E2,-7.330377400E-2,-5.971203372E-2,2.579376400E-1
2.714653722E2,-1.725693047E-1,3.164279461E-1,-4.526508152E-1
2.719694001E2,2.564104795E-1,-2.927569449E-1,1.461493969E-1
2.724734278E2,-3.672824502E-1,1.653916389E-1,-9.010255337E-3
2.729774557E2,5.513054505E-2,-3.836230934E-1,-8.521563560E-2
2.734814839E2,-3.147480786E-1,4.350884259E-1,2.438877672E-1
2.739855121E2,-1.267544460E-2,-2.183841541E-2,-1.889099330E-1
2.744895405E2,2.622137070E-1,-9.605848789E-2,4.456258714E-1
2.749935687E2,-3.996582925E-1,1.855501831E-1,-2.912297845E-1
2.754975966E2,4.086685479E-1,-2.693913579E-1,3.316995800E-1
2.760016239E2,1.328630932E-2,-1.114828214E-1,-1.368337125E-1
2.765056508E2,-2.182314396E-1,-2.428187430E-2,4.123337194E-2
2.770096771E2,5.070177838E-2,3.405570984E-2,-1.919642538E-1
2.775137027E2,7.208204269E-2,-3.118464649E-1,2.977965772E-2
2.780177277E2,-6.230820715E-2,5.166388750E-1,2.977965772E-2
2.785217519E2,-9.498947114E-2,-2.506072819E-1,-1.615737379E-1
2.790257753E2,-3.090975881E-1,7.115047574E-1,2.985601723E-1
2.795297981E2,1.562286615E-1,-1.985310465E-1,-6.505709887E-1
2.800338203E2,-2.748891413E-1,-4.138609022E-2,9.547816515E-1
2.805378423E2,-1.185077652E-1,-3.419315517E-1,-1.023503900E0
2.810418639E2,-8.903354406E-2,1.163697392E-1,9.957095981E-1
2.815458853E2,-3.350593448E-1,4.627300799E-2,-9.450078011E-1
2.820499062E2,2.306014597E-1,-6.291907281E-2,8.213077188E-1
2.825539267E2,-2.845102847E-1,1.206457913E-1,-5.652026534E-1
2.830579469E2,9.422589093E-2,-3.031416535E-1,4.645626545E-1
2.835619667E2,-2.761108875E-1,-6.719512399E-3,-6.223185062E-1
2.840659862E2,3.301724195E-1,-2.313650399E-1,4.966330528E-1
2.845700054E2,1.771507785E-2,1.731801629E-1,-2.901607752E-1
2.850740243E2,1.140789986E-1,-1.786779463E-1,4.088212550E-1
2.855780427E2,-9.346231073E-2,2.096793354E-1,-3.054323979E-2
2.860820607E2,-9.575305134E-2,1.527161896E-1,-1.178968996E-1
2.865860785E2,-1.249218509E-1,7.620538026E-2,5.054906011E-2
2.870900961E2,-1.771507859E-1,-6.414080411E-2,-2.000582218E-2
2.875941134E2,4.786125422E-1,-6.902772188E-2,-1.716530025E-1
2.880981303E2,-5.868883133E-1,-6.108647678E-3,-9.789107740E-2
2.886021468E2,2.965748608E-1,-3.396408260E-1,3.240637779E-1
2.891061628E2,-3.617846668E-1,9.529490769E-2,-6.669116020E-1
2.896101783E2,1.982256174E-1,-8.048143238E-2,2.994764447E-1
2.901141935E2,1.122464016E-1,1.463021189E-1,-3.817904973E-3
2.906182084E2,1.055268943E-1,-2.289215773E-1,-1.169806048E-1
2.911222229E2,-1.577558219E-1,5.532907844E-1,4.660898149E-1
2.916262370E2,8.246674202E-3,-6.966912746E-1,-3.084867001E-1
2.921302507E2,-3.061959743E-1,2.266308367E-1,4.048506320E-1
2.926342642E2,-1.679878086E-1,-5.833758786E-2,-5.007563829E-1
2.931382775E2,-3.283398226E-2,9.178243577E-2,8.694133162E-1
2.936422905E2,-2.619082630E-1,7.864884287E-2,-9.433279634E-1
2.941463036E2,9.712749720E-2,-2.104429156E-1,6.988292933E-1
2.946503169E2,1.479819864E-1,9.636391699E-2,-4.653262496E-1
2.951543303E2,-1.464548260E-1,-2.431241870E-1,6.536252797E-2
2.956583438E2,-1.638644785E-1,2.345720828E-1,2.501491308E-1
2.961623573E2,-3.756818548E-2,-2.751945853E-1,-4.164570570E-1
2.966663706E2,-2.107483447E-1,3.546070158E-1,3.141372204E-1
2.971703838E2,8.048143238E-2,-5.364919901E-1,-4.604393244E-1
2.976743966E2,-3.362810612E-1,5.360338464E-2,4.425715208E-1
2.981784093E2,-9.743293375E-2,-1.099556610E-1,-6.244565248E-1
2.986824219E2,3.255909383E-1,1.861610413E-1,8.167262077E-1
2.991864345E2,-2.942841053E-1,8.124501258E-2,-5.755873322E-1
2.996904472E2,1.852447391E-1,-2.356410921E-1,4.613556266E-1
3.001944598E2,8.857538924E-3,-2.321286127E-2,-2.721402645E-1
3.006984721E2,3.359756246E-2,-3.630063832E-1,6.230820715E-2
3.012024843E2,-2.283107042E-1,4.981602132E-1,-5.986474827E-2
3.017064962E2,9.392046183E-2,-4.453204274E-1,-2.953531146E-1
3.022105079E2,-2.440404743E-1,1.408043355E-1,4.138608873E-1
3.027145192E2,-2.116646469E-1,-1.282816082E-1,-4.986183643E-1
3.032185301E2,1.831067204E-1,7.589995116E-2,7.237220407E-1
3.037225412E2,-5.065596104E-1,-1.069013402E-2,-6.786707640E-1
3.042265526E2,1.857028902E-1,-2.411388755E-1,7.733548284E-1
3.047305641E2,-2.958112657E-1,1.582139730E-1,-7.703005075E-1
3.052345759E2,1.275180280E-1,-3.022253513E-1,5.137372613E-1
3.057385881E2,-2.474002354E-2,2.124282271E-1,-4.747946560E-1
3.062426006E2,-1.206457894E-2,-5.267181396E-1,-3.054323792E-1
3.067466131E2,4.973966479E-1,-1.346956789E-1,-1.036942974E-1
3.072506253E2,-2.139553875E-1,-1.472184062E-1,2.151771188E-1
3.077546371E2,-1.039997265E-1,3.481929302E-1,-9.040798992E-2
3.082586486E2,2.130390853E-1,-7.328850031E-1,-1.910479665E-1
3.087626596E2,-4.474584460E-1,9.743293375E-2,5.758927464E-1
3.092666703E2,3.005454838E-1,-1.011286616E0,-6.514872909E-1
3.097706806E2,-1.096502244E-1,-1.751654744E-1,1.048549414E0
3.102746905E2,-1.330158114E-1,-4.769326746E-1,-1.609475970E0
3.107787000E2,7.635809481E-2,-2.382372692E-2,1.180648923E0
3.112827093E2,1.476765573E-1,-8.338304609E-2,-4.024071693E-1
3.117867185E2,8.139773458E-2,-4.989238083E-1,2.383899838E-1
3.122907274E2,1.631008983E-1,1.191186309E-1,-1.250745654E-1
3.127947361E2,1.519526094E-1,-2.826776803E-1,-1.359174121E-2
3.132987444E2,-5.319104791E-1,4.245510101E-1,7.070759684E-2
3.138027524E2,2.955058515E-1,-7.162389755E-1,-2.886336148E-1
3.143067600E2,-3.350593448E-1,4.480693042E-1,4.972439408E-1
3.148107673E2,-3.604102135E-2,-2.979492843E-1,-2.849684060E-1
3.153147745E2,-1.324049383E-1,4.531089365E-1,4.013381600E-1
3.158187816E2,-1.328630932E-2,-3.034470677E-1,-5.404626131E-1
3.163227885E2,5.085449293E-2,1.792888194E-1,7.403681278E-1
3.168267953E2,-4.140135944E-1,2.167042792E-1,-7.875574231E-1
3.173308017E2,1.997527778E-1,-2.325867712E-1,8.999565244E-1
3.178348083E2,-3.040579557E-1,-1.881463528E-1,-4.857902229E-1
3.183388153E2,1.220202371E-1,-2.055560052E-1,6.536252797E-2
3.188428227E2,2.964221239E-1,1.296560466E-1,-4.459312931E-2
3.193468304E2,-3.901898861E-1,-5.314523727E-2,-3.753764033E-1
3.198508383E2,-2.762635946E-1,3.619373739E-1,3.553705812E-1
3.203548460E2,3.191768378E-2,-4.697550237E-1,-2.787070572E-1
3.208588536E2,-3.909534514E-1,1.310304999E-1,3.723220825E-1
3.213628609E2,-1.716530025E-1,-2.379318327E-1,-8.836159110E-1
3.218668682E2,-5.925388262E-2,9.422589093E-2,1.063210130E0
3.223708756E2,-2.499964088E-1,-7.712167501E-2,-9.870047569E-1
3.228748831E2,3.869828284E-1,-1.925751269E-1,1.130710721E0
3.233788905E2,-4.135554433E-1,-3.924806044E-2,-8.940005898E-1
3.238828978E2,2.150243968E-1,-3.465130329E-1,6.830995679E-1
3.243869048E2,-1.070540547E-1,3.413206935E-1,-5.238165259E-1
3.248909117E2,-1.331685185E-1,-1.284343153E-1,1.615737379E-1
3.253949185E2,-1.230892539E-1,2.721402645E-1,-5.818486959E-2
3.258989253E2,-1.290451884E-1,2.023489624E-1,-1.566868126E-1
3.264029321E2,-6.707295179E-1,5.076286197E-1,-1.423314959E-1
3.269069388E2,1.350011230E-1,-2.750418782E-1,-4.005745649E-1
3.274109456E2,-3.294088244E-1,3.579667509E-1,8.045089245E-1
3.279149521E2,2.043342739E-1,-7.693842053E-1,-5.934551358E-1
3.284189582E2,-3.196350038E-1,4.115701318E-1,7.724385262E-1
3.289229640E2,-6.872228533E-2,5.726857483E-2,-2.733619809E-1
3.294269696E2,-2.130390853E-1,2.883281708E-1,2.209803313E-1
3.299309750E2,1.224783882E-1,-5.109884143E-1,-6.966912746E-1
3.304349802E2,-1.162170246E-1,1.626427472E-1,4.193586707E-1
3.309389851E2,3.364337683E-1,-1.621845961E-1,-2.231183648E-1
3.314429898E2,-4.815141559E-1,-2.141081095E-1,7.174606919E-1
3.319469942E2,-2.309068888E-1,2.747364342E-1,-9.097303748E-1
3.324509983E2,-2.000582218E-2,1.895207912E-1,8.591812849E-1
3.329550020E2,-2.391535640E-1,2.718348242E-2,-1.118951559E0
3.334590056E2,-3.512472380E-3,2.179260105E-1,1.449429393E0
3.339630092E2,-2.186895907E-1,1.108719558E-1,-1.591760874E0
3.344670131E2,-2.525925934E-1,-2.716821134E-1,1.119256973E0
3.349710171E2,1.589775532E-1,3.695731983E-2,-7.211259007E-1
3.354750214E2,-4.163043499E-1,3.081812859E-1,5.227475166E-1
3.359790261E2,-8.552107215E-2,-1.834121495E-1,-5.568032265E-1
3.364830310E2,-1.149952933E-1,4.674642682E-1,5.126682520E-1
3.369870362E2,-3.008509055E-2,-4.321868420E-1,-3.077231348E-1
3.374910418E2,1.128572673E-1,1.931859851E-1,4.112647176E-1
3.379950475E2,3.283398151E-1,-3.616319597E-1,-4.219548404E-1
3.384990531E2,3.985892609E-2,-2.142608166E-1,1.849393100E-1
3.390030587E2,2.076940238E-2,7.360920310E-2,9.544762224E-2
3.395070639E2,-1.105665267E-1,2.828303874E-1,-2.932150960E-1
3.400110689E2,1.282816082E-1,-3.503309488E-1,2.780961990E-1
3.405150737E2,2.089157552E-1,-5.604684353E-2,-2.102901936E-1
3.410190783E2,-8.445205539E-2,4.062250629E-2,1.887572110E-1
3.415230827E2,1.050687432E-1,1.817322709E-2,-2.170097083E-1
3.420270869E2,-7.101303339E-2,8.704823442E-3,1.473711282E-1
3.425310908E2,3.787361458E-2,-7.635809947E-3,-8.475748450E-2
3.430350945E2,3.390299529E-2,-1.221729536E-2,-1.343902480E-2
3.435390979E2,2.443459118E-3,8.399390616E-3,3.985892609E-2
3.440431010E2,1.099556591E-2,-1.007926930E-2,-2.000582218E-2
3.445471040E2,-3.359756200E-3,1.374445739E-3,-1.206457894E-2
3.450511068E2,-2.000582218E-2,1.343902480E-2,-9.162971983E-4
3.455551094E2,4.993819445E-2,-1.148425788E-1,3.649916872E-2
3.460591118E2,-3.634645417E-2,2.901607752E-2,-9.086613357E-2
3.465631139E2,4.566214234E-2,-1.145371422E-2,4.153880477E-2
3.470671159E2,2.443459071E-2,-6.307178736E-2,5.131264031E-2
3.475711175E2,5.894844979E-2,-7.635809598E-4,-1.148425788E-1
3.480751188E2,-4.902189970E-2,2.504545636E-2,1.043051630E-1
3.485791200E2,1.404988952E-2,2.138026757E-3,-3.787361458E-2
3.490831209E2,9.773836471E-3,-3.817904973E-3,-4.123337101E-3
3.495871216E2,-1.107192412E-1,1.085812151E-1,9.621120244E-2
3.500911219E2,5.986474827E-2,9.315688163E-3,-7.819069177E-2
3.505951221E2,-4.856374860E-2,2.382372692E-2,6.551524997E-2
3.510991225E2,2.901607659E-3,1.069013379E-3,-3.817904741E-2
3.516031232E2,-3.054323839E-3,1.328630932E-2,1.496618707E-2
3.521071240E2,1.053741761E-2,1.496618707E-2,1.420260593E-2
3.526111247E2,1.933387071E-1,-2.472475171E-1,6.627883017E-2
3.531151252E2,-5.161807314E-2,1.139262840E-1,7.345648855E-2
3.536191258E2,7.880155742E-2,-1.328630932E-2,1.369864196E-1
3.541231267E2,-6.398808211E-2,1.725693047E-2,-8.353576064E-2
3.546271278E2,-3.405570984E-2,6.475166976E-2,-1.527161989E-2
3.551311290E2,-1.786779426E-2,4.031707719E-2,1.649334840E-2
3.556351303E2,2.641990222E-2,3.680460155E-2,-3.023780696E-2
3.561391314E2,9.773836471E-3,1.939495653E-2,-9.621120058E-3
3.566431324E2,1.374445762E-2,2.550360374E-2,-6.414080039E-3
3.571471332E2,1.069013402E-2,3.726275265E-2,-3.512472659E-2
3.576511349E2,-1.710421406E-2,1.252272818E-2,3.054323839E-3
3.581551354E2,8.552107029E-3,1.893680729E-2,-2.596175298E-3
3.586591359E2,-7.483093534E-3,1.313359290E-2,-5.650499370E-3
3.591631359E2,7.788525894E-3,1.710421406E-2,-5.039634649E-3
3.596671355E2,1.771507785E-2,9.926552884E-3,-3.054323897E-4
3.601711348E2,6.566796452E-3,1.527161989E-2,-3.054323839E-3
3.606751337E2,-3.054323839E-3,6.872228812E-3,4.123337101E-3
3.611791323E2,4.581485875E-3,7.177661173E-3,-1.069013379E-3
3.616831307E2,8.399390616E-3,7.330377586E-3,-5.345067009E-3
3.621871291E2,4.734201822E-3,1.679878100E-3,-1.023198478E-2
3.626911273E2,6.108647678E-3,7.941242307E-3,-4.428769462E-3
3.631951255E2,-1.374445739E-3,1.618791744E-2,-1.160643063E-2
3.636991236E2,1.527161920E-3,7.635809947E-3,-9.162971983E-4
3.642031219E2,-4.123337101E-3,8.552107029E-3,-6.719512399E-3
3.647071204E2,9.162971750E-3,1.786779426E-2,-1.985310577E-3
3.652111189E2,9.162971983E-4,1.237001177E-2,-7.330377586E-3
3.657151173E2,-5.497782957E-3,8.552107029E-3,-5.955931731E-3
3.662191158E2,1.542433538E-2,2.932151034E-2,-7.024944760E-3
3.667231144E2,8.246674202E-3,1.740964688E-2,-5.803215317E-3
3.672271130E2,1.985310577E-3,2.092211880E-2,9.315688163E-3
3.677311117E2,-2.244928107E-2,5.161807314E-2,1.908952370E-2
3.682351108E2,-9.193515033E-2,-5.558869615E-2,3.080285788E-1
3.687391102E2,-1.227838174E-1,4.978547990E-2,-1.601992846E-1
3.692431098E2,1.896735132E-1,-4.708240330E-1,-1.530216336E-1
3.697471096E2,-9.040798992E-2,1.649334878E-1,9.162971983E-4
3.702511095E2,-2.996291816E-1,3.787361681E-1,-9.529490769E-2
3.707551096E2,-2.794706225E-1,4.080576599E-1,3.865246773E-1
3.712591099E2,-4.812087417E-1,3.680460155E-1,-4.321868420E-1
3.717631103E2,2.218966335E-1,-4.250091612E-1,4.175260663E-1
3.722671107E2,1.710421406E-2,2.719875574E-1,-2.571740746E-1
3.727711108E2,-9.224057943E-2,-2.510654330E-1,4.703658819E-2
3.732751107E2,-5.589412898E-2,2.516762912E-1,1.985310577E-2
3.737791104E2,2.504545636E-2,-1.884517819E-1,-5.855138898E-1
3.742831097E2,-6.214022040E-1,5.195404887E-1,6.830995679E-1
3.747871091E2,-1.299614757E-1,-4.163043499E-1,-5.560396910E-1
3.752911084E2,-2.809978127E-1,2.441931963E-1,7.064651251E-1
3.757951077E2,-2.315177470E-1,-3.394880891E-1,-8.226821423E-1
3.762991073E2,3.926333487E-1,-3.859138191E-1,8.801034093E-1
3.768031069E2,-1.661552191E-1,1.643226296E-1,-5.280926228E-1
3.773071068E2,-2.932151034E-2,-1.808159798E-1,4.184423685E-1
3.778111066E2,8.628465235E-2,2.084576041E-1,-3.814850450E-1
3.783151064E2,-1.731801629E-1,-3.681987524E-1,1.902843714E-1
3.788191061E2,9.590577334E-2,2.913824916E-1,-2.916879356E-1
3.793231056E2,-1.864664704E-1,-4.439459741E-1,5.259546041E-1
3.798271048E2,-2.660316229E-1,2.797760665E-1,-5.601630211E-1
3.803311038E2,-2.496909797E-1,-1.554650813E-1,8.002328873E-2
3.808351025E2,-4.268417656E-1,2.918406427E-1,1.203403622E-1
3.813391012E2,-3.481929377E-2,-6.765327603E-2,-8.663589954E-1
3.818430999E2,-5.711585656E-2,-4.616610706E-1,2.284634262E-1
3.823470987E2,-1.421787739E-1,4.413498193E-2,8.292489499E-2
3.828510974E2,-3.848448023E-2,-1.771507785E-2,3.463603258E-1
3.833550960E2,4.011854529E-1,-3.260490894E-1,-2.814559340E-1
3.838590944E2,5.997164845E-1,-4.251618981E-1,-1.802051067E-2
3.843630926E2,-1.089324594E0,4.705185890E-1,3.941605091E-1
3.848670910E2,-1.053741761E-2,1.554650813E-1,-7.939714789E-1
3.853710898E2,3.239110410E-1,-3.494146466E-1,8.156571984E-1
3.858750889E2,-2.877173126E-1,3.547597229E-1,-5.080868006E-1
3.863790882E2,-1.542433500E-1,-2.562577724E-1,2.890917659E-1
3.868830875E2,2.281579971E-1,-5.955931544E-2,1.070540547E-1
3.873870867E2,-7.360920310E-2,-1.592829973E-1,-5.436696410E-1
3.878910857E2,-3.814850450E-1,9.010255337E-2,6.629409790E-1
3.883950847E2,3.652971387E-1,2.397644222E-1,-5.882627964E-1
3.888990836E2,-3.277289569E-1,6.704241037E-2,-7.773254067E-2
3.894030829E2,-3.329212964E-1,2.110537887E-1,3.284925222E-1
3.899070827E2,-1.069013402E-2,-6.863065958E-1,-8.196278214E-1
3.904110828E2,3.202458620E-1,-1.221729559E-3,9.025527239E-1
3.909150830E2,-2.270889878E-1,-1.331685185E-1,-8.940005898E-1
3.914190832E2,-3.970621154E-2,-1.429423541E-1,9.272927642E-1
3.919230833E2,1.243109852E-1,-2.932150960E-1,-8.874338269E-1
3.924270835E2,-2.764163017E-1,1.062904745E-1,9.498947263E-1
3.929310842E2,1.823431402E-1,-9.162971750E-3,-3.335321844E-1
3.934350851E2,-5.697841048E-1,7.599157691E-1,4.211912751E-1
3.939390861E2,9.315688163E-3,-5.207622424E-2,-5.708531141E-1
3.944430869E2,-2.423606068E-1,5.604684353E-2,7.617483735E-1
3.949470874E2,-4.575377107E-1,-9.248492718E-1,-1.652694702E0
3.954510878E2,1.062904745E-1,-2.012799382E-1,1.441640854E0
3.959550882E2,1.687513888E-1,-2.956585586E-1,-1.000749230E0
3.964590887E2,8.979712427E-2,-7.651081085E-1,3.695732057E-1
3.969630890E2,7.014254928E-1,3.294088244E-1,-3.378082216E-1
3.974670890E2,1.189659163E-1,-7.846558094E-1,4.303542376E-1
3.979710888E2,-8.927788734E-1,6.861538887E-1,-2.674060464E-1
3.984750883E2,4.074468017E-1,1.600465775E-1,-4.841103405E-2
3.989790878E2,8.613193035E-2,-2.580903657E-2,6.368265152E-1
3.994830875E2,-6.456840634E-1,1.238528341E-1,-7.655662894E-1
3.999870869E2,2.823722363E-1,-4.004218578E-1,8.616247773E-1
4.004910863E2,-2.732092738E-1,-3.955349326E-2,-8.604030609E-1
4.009950856E2,1.968511790E-1,-3.251327872E-1,8.156571984E-1
4.014990852E2,-1.768453568E-1,1.365282834E-1,-6.614138484E-1
4.020030851E2,3.726275265E-2,-1.951712966E-1,3.063486814E-1
4.025070852E2,-3.022253513E-1,4.671588540E-1,-1.122464016E-1
4.030110855E2,1.977674663E-1,-1.045800447E0,-9.546289444E-1
4.035150864E2,-3.663661480E-1,1.687513888E-1,1.142622590E0
4.040190877E2,-1.191186309E-1,-3.054323897E-4,-9.671516418E-1
4.045230892E2,-2.046397030E-1,-1.693622619E-1,8.478803039E-1
4.050270909E2,-1.447749585E-1,-5.329795182E-2,-7.406735420E-1
4.055310922E2,2.732092738E-1,-3.817904973E-3,6.551524997E-1
4.060350931E2,-1.777616441E-1,1.896735132E-1,-3.788888752E-1
4.065390936E2,1.209512278E-1,-4.729620516E-1,-1.366809905E-1
4.070430936E2,6.551524997E-2,-1.214093715E-1,-8.491020650E-2
4.075470932E2,-1.744018942E-1,3.990474045E-1,-1.643226296E-1
4.080510924E2,-1.701258421E-1,1.408043355E-1,6.032289565E-2
4.085550912E2,1.030834317E-1,-6.771436334E-1,4.179842174E-1
4.090590897E2,1.397353113E-1,3.503309488E-1,2.965748608E-1
4.095630877E2,-2.744309902E-1,-4.818195999E-1,-1.105665267E-1
4.100670852E2,1.023198478E-2,1.980729103E-1,5.856665969E-1
4.105710824E2,-3.765981495E-1,1.134681329E-1,-7.336485982E-1
4.110750791E2,1.597411335E-1,-1.728747338E-1,1.398880333E-1
4.115790754E2,2.220493406E-1,1.446222365E-1,3.361283541E-1
4.120830712E2,-1.824958473E-1,-1.879936308E-1,-1.601992846E-1
4.125870665E2,-8.552107215E-2,-8.323032409E-2,-3.463603258E-1
4.130910613E2,-3.512472510E-1,1.847866029E-1,2.260199748E-2
4.135950558E2,5.445859432E-1,-3.872882724E-1,4.993819594E-1
4.140990502E2,-4.694495797E-1,1.527161920E-3,-5.807796717E-1
4.146030444E2,5.207622424E-2,-5.908589363E-1,5.623010397E-1
4.151070385E2,-1.530216336E-1,3.663661480E-1,-6.195695996E-1
4.156110324E2,-2.307541668E-1,-2.302960157E-1,-2.901607752E-2
4.161150259E2,3.410152495E-1,2.316704690E-1,3.156643808E-1
4.166190191E2,-8.078686893E-2,-2.060141414E-1,-4.398226440E-1
4.171230122E2,-2.806923687E-1,4.182896614E-1,6.692023873E-1
4.176270043E2,7.376192510E-2,-3.252854943E-2,-9.691369534E-1
4.181309969E2,-7.933606505E-1,3.665188551E-1,8.419243693E-1
4.186349890E2,1.707367003E-1,-7.825177908E-1,-7.655662894E-1
4.191389809E2,3.669770062E-1,4.428769462E-3,9.550870657E-1
4.196429727E2,-5.035052896E-1,2.440404743E-1,-7.706059217E-1
4.201469642E2,1.198822111E-1,-1.640172005E-1,6.730202436E-1
4.206509555E2,1.414151937E-1,2.021962404E-1,-4.831940532E-1
4.211549465E2,-3.318522871E-1,-3.040579557E-1,5.207622424E-2
4.216589372E2,4.011854529E-1,1.565341055E-1,-2.176205814E-1
4.221629276E2,-3.904953003E-1,-1.870773435E-1,5.024362728E-2
4.226669178E2,1.084284950E-2,4.599811733E-1,1.305723488E-1
4.231709078E2,-5.574141070E-2,-3.663661480E-1,3.207040131E-1
4.236748976E2,1.171333194E-1,8.826996386E-2,-7.046325207E-1
4.241788873E2,-2.541197538E-1,-3.199404180E-1,3.430005610E-1
4.246828769E2,-2.825249545E-2,4.787652791E-1,1.832594397E-3
4.251868663E2,-5.030471683E-1,-7.055488229E-2,-1.250745654E-1
4.256908556E2,4.862483740E-1,-1.838703007E-1,4.607447684E-1
4.261948447E2,-3.798051775E-1,1.033888608E-1,-4.761691093E-1
4.266988338E2,9.926552325E-2,-1.893680841E-1,5.273290277E-1
4.272028227E2,3.556760252E-1,-5.687150955E-1,-3.707949221E-1
4.277068115E2,-3.008509055E-2,1.359174121E-2,-1.130099874E-2
4.282108004E2,1.847865991E-2,3.378082216E-1,-2.153298259E-2
4.287147891E2,8.139773458E-2,-9.453132749E-2,-1.821904182E-1
4.292187777E2,-1.539379209E-1,3.414734006E-1,-1.776089370E-1
4.297227662E2,1.603520066E-1,-4.079049528E-1,1.511890348E-2
4.302267548E2,2.901607752E-2,5.268708467E-1,1.024725661E-1
4.307307432E2,-5.633700490E-1,3.046688139E-1,-5.566505194E-1
4.312347315E2,-5.364919901E-1,5.256491303E-1,7.232639194E-1
4.317387198E2,-3.495673835E-1,3.779725730E-1,3.344484791E-2
4.322427080E2,2.825249545E-2,-9.285144508E-2,3.909534588E-2
4.327466960E2,3.915643096E-1,-3.020726442E-1,1.094975099E-1
4.332506839E2,-1.621845961E-1,-1.800523996E-1,-3.512472380E-3
4.337546717E2,-1.372918636E-1,4.789179862E-1,2.139553875E-1
4.342586595E2,1.540906429E-1,-1.878409237E-1,1.521053314E-1
4.347626472E2,-2.515235841E-1,6.514872909E-1,-1.821904182E-1
4.352666350E2,-2.299905866E-1,-3.755291104E-1,-4.737256467E-1
4.357706227E2,-1.114828214E-1,8.903354406E-2,5.213730931E-1
4.362746102E2,-4.524980783E-1,1.404989064E-1,-6.542361975E-1
4.367785975E2,4.515817761E-1,-3.875937164E-1,7.342594862E-1
4.372825848E2,-3.878991306E-2,1.744018942E-1,-5.343539715E-1
4.377865719E2,-3.127627671E-1,-8.720094711E-2,1.475238502E-1
4.382905589E2,-4.749473557E-2,6.078104377E-1,-4.598284662E-1
4.387945458E2,-1.527161949E-4,-5.290089250E-1,8.842267841E-2
4.392985328E2,-3.039052188E-1,2.079994529E-1,3.984365463E-1
4.398025196E2,-2.590066791E-1,-3.909534588E-2,-3.229947388E-1
4.403065064E2,2.289215773E-1,-5.268708616E-2,6.973021626E-1
4.408104928E2,-5.314523578E-1,1.305723488E-1,-8.443678617E-1
4.413144790E2,4.231765866E-1,-5.435169339E-1,6.328558922E-1
4.418184649E2,-4.802924395E-1,1.272125840E-1,-3.239110410E-1
4.423224508E2,3.090975881E-1,-6.215549260E-2,2.148716897E-1
4.428264367E2,-1.753181964E-1,4.001164436E-1,-4.024071693E-1
4.433304225E2,-1.076649204E-1,-3.924806118E-1,1.901316643E-1
4.438344084E2,1.038470119E-1,1.545487940E-1,-4.272999167E-1
4.443383941E2,-7.941242307E-2,-4.909825623E-1,1.379027218E-1
4.448423797E2,1.110246703E-1,2.652680278E-1,-1.235474050E-1
4.453463654E2,3.069595434E-2,-2.845102847E-1,1.693622619E-1
4.458503511E2,-2.089157552E-1,4.340194166E-1,2.858847082E-1
4.463543369E2,-2.813032269E-1,1.186604798E-1,-3.084867001E-1
4.468583227E2,4.146244824E-1,-2.524398565E-1,6.330085993E-1
4.473623083E2,-1.899789423E-1,-1.924224049E-1,-3.927860558E-1
4.478662935E2,-6.918043643E-2,1.050687432E-1,4.214967042E-2
4.483702787E2,7.254019380E-2,-4.181369543E-1,-2.041815519E-1
4.488742637E2,9.728021920E-2,-4.795288444E-1,3.349066079E-1
4.493782485E2,-2.081521749E-1,3.862192631E-1,-1.189659163E-1
4.498822333E2,-3.471239209E-1,-5.430588126E-1,-3.283398151E-1
4.503862178E2,-1.866191924E-1,2.942841053E-1,2.434296161E-1
4.508902022E2,-2.965748608E-1,-2.874118686E-1,-2.008218020E-1
4.513941863E2,2.490801066E-1,1.481347065E-2,6.372846961E-1
4.518981702E2,-6.510291100E-1,7.070759684E-2,-8.098539710E-1
4.524021537E2,5.164861679E-1,-1.224783882E-1,1.063668251E0
4.529061372E2,-3.707949221E-1,1.585194170E-1,-7.446441650E-1
4.534101207E2,-5.299251899E-2,-2.345720828E-1,5.433642268E-1
4.539141043E2,6.856957078E-2,4.321868345E-2,-3.061959743E-1
4.544180880E2,1.175914705E-2,-5.088503361E-1,-1.502727419E-1
4.549220719E2,-7.070759684E-2,4.089739621E-1,3.489564955E-1
4.554260558E2,1.441640854E-1,-5.470294356E-1,-4.195113778E-1
4.559300398E2,1.527161920E-3,1.559232324E-1,3.998109996E-1
4.564340237E2,-4.665479660E-1,-2.244928107E-2,-4.445568323E-1
4.569380077E2,4.216494262E-1,-6.185005978E-2,4.470002949E-1
4.574419916E2,-4.833467603E-1,3.355174661E-1,-4.905244112E-1
4.579459753E2,4.251618981E-1,-3.156643808E-1,7.136427760E-1
4.584499589E2,-3.341430426E-1,-1.757763475E-1,-6.745474339E-1
4.589539423E2,-1.160643101E-1,-3.347539008E-1,2.854265571E-1
4.594579257E2,-8.185587823E-2,3.914116025E-1,-7.131846249E-2
4.599619089E2,-1.203403622E-1,-4.001164436E-1,-4.007273018E-1
4.604658919E2,-3.834703565E-1,4.181369543E-1,4.827359021E-1
4.609698749E2,-8.704823442E-3,-2.854265571E-1,-6.754637361E-1
4.614738582E2,-6.261363626E-2,5.054906011E-2,9.825760126E-1
4.619778416E2,-1.852447391E-1,5.772672221E-2,-8.735366464E-1
4.624818251E2,1.612683088E-1,-1.976147592E-1,8.069523573E-1
4.629858086E2,-4.734202102E-2,-9.300415963E-2,-6.206386089E-1
4.634897921E2,-1.554650813E-1,-3.278816640E-1,3.210094273E-1
4.639937753E2,6.841685623E-2,1.209512278E-1,-2.770271897E-1
4.644977584E2,-1.527161920E-3,-2.828303874E-1,-5.131264031E-2
4.650017416E2,2.318231910E-1,7.757982612E-2,2.884808779E-1
4.655057247E2,-2.961167097E-1,2.463312149E-1,2.199113220E-1
4.660097079E2,1.517999023E-1,-1.023198515E-1,-2.296851575E-1
4.665136909E2,-5.357283950E-1,3.254382014E-1,-4.831940532E-1
4.670176737E2,4.048506320E-1,-2.854265571E-1,7.492256761E-1
4.675216562E2,-4.338667095E-1,1.311832070E-1,-5.656607747E-1
4.680256387E2,1.412624866E-1,-2.544251680E-1,2.638935745E-1
4.685296214E2,1.241582632E-1,1.530216336E-1,-4.230238497E-2
4.690336042E2,-1.088866442E-1,-2.252563834E-1,-1.631008983E-1
4.695375872E2,-6.963858753E-2,4.106538594E-1,1.623373181E-1
4.700415703E2,6.337722391E-2,-5.145008564E-1,-3.817904741E-2
4.705455532E2,-1.889099330E-1,3.495673835E-1,1.003345400E-1
4.710495361E2,-3.575085998E-1,-6.979130208E-2,-3.978256881E-1
4.715535190E2,1.389717311E-1,-2.101374865E-1,8.043562174E-1
4.720575018E2,-4.659371078E-1,-2.748891478E-3,-9.639446139E-1
4.725614846E2,4.728093445E-1,-3.084867001E-1,6.594285369E-1
4.730654674E2,-9.346231073E-2,4.474584386E-2,-4.094321132E-1
4.735694502E2,-6.108647794E-4,-2.490801066E-1,1.305723488E-1
4.740734329E2,-6.811141968E-2,3.006981909E-1,-9.773836471E-3
4.745774155E2,-1.626427472E-1,-2.435823381E-1,-4.289797843E-1
4.750813979E2,-2.165515572E-1,3.252854943E-1,3.353647590E-1
4.755853802E2,-1.128572673E-1,-3.608683646E-1,-4.150826037E-1
4.760893624E2,-1.162170246E-1,5.238165334E-2,7.603739500E-1
4.765933447E2,-3.364337683E-1,1.044578776E-1,-7.812960744E-1
4.770973272E2,2.632827163E-1,-2.124282271E-1,8.445205688E-1
4.776013094E2,-5.138899684E-1,2.556469142E-1,-8.468112946E-1
4.781052923E2,3.284925222E-1,-5.503891706E-1,5.138899684E-1
4.786092753E2,-5.467239767E-2,1.936441362E-1,-4.347830117E-1
4.791132584E2,-1.525634825E-1,-5.134318471E-1,5.543597788E-2
4.796172415E2,-2.967275679E-1,-7.483093534E-3,-2.680169344E-1
4.801212245E2,4.277580678E-1,-1.455385387E-1,2.892444730E-1
4.806252074E2,-5.849030241E-2,3.275762498E-1,-5.849030241E-2
4.811291903E2,3.970621154E-2,6.017018110E-2,-8.704823442E-3
4.816331733E2,-4.185950756E-1,1.464548260E-1,2.785543501E-1
4.821371563E2,3.848448098E-1,-1.809686869E-1,-7.515164018E-1
4.826411394E2,-2.645044625E-1,3.714057803E-1,3.926333487E-1
4.831451226E2,-5.041161776E-1,-1.249218509E-1,8.399390429E-2
4.836491061E2,2.629773021E-1,-1.860083193E-1,-9.850194305E-2
4.841530897E2,1.201876476E-1,-2.672533393E-1,7.864884287E-2
4.846570734E2,-1.133154184E-1,-4.341721535E-1,-2.794706449E-2
4.851610570E2,-3.123046160E-1,5.600103140E-1,1.346956789E-1
4.856650403E2,8.826996386E-2,-1.768453568E-1,-2.738201320E-1
4.861690236E2,-4.043924809E-1,3.964512348E-1,3.240637779E-1
4.866730067E2,1.255327165E-1,-1.018617004E-1,-4.089739621E-1
4.871769898E2,-5.650499463E-1,3.289506733E-1,7.835868001E-1
4.876809728E2,-7.864884287E-2,-1.763872057E-1,-8.066469431E-1
4.881849558E2,2.315177470E-1,1.055268943E-1,9.870047569E-1
4.886889386E2,-4.239401519E-1,6.643154472E-2,-8.703296185E-1
4.891929212E2,2.257145345E-1,1.156061590E-1,6.024653912E-1
4.896969038E2,-3.161225319E-1,4.601338804E-1,-3.541488647E-1
4.902008862E2,-6.856957078E-2,-7.681624591E-2,2.528980076E-1
4.907048686E2,1.669187993E-1,2.696968019E-1,-1.780670881E-1
4.912088508E2,-3.133736253E-1,-2.054032832E-1,-9.208786488E-2
4.917128328E2,-2.275471240E-1,5.025889874E-1,1.980729103E-1
4.922168147E2,3.329212964E-2,-7.422006875E-2,-4.491383433E-1
4.927207965E2,-5.119046569E-1,2.851211429E-1,6.152935624E-1
4.932247782E2,-1.716530025E-1,4.108065739E-2,-7.131846547E-1
4.937287599E2,1.930332631E-1,-9.132428467E-2,7.974839807E-1
4.942327414E2,-3.671297431E-1,-1.076649204E-1,-6.688969135E-1
4.947367228E2,2.321286201E-1,-1.194240674E-1,3.346011937E-1
4.952407041E2,1.185077652E-1,3.106247485E-1,-5.513054505E-2
4.957446852E2,-7.422006875E-2,-2.109010667E-1,-2.585485280E-1
4.962486664E2,-1.123991162E-1,2.460257858E-1,9.330959618E-2
4.967526481E2,1.186604798E-1,-4.054614902E-1,-4.065304995E-1
4.972566302E2,-3.315468729E-1,2.848156989E-1,3.698786199E-1
4.977606128E2,2.057087123E-1,-7.144063711E-1,-6.369792223E-1
4.982645959E2,1.992946416E-1,-2.220493406E-1,8.067996502E-1
4.987685795E2,-2.541197538E-1,-6.356047988E-1,-7.163916826E-1
4.992725636E2,8.411607742E-1,-1.493564397E-1,4.097375572E-1
4.997765478E2,-3.164279461E-1,-3.265072107E-1,-6.035344005E-1
5.002805324E2,-7.895427197E-2,1.510363221E-1,8.797979951E-1
5.007845171E2,1.291978955E-1,1.878409237E-1,-6.936369538E-1
5.012885019E2,-1.684459597E-1,-1.646280587E-1,-3.431532979E-1
5.017924867E2,-5.085449293E-2,3.126100600E-1,2.075413018E-1
5.022964714E2,1.075121984E-1,-7.264709473E-1,-4.601338804E-1
5.028004560E2,-4.509709179E-1,4.247037470E-1,8.565851450E-1
5.033044404E2,1.206457894E-2,-3.714057803E-1,-1.006705165E0
5.038084247E2,-6.449204683E-1,8.155044913E-2,1.467908025E0
5.043124088E2,-2.211330533E-1,4.651735425E-1,-1.894597173E0
5.048163927E2,-7.727439702E-2,4.978547990E-2,1.284801364E0
5.053203765E2,-4.318813980E-1,1.557705253E-1,-7.125737667E-1
5.058243601E2,1.102610901E-1,-1.678351015E-1,5.352702737E-1
5.063283436E2,-3.335321844E-1,5.265654325E-1,-3.391826749E-1
5.068323268E2,-2.241873741E-1,-1.498145908E-1,-1.481347084E-1
5.073363101E2,8.017600328E-2,8.185587823E-2,3.656025827E-1
5.078402933E2,-2.774853408E-1,-4.214967042E-2,-5.354229808E-1
5.083442763E2,-3.478874862E-1,6.148353815E-1,3.686569035E-1
5.088482592E2,4.062250629E-2,-3.220784664E-1,-5.418370366E-1
5.093522420E2,-3.176496923E-1,2.886336148E-1,6.041452885E-1
5.098562246E2,-1.560759544E-1,-2.918406427E-1,-6.255255342E-1
5.103602070E2,-1.954767294E-2,2.076940238E-2,7.516691089E-1
5.108641894E2,-2.281579971E-1,-2.176205814E-1,-8.463531733E-1
5.113681715E2,1.366809905E-1,-6.841685623E-2,1.150258422E0
5.118721534E2,-1.200349256E-1,3.084867075E-2,-8.709404469E-1
5.123761350E2,7.635809947E-3,-3.330740333E-1,7.134900689E-1
5.128801165E2,4.276053514E-3,3.808741868E-1,-6.220130324E-1
5.133840980E2,-4.747946560E-1,-2.557996213E-1,1.395826042E-1
5.138880794E2,1.317940801E-1,3.769035637E-1,4.581485991E-4
5.143920607E2,-1.924224049E-1,-3.701840639E-1,-5.519163013E-1
5.148960417E2,-1.372918636E-1,4.219548404E-1,7.615956664E-1
5.154000226E2,-1.609628648E-1,-5.077813268E-1,-8.996511102E-1
5.159040033E2,-5.482511520E-1,5.519163013E-1,4.925097227E-1
5.164079838E2,7.757982612E-2,-8.689551353E-1,-8.460476995E-1
5.169119641E2,-5.493201613E-1,5.106829405E-1,9.669989347E-1
5.174159442E2,1.163697392E-1,-3.625482321E-1,-1.174082160E0
5.179199241E2,1.985310577E-2,6.337722391E-2,1.263421059E0
5.184239037E2,-2.895499170E-1,-1.357647032E-1,-1.483332396E0
5.189278830E2,-2.512181401E-1,3.405570984E-2,1.697593212E0
5.194318622E2,4.856374860E-2,-1.452330947E-1,-1.378110886E0
5.199358410E2,-1.009454057E-1,-4.239401519E-1,6.944005489E-1
5.204398197E2,2.451094985E-1,3.924806118E-1,-4.867065251E-1
5.209437983E2,-3.663661480E-1,-3.843866587E-1,-2.672533318E-2
5.214477768E2,-3.752236962E-1,6.931788325E-1,-2.006690800E-1
5.219517551E2,2.321286201E-1,-1.110094070E0,-5.790998340E-1
5.224557335E2,5.099193454E-1,-4.230238497E-1,1.024878383E0
5.229597118E2,-2.128863782E-1,-8.002328873E-2,-9.656245112E-1
5.234636901E2,-4.844157696E-1,-1.293506175E-1,9.900590777E-1
5.239676684E2,-3.883572817E-1,3.940077871E-2,-7.510582209E-1
5.244716466E2,4.077522457E-1,-1.220202371E-1,9.150754213E-1
5.249756247E2,-2.234237939E-1,-2.962694131E-2,-4.850266278E-1
5.254796027E2,1.053741723E-1,-4.630354941E-1,2.501491308E-1
5.259835805E2,-2.299905866E-1,1.212566569E-1,1.588248461E-2
5.264875585E2,2.115119249E-1,-5.479456782E-1,-2.868010104E-1
5.269915366E2,4.108065739E-2,4.957167804E-1,2.260199748E-2
5.274955147E2,-1.786779463E-1,-2.290742993E-1,-6.352993846E-1
5.279994928E2,-4.120282829E-1,3.112356067E-1,4.757109582E-1
5.285034710E2,-3.863719851E-2,-2.496909797E-1,-5.926915407E-1
5.290074490E2,-7.874047160E-1,3.714057803E-1,3.743073940E-1
5.295114269E2,-1.130099874E-2,-1.412624866E-1,-6.160571575E-1
5.300154048E2,-2.993237413E-2,-1.375972927E-1,8.341358304E-1
5.305193826E2,-2.993237413E-2,-1.759290546E-1,-3.321577311E-1
5.310233604E2,2.941313982E-1,-2.855792828E-2,6.721040010E-1
5.315273381E2,-1.673769504E-1,5.345067009E-3,-5.119046569E-1
5.320313158E2,-9.376774728E-2,-2.012799382E-1,4.696022868E-1
5.325352932E2,-1.345429718E-1,4.108065739E-2,-2.509126961E-1
5.330392705E2,3.236056268E-1,-5.949822664E-1,1.057406902E0
5.335432478E2,-4.969384968E-1,2.156352699E-1,-1.102763653E0
5.340472249E2,5.161807314E-2,-1.631008983E-1,2.486219704E-1
5.345512019E2,-2.138026804E-2,-3.161225095E-2,1.058323234E-1
5.350551787E2,1.976147592E-1,-4.958694875E-1,-3.023780584E-1
5.355591554E2,-4.303542376E-1,2.315177470E-1,1.611155868E-1
5.360631318E2,8.231402934E-2,-5.593994260E-1,-2.457203567E-1
5.365671082E2,-1.878409274E-2,2.655734718E-1,3.310887218E-1
5.370710845E2,-2.755000293E-1,-3.176496923E-2,-2.991710305E-1
5.375750612E2,8.933897316E-2,6.261363626E-2,5.575668216E-1
5.380790373E2,-5.674933791E-1,-1.252272818E-2,-5.962040424E-1
5.385830133E2,5.455022454E-1,-1.966984570E-1,5.800161362E-1
5.390869891E2,-9.025526792E-2,-2.347247899E-1,-2.938259542E-1
5.395909646E2,2.634354234E-1,-4.581485689E-2,3.622428179E-1
5.400949397E2,1.557705253E-1,1.238528341E-1,-2.542724609E-1
5.405989147E2,-2.070831656E-1,-5.757400393E-2,5.711585656E-2
5.411028901E2,4.352411628E-2,1.970038936E-2,9.254601598E-2
5.416068663E2,1.420260593E-2,-2.782489061E-1,-6.963858753E-2
5.421108432E2,-8.277218044E-2,3.973675370E-1,6.123919412E-2
5.426148207E2,7.315105945E-2,-4.711294472E-1,-3.054323792E-1
5.431187986E2,-4.130973220E-1,5.833758712E-1,4.499019086E-1
5.436227767E2,-3.054323839E-3,-3.075704277E-1,-5.794052482E-1
5.441267549E2,-2.367101014E-1,1.024725661E-1,7.489202023E-1
5.446307333E2,-2.797760665E-1,7.635809598E-4,-7.767145634E-1
5.451347117E2,2.266308367E-1,-8.964440972E-2,1.060919404E0
5.456386901E2,-3.904953003E-1,-1.797469556E-1,-1.093753338E0
5.461426684E2,3.010036349E-1,-2.661843300E-1,9.036217332E-1
5.466466467E2,-2.784016132E-1,5.971203372E-2,-5.568032265E-1
5.471506250E2,-2.046396956E-2,-4.153880477E-1,3.309359848E-1
5.476546031E2,9.773836471E-3,3.643808365E-1,-3.634645343E-1
5.481585811E2,-2.496909797E-1,-1.748600453E-1,-1.223256737E-1
5.486625591E2,-2.021962404E-1,4.473057389E-1,1.647807807E-1
5.491665370E2,1.679878100E-3,-3.286452591E-1,-5.710058808E-1
5.496705147E2,-2.414443046E-1,4.320341051E-1,5.120574236E-1
5.501744924E2,-5.497782957E-3,-2.913824916E-1,-5.865828991E-1
5.506784700E2,-3.827067912E-1,8.109229803E-2,6.988292933E-1
5.511824473E2,-2.015853859E-2,-1.517999023E-1,-9.098830819E-1
5.516864246E2,-1.087339297E-1,-1.117882580E-1,1.072067738E0
5.521904018E2,-1.850920320E-1,7.269290835E-2,-1.013271928E0
5.526943791E2,1.224783882E-1,-1.795942485E-1,1.024420261E0
5.531983562E2,4.948004708E-2,-9.590577334E-2,-8.976657987E-1
5.537023331E2,-1.679878100E-3,-2.338084877E-1,6.837103963E-1
5.542063099E2,1.715002805E-1,2.217439115E-1,-4.184423685E-1
5.547102866E2,-1.650862098E-1,-4.471530318E-1,2.690859437E-1
5.552142634E2,-4.917461425E-2,3.591884971E-1,-2.292270064E-1
5.557182402E2,-5.604684353E-2,-4.190532267E-1,-1.377500147E-1
5.562222169E2,-3.437641561E-1,3.817904890E-1,5.635227636E-2
5.567261934E2,-3.878991306E-2,-3.889681399E-1,-2.174678594E-1
5.572301697E2,-3.732383847E-1,3.740019500E-1,3.908007443E-1
5.577341459E2,1.090393662E-1,-5.624537468E-1,-4.111120105E-1
5.582381219E2,-2.600756884E-1,2.528980076E-1,5.580250025E-1
5.587420978E2,-1.820377111E-1,-1.007926911E-1,-6.630937457E-1
5.592460734E2,1.194240674E-1,3.283398226E-2,8.045089245E-1
5.597500490E2,-2.922987938E-1,2.176205814E-1,-5.975784659E-1
5.602540246E2,2.451094985E-1,-3.339903057E-1,6.293434501E-1
5.607580002E2,-1.382081509E-1,-1.182023361E-1,-5.647444725E-1
5.612619756E2,4.581485991E-4,-8.109229803E-2,4.021017551E-1
5.617659510E2,9.941824526E-2,9.208786488E-2,-4.077522457E-1
5.622699264E2,-2.174678594E-1,-8.506292105E-2,3.138317764E-1
5.627739017E2,1.878409274E-2,3.283398226E-2,-1.707367003E-1
5.632778771E2,3.023780696E-2,-4.715875983E-1,-9.926552325E-2
5.637818524E2,1.145371497E-1,6.475166976E-2,-9.086613357E-2
5.642858277E2,2.596175298E-3,-8.582650125E-2,6.154462695E-2
5.647898032E2,-2.249509543E-1,2.429714650E-1,-1.470656991E-1
5.652937792E2,2.138026804E-2,-4.120282829E-1,1.091920808E-1
5.657977556E2,-1.905898154E-1,5.832231641E-1,1.721111536E-1
5.663017326E2,-6.108647794E-4,-4.477638900E-1,-2.548833191E-1
5.668057100E2,-4.998401105E-1,3.695732057E-1,5.836812854E-1
5.673096877E2,-3.970621154E-3,-3.245218992E-1,-6.349939108E-1
5.678136657E2,-2.878700197E-1,1.860083193E-1,9.529490471E-1
5.683176439E2,4.795288667E-2,-1.988364905E-1,-1.170722365E0
5.688216220E2,-4.749473631E-1,-3.649916872E-2,1.589164734E0
5.693256002E2,-1.310304999E-1,1.001818255E-1,-1.287702918E0
5.698295783E2,3.611738086E-1,-4.356993139E-1,1.051145554E0
5.703335565E2,-4.279107749E-1,2.774853408E-1,-6.840158105E-1
5.708375345E2,1.313359290E-2,-2.396117151E-1,1.669187993E-1
5.713415126E2,3.665188793E-3,3.830122054E-1,-3.220784664E-1
5.718454907E2,-2.425133139E-1,-4.543306828E-1,1.379027218E-1
5.723494688E2,1.588248461E-2,1.165224537E-1,-3.584249020E-1
5.728534466E2,4.138609022E-2,-4.327977002E-1,1.362228394E-1
5.733574242E2,-5.835285783E-1,5.322159529E-1,-1.456912458E-1
5.738614016E2,2.431241870E-1,-5.154171586E-1,-2.519817278E-2
5.743653786E2,-5.419898033E-1,2.585485280E-1,3.315468729E-1
5.748693557E2,1.571449637E-1,-9.925025702E-1,-9.408844709E-1
5.753733328E2,2.805396616E-1,6.867647171E-1,3.396408260E-1
5.758773097E2,-1.065348148E0,5.781835318E-1,1.985310577E-3
5.763812867E2,-8.197805285E-1,6.572905183E-1,1.841757298E-1
5.768852634E2,6.322450638E-1,-4.257727563E-1,-3.628536761E-1
5.773892401E2,3.037525117E-1,-6.508764029E-1,1.044120669E0
5.778932165E2,9.422589093E-2,1.985310577E-3,-3.358229101E-1
5.783971929E2,1.160643063E-2,-3.558287397E-2,-8.307760954E-2
5.789011693E2,-6.169734150E-2,-8.979712427E-2,3.614792228E-1
5.794051457E2,-2.742782831E-1,-3.309359848E-1,-6.582068205E-1
5.799091218E2,-4.482220411E-1,-2.477056682E-1,5.448913574E-1
5.804130978E2,1.612683088E-1,-3.397935331E-1,-8.112284541E-1
5.809170734E2,2.868010104E-1,1.806632578E-1,1.154534459E0
5.814210488E2,-2.470948100E-1,-2.794706225E-1,-5.506945848E-1
5.819250239E2,-3.478874862E-1,4.309650958E-1,7.721330523E-1
5.824289988E2,8.429934084E-2,-3.284925222E-1,-1.057712317E0
5.829329735E2,-3.517054021E-1,8.813251853E-1,1.083521366E0
5.834369479E2,3.649916872E-2,-1.815795600E-1,-6.467530727E-1
5.839409220E2,3.594939113E-1,-4.505127668E-1,2.631300092E-1
5.844448958E2,-2.310595959E-1,4.134027362E-1,-3.208567202E-1
5.849488694E2,1.756236330E-2,-2.321286201E-1,4.579958618E-1
5.854528427E2,-3.842339516E-1,-5.772672221E-2,-2.993237376E-1
5.859568158E2,3.066541255E-1,-1.795942485E-1,-6.887500733E-2
5.864607887E2,-2.750418782E-1,2.487746775E-1,-1.200349256E-1
5.869647613E2,2.157879770E-1,-2.380845547E-1,1.104138121E-1
5.874687336E2,-3.054323979E-2,1.508836001E-1,-1.441640854E-1
5.879727055E2,-4.398226365E-2,-2.217439115E-1,8.063415438E-2
5.884766772E2,-3.982838392E-1,2.886336148E-1,8.704823256E-2
5.889806486E2,-2.657261863E-2,-1.108719558E-1,1.120936871E-1
5.894846200E2,3.634645417E-2,2.275471240E-1,2.660316229E-1
5.899885912E2,-1.933387071E-1,-1.583666950E-1,-2.768744528E-1
5.904925620E2,3.597993553E-1,-7.681624591E-2,4.566214085E-1
5.909965324E2,-2.913824916E-1,1.559232324E-1,-4.975493550E-1
5.915005029E2,1.676823795E-1,-2.880227566E-1,2.477056682E-1
5.920044737E2,2.206749022E-1,2.364046723E-1,-1.971566081E-1
5.925084452E2,-3.286452591E-1,-1.699731201E-1,-2.298378795E-1
5.930124172E2,-6.414080411E-2,2.895499170E-1,-2.136499584E-1
5.935163897E2,-5.528326333E-2,-5.056433082E-1,5.177079141E-2
5.940203625E2,-1.918115467E-1,3.959930837E-1,1.346956789E-1
5.945243353E2,-1.470656991E-1,-3.567450345E-1,-1.189659163E-1
5.950283082E2,-1.310304999E-1,8.231402934E-2,5.320632458E-1
5.955322810E2,-3.477347791E-1,5.009091273E-2,-8.338304162E-1
5.960362540E2,3.669770062E-1,-1.287397593E-1,9.340122342E-1
5.965402270E2,-6.331613660E-1,-2.046396956E-2,-5.645917654E-1
5.970441999E2,1.887572110E-1,-3.857611120E-1,6.388118267E-1
5.975481723E2,3.174969554E-1,1.766926348E-1,-3.466657698E-1
5.980521449E2,-1.934914142E-1,-4.294379354E-1,1.947131455E-1
5.985561172E2,1.724165827E-1,5.936078429E-1,-6.658425927E-2
5.990600893E2,-3.871355653E-1,-2.652680278E-1,-1.936441362E-1
5.995640612E2,-1.889099330E-1,5.555815101E-1,2.809977904E-2
6.000680330E2,9.132428467E-2,-4.350884259E-1,-3.236056268E-1
6.005720045E2,-2.635881603E-1,3.404043913E-1,1.892153621E-1
6.010759758E2,2.214384824E-2,-3.237583339E-1,-4.923570156E-1
6.015799468E2,-2.351829410E-1,1.970038936E-2,7.947350740E-1
6.020839177E2,-5.039634556E-2,-4.535670951E-2,-1.009759426E0
6.025878885E2,7.208204269E-2,-1.762344837E-1,1.157436013E0
6.030918592E2,-2.643517256E-1,8.872810751E-2,-1.109941363E0
6.035958299E2,1.142317131E-1,-3.359756172E-1,9.053016305E-1
6.040998005E2,1.817322709E-2,8.949168772E-2,-7.102830410E-1
6.046037711E2,-1.769980639E-1,-4.331031144E-1,5.768090487E-1
6.051077418E2,1.146898642E-1,3.164279461E-1,-6.649262905E-1
6.056117125E2,-4.285216331E-1,-2.988655865E-1,2.619082630E-1
6.061156830E2,-4.688387364E-2,3.649916947E-1,-1.971566081E-1
6.066196533E2,-3.619373962E-2,-5.352702737E-1,-3.451386094E-2
6.071236235E2,-2.084576041E-1,4.456258714E-1,-1.123991162E-1
6.076275936E2,-4.214967042E-2,-4.943423271E-1,1.160643063E-2
6.081315635E2,-3.159697950E-1,5.757400393E-1,1.397353113E-1
6.086355334E2,1.255327165E-1,-4.346303046E-1,-4.831940532E-1
6.091395031E2,-4.156934917E-1,4.612028971E-2,6.021599770E-1
6.096434727E2,9.789107740E-2,-2.390008420E-1,-7.958040833E-1
6.101474424E2,-3.625482321E-1,2.994764447E-1,8.324559927E-1
6.106514120E2,-2.057087123E-1,-8.796452731E-2,-9.237802625E-1
6.111553814E2,1.464548260E-1,-1.624900252E-1,9.515746236E-1
6.116593507E2,-2.965748608E-1,-5.742128938E-2,-1.046411395E0
6.121633198E2,9.308052063E-1,-8.497129083E-1,2.393062711E-1
6.126672888E2,4.529562294E-1,1.010981202E-1,-7.173079848E-1
6.131712577E2,-6.188060045E-1,1.065959036E-1,6.766854525E-1
6.136752266E2,-9.251546860E-1,3.599520624E-1,2.319758981E-1
6.141791956E2,5.468766689E-1,-1.513417512E-1,8.246674389E-2
6.146831646E2,-5.916225314E-1,9.728021920E-2,-1.621845961E-1
6.151871336E2,5.064069033E-1,-1.916588247E-1,2.692386508E-1
6.156911025E2,-8.536835015E-2,5.406153202E-2,-4.245510101E-1
6.161950713E2,-1.837175786E-1,-3.252854943E-2,4.360047281E-1
6.166990401E2,-7.681624591E-2,-9.437860548E-2,-7.137954831E-1
6.172030088E2,-7.009673119E-2,8.384118974E-2,2.993237376E-1
6.177069775E2,3.045161068E-1,-5.335903764E-1,-5.910117030E-1
6.182109461E2,4.685332775E-1,-4.407389462E-1,4.608974755E-1
6.187149145E2,4.485274553E-1,-5.865828991E-1,-1.624900252E-1
6.192188828E2,-3.923279047E-1,1.479819864E-1,1.057559609E0
6.197228511E2,4.295906425E-1,1.502727419E-1,-9.766200781E-1
6.202268194E2,-6.875283122E-1,3.712530732E-1,5.158752799E-1
6.207307876E2,4.505127668E-2,-2.640463114E-1,-5.517635942E-1
6.212347559E2,-5.120574236E-1,2.916879356E-1,4.986183643E-1
6.217387243E2,3.840812445E-1,-4.415025115E-1,-7.771727443E-1
6.222426928E2,-6.980656981E-1,4.758636653E-1,6.490437984E-1
6.227466612E2,5.189296007E-1,-5.360338688E-1,-8.011491299E-1
6.232506298E2,-7.141009569E-1,3.996582925E-1,7.799215913E-1
6.237545986E2,4.007273018E-1,-9.137009978E-1,-7.770199776E-1
6.242585678E2,-3.906480372E-1,2.171624303E-1,7.104357481E-1
6.247625377E2,4.140135944E-1,-2.104429156E-1,-1.135750294E0
6.252665084E2,-5.919279456E-1,1.718057245E-1,1.130710721E0
6.257704797E2,5.371028781E-1,-3.738492429E-1,-1.377652764E0
6.262744513E2,-8.248201609E-1,2.623664141E-1,1.011286616E0
6.267784231E2,5.528326035E-1,-2.443459183E-1,-1.082757831E0
6.272823948E2,-3.978256881E-1,-3.472766280E-1,1.409723163E0
6.277863665E2,3.034470677E-1,-2.646571696E-1,-9.111047983E-1
6.282903382E2,-9.926552325E-2,-1.893680841E-1,3.820959330E-1
6.287943098E2,4.628827870E-1,1.802051067E-2,-3.909534588E-2
6.292982813E2,-4.276053309E-1,-1.099556610E-1,-1.243109852E-1
6.298022527E2,4.040870368E-1,6.780599058E-2,2.046396956E-2
6.303062240E2,-2.524398565E-1,-1.012508348E-1,5.115992576E-2
6.308101952E2,2.177732885E-1,-2.336557806E-1,1.123991162E-1
6.313141661E2,-9.896009415E-2,3.344484791E-2,-5.787943676E-2
6.318181370E2,-5.099193454E-1,4.346303046E-1,-2.814559340E-1
6.323221077E2,-2.165515572E-1,6.230820715E-2,3.791943192E-1
6.328260783E2,8.665117025E-1,-2.803869247E-1,-1.042135358E0
6.333300486E2,-4.993819445E-2,1.646280587E-1,-3.497200832E-2
6.338340188E2,-9.521854520E-1,5.583304167E-1,-3.097084463E-1
6.343379888E2,-6.850848794E-1,3.378082216E-1,-2.151771188E-1
6.348419586E2,-2.535088919E-2,-3.828594983E-1,9.728021920E-2
6.353459283E2,1.034346819E0,-7.657189965E-1,6.140718460E-1
6.358498978E2,4.243983030E-1,-9.390518665E-1,2.680169344E-1
6.363538674E2,3.115410507E-1,-3.217730224E-1,1.727220118E-1
6.368578370E2,-3.074176908E-1,2.985601723E-1,-9.269873053E-2
6.373618065E2,-1.162170246E-1,1.965457499E-1,9.682206810E-2
6.378657759E2,-1.024725661E-1,3.023780696E-2,1.872300506E-1
6.383697451E2,-1.291978955E-1,1.676823795E-1,-4.993819445E-2
6.388737144E2,-8.567378670E-2,7.788526267E-2,1.430950761E-1
6.393776835E2,1.327103674E-1,-9.575305134E-2,-2.897026241E-1
6.398816526E2,2.440404743E-1,8.842267841E-2,3.588830680E-2
6.403856214E2,-1.524107605E-1,4.016435891E-2,4.413498193E-2
6.408895900E2,5.726857483E-2,-1.985310577E-3,-9.728021920E-2
6.413935583E2,-7.024945319E-2,1.282816008E-2,7.666353136E-2
6.418975264E2,1.081230640E-1,-9.330959618E-2,-5.833758786E-2
6.424014943E2,-2.916879393E-2,3.894263133E-2,3.405570984E-2
6.429054622E2,4.627300799E-2,5.467239767E-2,-4.016435891E-2
6.434094299E2,-4.291325063E-2,-6.108647678E-3,1.832594397E-3
6.439133975E2,-2.061668597E-2,2.367101051E-2,5.726857483E-2
6.444173649E2,9.926552884E-3,2.397644334E-2,-1.786779426E-2
6.449213322E2,2.336557768E-2,3.451386094E-2,-7.635809947E-3
6.454252993E2,-1.313359290E-2,2.733619884E-2,4.795288667E-2
6.459292662E2,1.679878123E-2,2.061668597E-2,-1.893680729E-2
6.464332329E2,-1.038470119E-2,-1.328630932E-2,-2.596175298E-2
6.469371995E2,-3.268126398E-2,1.511890348E-2,-9.621120058E-3
6.474411659E2,2.580903657E-2,2.107483521E-2,-2.596175298E-2
6.479451321E2,-2.687804960E-2,2.153298259E-2,1.160643063E-2
6.484490980E2,1.649334840E-2,-1.756236330E-2,-7.788525894E-3
6.489530637E2,4.505127668E-2,-4.871646687E-2,-2.672533318E-2
6.494570290E2,-3.497200832E-2,2.107483521E-2,3.726275265E-2
6.499609937E2,9.468403645E-3,-5.803215317E-3,-1.206457894E-2
6.504649583E2,1.557705179E-2,1.237001177E-2,-2.611446939E-2
6.509689231E2,-4.718930274E-2,4.734202102E-2,5.268708616E-2
6.514728889E2,-9.162971983E-4,1.267544460E-2,-2.397644334E-2
6.519768557E2,-4.367683083E-2,1.527161989E-2,6.108647794E-4
6.524808233E2,5.039634649E-3,6.719512399E-3,-4.184423760E-2
6.529847914E2,-3.665188793E-3,3.405570984E-2,5.604684353E-2
6.534887599E2,4.657844082E-2,1.527161920E-3,-3.375028074E-2
6.539927284E2,9.162971983E-4,4.841103405E-2,4.123337194E-2
6.544966970E2,4.581485991E-4,2.412915789E-2,-8.093958721E-3
6.550006657E2,-1.908952370E-2,2.306014486E-2,1.282816008E-2
6.555046345E2,9.162971750E-3,9.926552884E-3,-1.328630932E-2
6.560086033E2,-1.588248461E-2,2.977965772E-2,-2.336557768E-2
6.565125720E2,-3.390299529E-2,-2.550360374E-2,-3.878991306E-2
6.570165406E2,-1.114828233E-2,7.177661173E-3,6.658425927E-2
6.575205089E2,6.536252797E-2,-4.367683083E-2,-5.726857483E-2
6.580244770E2,-3.390299529E-2,6.246092543E-2,7.330377400E-2
6.585284448E2,-5.635227636E-2,1.472184062E-1,-5.833758786E-2
6.590324124E2,-2.990183234E-1,3.859138191E-1,6.215549111E-1
6.595363799E2,-1.221729536E-2,-3.990474045E-1,-1.864664704E-1
6.600403472E2,1.359174103E-1,1.299614757E-1,-2.043342739E-1
6.605443145E2,-2.512181401E-1,1.942549944E-1,-2.365573794E-1
6.610482818E2,5.004509687E-1,-2.997818887E-1,3.643808365E-1
6.615522490E2,-1.620318890E-1,7.681624591E-2,6.719512492E-2
6.620562163E2,-2.794706449E-2,-7.391463965E-2,1.710421443E-1
6.625601835E2,-2.348775119E-1,3.512472659E-2,-4.123337269E-1
6.630641505E2,2.131918073E-1,-3.744601011E-1,2.023489624E-1
6.635681175E2,2.249509543E-1,-1.985310577E-3,-3.362810612E-1
6.640720842E2,1.052214578E-1,-5.904008150E-1,2.455676347E-1
6.645760508E2,-2.015853822E-1,8.480330110E-1,-4.069886506E-1
6.650800172E2,-3.895790279E-1,-2.651153207E-1,-4.520399496E-2
6.655839837E2,-4.040870368E-1,4.219548404E-1,3.252854943E-1
6.660879502E2,-5.115992576E-2,-1.438586563E-1,-3.726275265E-1
6.665919167E2,-8.597921580E-2,1.999054998E-1,6.163625717E-1
6.670958832E2,-1.473711282E-1,5.436696485E-2,-7.368556261E-1
6.675998496E2,1.539379209E-1,-2.654207349E-1,5.279398561E-1
6.681038159E2,-3.573558852E-2,2.342666388E-1,-6.322450191E-2
6.686077821E2,-5.500837564E-1,3.633118272E-1,-1.206457894E-2
6.691117483E2,3.200931549E-1,-1.169806048E-1,-3.213148713E-1
6.696157144E2,-2.185368687E-1,3.892735839E-1,1.475238502E-1
6.701196805E2,-6.230821013E-1,4.767799675E-1,1.994473487E-1
6.706236466E2,4.948004708E-2,9.392046183E-2,-6.159043908E-1
6.711276126E2,-5.459604263E-1,2.336557806E-1,1.039233685E0
6.716315784E2,-2.822195292E-1,3.558287397E-2,-1.091157198E0
6.721355441E2,3.112356067E-1,-3.199404180E-1,1.102000117E0
6.726395096E2,-5.899426341E-1,5.145008564E-1,-7.646499872E-1
6.731434751E2,1.411097646E-1,-6.467530727E-1,4.132500291E-1
6.736474404E2,-2.196058929E-1,2.251036763E-1,-4.700604379E-1
6.741514057E2,-4.795288667E-2,-1.861610413E-1,-1.832594350E-2
6.746553709E2,2.229656465E-2,-2.041815519E-1,4.899135530E-1
6.751593361E2,1.594357044E-1,-2.339612097E-1,-4.343248606E-1
6.756633012E2,-4.575377107E-1,3.979783952E-1,2.307541668E-1
6.761672662E2,-3.756818548E-2,-1.400407553E-1,-3.929387629E-1
6.766712312E2,1.324049383E-1,1.910479665E-1,4.563159943E-1
6.771751958E2,-2.744309902E-1,-8.837686181E-1,-1.230892539E-1
6.776791602E2,-1.322522312E-1,8.755219579E-1,5.771145225E-1
6.781831248E2,-2.339612097E-1,2.780961990E-1,-3.639226854E-1
6.786870901E2,3.156643808E-1,-7.657189965E-1,2.448040545E-1
6.791910561E2,7.177661359E-2,3.875937164E-1,-1.508836001E-1
6.796950228E2,-4.233292937E-1,-3.636172712E-1,-1.670715213E-1
6.801989900E2,-2.260199748E-2,5.684096813E-1,-6.612611562E-2
6.807029572E2,-2.725984156E-1,-7.223476171E-1,-3.236056268E-1
6.812069246E2,-2.490801066E-1,3.764454126E-1,3.568977416E-1
6.817108919E2,-5.528326333E-2,-3.723220825E-1,-3.932442069E-1
6.822148594E2,-1.618791670E-1,2.632827163E-1,3.465130329E-1
6.827188271E2,-2.719875574E-1,-7.864884287E-2,-5.731438994E-1
6.832227950E2,3.920224607E-1,-5.360338464E-2,8.895718455E-1
6.837267630E2,-6.498073936E-1,-2.515235841E-1,-3.086394370E-1
6.842307312E2,3.098611534E-1,-2.043342739E-1,6.487383842E-1
6.847346995E2,-7.254019380E-2,2.237292230E-1,-3.526217043E-1
6.852386679E2,-1.328630932E-2,-2.428187430E-1,-2.021962404E-1
6.857426364E2,2.620609999E-1,2.557996213E-1,8.139773458E-2
6.862466048E2,-2.689332068E-1,-3.616319597E-1,-4.112647176E-1
6.867505731E2,1.579085439E-1,3.617846668E-1,-2.458730713E-2
6.872545414E2,-3.711003438E-2,-3.292561173E-1,-1.224783882E-1
6.877585095E2,-6.200277805E-1,9.150754213E-1,-1.924224012E-2
6.882624778E2,-1.707367003E-1,-7.318159938E-1,5.955931544E-2
6.887664462E2,1.027780026E-1,-2.438877672E-1,9.498947263E-1
6.892704146E2,-3.849975169E-1,4.581485689E-2,-8.090903759E-1
6.897743828E2,1.211039424E-1,-4.465421438E-1,6.876810193E-1
6.902783508E2,2.897026241E-1,1.937968582E-1,-5.462658405E-1
6.907823187E2,-1.985310465E-1,-6.811141968E-2,1.832594397E-3
6.912862863E2,-1.646280587E-1,-4.033234715E-1,-4.428769462E-3
6.917902536E2,8.958331943E-1,-1.178968996E-1,-2.064722925E-1
6.922942208E2,-5.253437161E-1,3.694204688E-1,-3.451386094E-2
6.927981879E2,-2.817613780E-1,-2.386954129E-1,-8.704823442E-3
6.933021550E2,4.764745384E-2,4.547888339E-1,4.367683083E-2
6.938061219E2,-7.910698652E-2,-1.527161949E-4,-9.498947114E-2
6.943100885E2,-2.535088956E-1,-3.787361458E-2,3.266599476E-1
6.948140549E2,-3.604102135E-1,1.070540547E-1,-3.657552898E-1
6.953180211E2,2.657261789E-1,-3.397935331E-1,3.634645343E-1
6.958219870E2,1.890626550E-1,1.443168074E-1,-3.901898861E-1
6.963259529E2,-2.721402645E-1,-3.824013472E-1,-2.193004489E-1
6.968299187E2,1.328630932E-2,4.297433794E-1,2.267835438E-1
6.973338845E2,-1.415679157E-1,-4.786125422E-1,-2.755000293E-1
6.978378507E2,-9.254601598E-2,5.606211424E-1,5.442805290E-1
6.983418173E2,1.285870373E-1,-3.856084049E-1,-7.283035517E-1
6.988457841E2,-5.181660652E-1,4.170679152E-1,6.407971382E-1
6.993497514E2,2.524398565E-1,1.401934624E-1,-8.611665964E-1
6.998537189E2,-3.726275265E-1,-1.557705179E-2,8.549052477E-1
7.003576866E2,5.772672221E-2,-2.974911332E-1,-9.685261250E-1
7.008616545E2,1.221729536E-2,-3.069595434E-2,8.251255751E-1
7.013656225E2,-8.200860023E-2,2.231183648E-1,-3.825540543E-1
7.018695906E2,-1.046105921E-1,-1.951712966E-1,4.657844082E-2
7.023735590E2,3.355174661E-1,3.848448023E-2,-2.993237413E-2
7.028775277E2,-1.957821548E-1,-2.768744528E-1,-3.178023994E-1
7.033814964E2,-2.345720828E-1,3.544542789E-1,3.981311321E-1
7.038854652E2,2.134972364E-1,-3.359756172E-1,-7.524327040E-1
7.043894341E2,-7.861829996E-1,5.396990180E-1,6.383537054E-1
7.048934029E2,2.742782831E-1,-3.730856776E-1,-8.396336436E-1
7.053973716E2,-3.604102135E-1,4.001164436E-2,7.440332770E-1
7.059013400E2,2.225074917E-1,-2.046396956E-2,-7.516691089E-1
7.064053084E2,7.956513762E-2,-4.573850036E-1,9.062178731E-1
7.069092767E2,3.013090491E-1,-8.093958721E-3,-5.948295593E-1
7.074132450E2,-1.774562150E-1,-2.362519503E-1,3.659079969E-1
7.079172129E2,6.398808211E-2,1.739437431E-1,-2.179260105E-1
7.084211805E2,4.291325063E-2,-4.781544209E-1,-2.089157552E-1
7.089251478E2,-2.483165264E-1,3.408625424E-1,3.185659945E-1
7.094291146E2,3.680460155E-2,-3.362810612E-1,-4.190532267E-1
7.099330814E2,-2.718348242E-2,-3.741546720E-2,3.153589368E-1
7.104370479E2,-1.994473487E-1,5.558869615E-2,-1.768453568E-1
7.109410141E2,1.974620372E-1,-4.824304581E-1,7.796161771E-1
7.114449802E2,-4.654789567E-1,-1.679878100E-3,-3.185659945E-1
7.119489461E2,1.276707351E-1,-5.803215504E-2,7.504473925E-1
7.124529117E2,8.277218044E-2,-2.799287736E-1,-2.947422490E-2
7.129568773E2,-1.418733448E-1,1.656970680E-1,-5.513054505E-2
7.134608430E2,1.715002805E-1,1.189353704E0,-3.830122054E-1
7.139648088E2,-1.423314959E-1,-1.681405306E-1,-4.650208056E-1
7.144687747E2,-4.237874448E-1,6.027708054E-1,-3.526217043E-1
7.149727407E2,2.701549530E-1,-9.240856767E-1,-7.648026943E-1
7.154767068E2,3.756818548E-2,-1.421787739E-1,1.372002244E0
7.159806728E2,2.602283955E-1,-8.854485154E-1,-5.143481493E-1
7.164846388E2,7.269290835E-2,6.180424690E-1,1.398880333E-1
7.169886048E2,2.846629918E-1,-2.687804997E-1,8.735366166E-2
7.174925708E2,-4.167625010E-1,1.153007299E-1,-2.570213675E-1
7.179965367E2,-1.838703007E-1,-1.629481763E-1,-4.108065665E-1
7.185005024E2,2.550360374E-2,-5.345066786E-1,4.349357188E-1
7.190044681E2,6.414080411E-2,2.260199748E-2,-4.088212550E-1
7.195084337E2,-1.249218509E-1,-1.102610901E-1,-3.100138903E-1
7.200123994E2,-4.117228687E-1,2.680169344E-1,3.144426346E-1
7.205163651E2,2.003636509E-1,-4.763218164E-1,-5.627591610E-1
7.210203309E2,-4.091266990E-1,1.458439678E-1,9.708168507E-1
7.215242967E2,1.751654744E-1,1.079703495E-1,-1.120631456E0
7.220282626E2,1.710421443E-1,-5.532907844E-1,1.273194909E0
7.225322288E2,-2.716821134E-1,1.782197952E-1,-1.031139731E0
7.230361950E2,5.681042373E-2,-4.679224193E-1,7.270817757E-1
7.235401614E2,5.386300087E-1,2.293797284E-1,-1.838703007E-1
7.240441279E2,-2.131918073E-1,-2.748891525E-2,-5.842921734E-1
7.245480945E2,-2.451094985E-1,2.107483447E-1,5.772672296E-1
7.250520611E2,-1.831067204E-1,-3.550651670E-1,-9.999856353E-1
7.255560276E2,-3.808741868E-1,1.605047137E-1,1.195462346E0
7.260599940E2,9.101885557E-2,1.620318890E-1,-1.227074623E0
7.265639604E2,-5.167915821E-1,-1.180496216E-1,1.674685836E0
7.270679266E2,-1.432477981E-1,-2.341139317E-1,-1.245400548E0
7.275718926E2,2.078467458E-1,-2.390008420E-1,7.954986691E-1
7.280758586E2,-1.696676910E-1,2.577849329E-1,-7.709113359E-1
7.285798245E2,-6.047561392E-2,1.262962967E-1,6.963858753E-2
7.290837903E2,7.834340632E-2,1.664606482E-1,-3.918697536E-1
7.295877560E2,-1.238528341E-1,1.589775532E-1,4.214967042E-2
7.300917215E2,3.301724195E-1,3.662134409E-1,-1.466075480E-1
7.305956867E2,-2.096793354E-1,-4.002691507E-1,-1.808159798E-1
7.310996517E2,-5.723803043E-1,5.910116807E-2,3.675878942E-1
7.316036165E2,3.481929302E-1,-2.116646469E-1,-9.454659820E-1
7.321075811E2,-9.718858600E-1,2.513708472E-1,9.801325202E-1
7.326115457E2,4.682278633E-1,3.275762498E-1,-1.002276421E0
7.331155100E2,-4.612029195E-1,-7.304415703E-1,1.060919404E0
7.336194742E2,2.283107042E-1,4.935787320E-1,-6.647735834E-1
7.341234381E2,-2.773326039E-1,-5.178605914E-1,2.156352699E-1
7.346274019E2,3.732383847E-1,-2.428187430E-2,-7.834340632E-2
7.351313656E2,-2.229656428E-1,-9.915862679E-1,-1.600465775E-1
7.356353291E2,-3.596466482E-1,3.588830531E-1,5.232056975E-1
7.361392925E2,2.177732885E-1,-1.989891976E-1,2.188423127E-1
7.366432559E2,-3.352120519E-1,4.211912751E-1,2.299905866E-1
7.371472193E2,1.206457913E-1,-8.735366464E-1,1.061377525E-1
7.376511824E2,-8.216131479E-2,-5.222893879E-2,2.122755162E-2
7.381551454E2,-3.176496923E-1,-1.589775532E-1,-1.075885534E0
7.386591082E2,-1.276707351E-1,3.211621642E-1,9.341649413E-1
7.391630707E2,-2.153298408E-1,-2.043342739E-1,-8.310815096E-1
7.396670329E2,6.551524997E-2,-5.323686600E-1,7.965676785E-1
7.401709948E2,-2.150243968E-1,7.864884287E-2,-5.539016128E-1
7.406749571E2,-1.684459597E-1,-9.315688163E-2,1.328630894E-1
7.411789201E2,6.337722391E-2,4.575377107E-1,-1.484401375E-1
7.416828839E2,-8.903354406E-2,-4.970912039E-1,-4.474584386E-2
7.421868484E2,-3.572031856E-1,4.999928176E-1,2.539670467E-1
7.426908132E2,1.740964688E-2,-6.024653912E-1,-9.217949510E-1
7.431947781E2,-6.320923567E-1,1.360701323E-1,1.110552192E0
7.436987430E2,-2.147189677E-1,-2.629773021E-1,-1.081536055E0
7.442027077E2,1.232419685E-1,-8.826996386E-2,1.401781917E0
7.447066724E2,-2.043342739E-1,-5.024362728E-2,-1.110094070E0
7.452106370E2,-6.597339362E-2,-3.830122054E-1,7.880155444E-1
7.457146014E2,-1.939495653E-2,1.463021189E-1,-2.547306120E-1
7.462185658E2,1.463021189E-1,-3.486510813E-1,-1.114828214E-1
7.467225302E2,-1.061377525E-1,2.405280024E-1,-2.228129357E-1
7.472264947E2,9.453132749E-2,-2.716821134E-1,6.536252797E-2
7.477304590E2,-4.196641147E-1,4.098902643E-1,-2.374736816E-1
7.482344231E2,-8.674279600E-2,-1.078176349E-1,-2.307541668E-1
7.487383870E2,-6.887500733E-2,-1.343902480E-2,6.814196706E-1
7.492423505E2,-4.225656986E-1,5.268708616E-2,-7.203623056E-1
7.497463137E2,3.452913165E-1,-4.057669342E-1,1.034194112E0
7.502502767E2,-1.047633067E-1,8.567378670E-2,-7.451022863E-1
7.507542395E2,-8.109229803E-2,-2.306014486E-2,3.051269650E-1
7.512582021E2,2.562577724E-1,8.002328873E-2,-8.872810751E-2
7.517621646E2,-1.592829973E-1,-1.076649204E-1,7.070759684E-2
7.522661269E2,-1.574503928E-1,4.158461988E-1,1.351538301E-1
7.527700889E2,-1.212566569E-1,-5.392408967E-1,-2.335030586E-1
7.532740508E2,1.339320987E-1,-2.107483521E-2,-1.427896470E-1
7.537780125E2,-2.596175298E-2,1.192713454E-1,-2.380845547E-1
7.542819741E2,2.455676347E-1,6.444623470E-1,2.251036763E-1
7.547859356E2,-5.722275972E-1,-3.643808365E-1,-1.511890292E-1
7.552898973E2,2.275471389E-2,-2.258672565E-1,7.307469845E-1
7.557938594E2,-5.184714794E-1,-2.270889878E-1,-4.754055142E-1
7.562978222E2,4.805978537E-1,-2.518289983E-1,4.604393244E-1
7.568017856E2,8.338304609E-2,-1.024725661E-1,-2.724456787E-1
7.573057495E2,-4.092793912E-2,-9.590577334E-2,2.916879356E-1
7.578097140E2,1.574503928E-1,2.304487377E-1,-1.143844277E-1
7.583136790E2,-2.197586000E-1,-2.671006322E-1,-1.221729559E-3
7.588176443E2,-1.412624866E-1,4.731147587E-1,8.933897316E-2
7.593216098E2,2.825249545E-2,-4.850266278E-1,-3.178023994E-1
7.598255752E2,-4.118755758E-1,7.020363212E-1,1.145371422E-2
7.603295409E2,2.784016132E-1,-6.042979956E-1,-1.887572110E-1
7.608335069E2,-2.437350452E-1,3.753764033E-1,3.416261375E-1
7.613374732E2,-2.028071135E-1,-1.629481763E-1,-3.759872615E-1
7.618414396E2,3.329212964E-2,1.394298822E-1,6.878337264E-1
7.623454063E2,-3.614792228E-1,-4.810560122E-2,-8.080213666E-1
7.628493735E2,5.025889874E-1,-6.472112536E-1,5.800161362E-1
7.633533411E2,-3.260490894E-1,2.237292230E-1,-3.767508566E-1
7.638573088E2,-5.513054505E-2,-2.962694131E-2,5.636754632E-1
7.643612767E2,-9.743293375E-2,3.527744114E-1,-7.770199776E-1
7.648652448E2,-5.238165334E-2,-5.426006317E-1,6.042979956E-1
7.653692136E2,8.826996386E-2,3.471239209E-1,-4.746419191E-1
7.658731831E2,-1.527161896E-1,-2.440404743E-1,7.900008559E-1
7.663771529E2,-2.415970266E-1,3.692677617E-1,-3.930914998E-1
7.668811231E2,-3.614792228E-1,-3.758345544E-1,-1.356119812E-1
7.673850936E2,7.040216774E-2,6.044507027E-1,-2.153298259E-2
7.678890644E2,-3.098611534E-1,-5.268708616E-2,-6.307178736E-2
7.683930352E2,6.172788739E-1,-1.406516135E-1,-6.673697382E-2
7.688970059E2,-7.900008559E-1,1.366809905E-1,1.522580534E-1
7.694009762E2,-3.060432673E-1,5.696313977E-1,3.744601011E-1
7.699049461E2,3.955349326E-2,8.826996386E-2,-1.968511790E-1
7.704089158E2,-1.276707351E-1,1.149952933E-1,1.206457894E-2
7.709128850E2,1.832594397E-3,4.602866173E-1,1.201876476E-1
7.714168538E2,-2.333503515E-1,-3.237583488E-2,-2.495382577E-1
7.719208221E2,-1.038470119E-2,-2.716821134E-1,2.200640440E-1
7.724247900E2,-6.108647957E-2,7.635809481E-2,-3.805687428E-1
7.729287576E2,-4.868592322E-1,3.387245238E-1,5.806269646E-1
7.734327248E2,2.182314396E-1,-3.622428179E-1,-8.570432663E-1
7.739366916E2,-1.556178033E-1,2.741255760E-1,8.625410795E-1
7.744406581E2,-1.913533956E-1,1.346956789E-1,-7.619010806E-1
7.749446243E2,1.637117565E-1,-3.352120519E-1,5.798633695E-1
7.754485902E2,2.901607752E-2,-1.262962967E-1,-2.837466896E-1
7.759525556E2,-3.292561173E-1,-6.704241037E-2,4.718930274E-2
7.764565207E2,-1.020144150E-1,1.073594838E-1,-1.333212405E-1
7.769604855E2,9.651663154E-2,-6.444623321E-2,-2.046397030E-1
7.774644502E2,-1.272125840E-1,-2.458730713E-2,7.696896046E-2
7.779684144E2,-3.090975881E-1,2.527453005E-1,-1.876882017E-1
7.784723785E2,3.451386094E-2,-2.335030586E-1,7.796161771E-1
7.789763424E2,1.093447953E-1,-1.831067204E-1,-6.440041661E-1
7.794803061E2,3.028362095E-1,-6.082686186E-1,7.660244107E-1
7.799842695E2,-6.200277433E-2,1.493564397E-1,-7.032580972E-1
7.804882328E2,-7.467821985E-2,-5.172497630E-1,1.047633067E-1
7.809921960E2,8.185587823E-2,3.891208768E-1,5.436696410E-1
7.814961591E2,-1.695149764E-2,-5.262600183E-1,-8.712459207E-1
7.820001219E2,-3.857611120E-1,2.099847645E-1,5.809323788E-1
7.825040847E2,1.627954692E-1,-2.620609999E-1,-5.922334194E-1
7.830080472E2,-4.506655037E-1,5.238165334E-2,5.763509274E-1
7.835120096E2,1.243109852E-1,-3.894263133E-2,-7.018836141E-1
7.840159719E2,1.336266696E-1,-3.756818473E-1,1.044884205E0
7.845199341E2,-2.736674249E-1,-7.635809481E-2,-1.295186043E0
7.850238963E2,5.288561583E-1,-9.031635523E-1,5.546652079E-1
7.855278583E2,2.196058929E-1,-4.459312931E-2,7.895427197E-2
7.860318203E2,-8.872810751E-2,-1.003345400E-1,-2.748891525E-2
7.865357823E2,4.612028971E-2,2.093739063E-1,-6.185005978E-2
7.870397441E2,-1.041524485E-1,-3.255909383E-1,-1.942549944E-1
7.875437059E2,-6.704241037E-2,1.463021189E-1,4.065304995E-1
7.880476676E2,-7.803797722E-2,-3.246746361E-1,-6.407971382E-1
7.885516292E2,7.712167501E-2,3.848448023E-2,7.678570151E-1
7.890555907E2,-3.193295598E-1,-5.879573524E-2,-7.273872495E-1
7.895595522E2,2.692386508E-1,-4.647153914E-1,7.295252681E-1
7.900635135E2,8.093958348E-2,1.643226296E-1,-6.116283536E-1
7.905674747E2,-3.213148713E-1,-1.786779426E-2,1.937968582E-1
7.910714358E2,-7.987056673E-2,8.594867587E-1,-2.794706449E-2
7.915753969E2,-3.420842811E-2,-7.284562588E-1,-7.223475724E-2
7.920793579E2,-1.171333194E-1,1.117882580E-1,2.512181401E-1
7.925833188E2,3.970621154E-2,-2.017380893E-1,-3.488037884E-1
7.930872797E2,1.038470119E-1,-5.329795182E-2,5.322159529E-1
7.935912403E2,-3.098611534E-1,2.993237376E-1,-7.040216327E-1
7.940952009E2,1.114828214E-1,-3.640754223E-1,7.887791395E-1
7.945991614E2,-1.356119812E-1,3.512472380E-3,-8.407026529E-1
7.951031220E2,-6.459894776E-2,-1.166751757E-1,4.506655037E-1
7.956070826E2,5.482511222E-2,6.307178736E-2,-4.192059636E-1
7.961110430E2,-1.824958473E-1,1.924224049E-1,3.161225095E-2
7.966150035E2,-5.563451052E-1,5.861247778E-1,1.786779463E-1
7.971189640E2,1.230892539E-1,-3.889681399E-1,-4.080576599E-1
7.976229244E2,-4.457785785E-1,4.202749729E-1,3.839285076E-1
7.981268849E2,-8.246674202E-3,-1.672242284E-1,-5.300779343E-1
7.986308453E2,-2.486219704E-1,-1.212566569E-1,6.655371785E-1
7.991348057E2,-1.763872057E-1,-3.970621154E-2,-6.924152374E-1
7.996387662E2,3.344484568E-1,-3.303251266E-1,8.797979951E-1
8.001427265E2,-1.081230640E-1,-2.961167097E-1,-4.123337269E-1
8.006466866E2,1.866191924E-1,-1.542433500E-1,4.059196413E-1
8.011506464E2,-2.785543501E-1,-1.247691289E-1,-8.907935619E-1
8.016546062E2,1.528689116E-1,8.811724186E-2,2.741255760E-1
8.021585665E2,-2.506072819E-1,1.117882580E-1,-2.871064544E-1
8.026625277E2,1.339320987E-1,-6.612611562E-2,1.119409725E-1
8.031664901E2,-5.299251899E-2,1.757763475E-1,3.961458206E-1
8.036704533E2,1.802051067E-2,-5.025889874E-1,-5.765036345E-1
8.041744172E2,-1.985310465E-1,4.683805704E-1,5.716167092E-1
8.046783816E2,2.345720828E-1,-1.893680729E-2,2.675587833E-1
8.051823464E2,-1.017089859E-1,1.081230640E-1,-3.827067912E-1
8.056863115E2,-3.478874862E-1,4.201222658E-1,3.711003438E-2
8.061902767E2,-2.703076601E-2,2.631300092E-1,7.849612087E-2
8.066942419E2,-2.785543501E-1,-7.284562290E-2,-2.183841616E-1
8.071982070E2,2.449567765E-1,-5.433642268E-1,3.686569035E-1
8.077021723E2,-1.313359290E-2,3.364337683E-1,-2.460257858E-1
8.082061374E2,6.719512399E-3,-5.309942365E-1,1.047633067E-1
8.087101025E2,-2.286161482E-1,5.470294356E-1,-3.116937578E-1
8.092140676E2,-5.955931731E-3,-3.949240744E-1,-2.138026804E-2
8.097180325E2,-4.621191919E-1,6.143772602E-1,7.254019380E-2
8.102219973E2,3.610210717E-1,-2.115119249E-1,-9.666935354E-2
8.107259619E2,-7.967203856E-1,5.532907844E-1,1.620318890E-1
8.112299264E2,2.641990185E-1,-3.434587121E-1,-5.864301920E-1
8.117338906E2,-4.511236250E-1,4.036289155E-1,4.181369543E-1
8.122378547E2,3.121519089E-1,-5.132791400E-1,-6.107120514E-1
8.127418187E2,-2.530507445E-1,3.946186602E-1,7.170025110E-1
8.132457825E2,1.814268380E-1,-3.341430426E-1,-6.589703560E-1
8.137497462E2,-5.100720748E-2,2.580903657E-2,6.801979542E-1
8.142537097E2,-8.384118974E-2,-6.953168511E-1,-8.061888218E-1
8.147576730E2,1.924224012E-2,3.026835024E-1,1.077870846E0
8.152616363E2,-5.140427351E-1,1.357647032E-1,-7.310523987E-1
8.157655995E2,1.088866442E-1,-5.685623884E-1,1.063057423E0
8.162695627E2,2.965748608E-1,-4.761691093E-1,-9.294307828E-1
8.167735260E2,-3.985892609E-2,-5.009090900E-1,5.125155449E-1
8.172774891E2,-3.211621642E-1,5.210676789E-1,-3.142899275E-1
8.177814522E2,2.965748608E-1,-2.125809491E-1,-5.581777096E-1
8.182854153E2,-7.148644924E-1,-1.191186346E-2,8.452841640E-1
8.187893782E2,2.021962404E-1,3.207040019E-3,-1.361922979E0
8.192933412E2,-4.331031144E-1,-2.098320574E-1,1.358868718E0
8.197973045E2,-1.417206228E-1,2.177732885E-1,-1.257312417E0
8.203012669E2,-9.117157012E-2,-9.040798992E-2,1.039539099E0
8.208052299E2,1.565341055E-1,-5.131264031E-2,-4.315759540E-1
8.213091929E2,1.290451884E-1,-2.478583902E-1,-1.007926930E-2
8.218131562E2,-3.039052188E-1,2.081521749E-1,1.996000707E-1
8.223171195E2,-4.948004708E-2,3.115410358E-2,-4.654789567E-1
8.228210830E2,-2.495382577E-1,-6.750056148E-2,5.687150955E-1
8.233250464E2,-5.360338464E-2,9.911280870E-2,-6.604975462E-1
8.238290099E2,3.909534588E-2,-3.042106628E-1,8.272636533E-1
8.243329734E2,-2.050978541E-1,2.257145345E-1,-4.262309074E-1
8.248369369E2,7.742711157E-2,1.867718995E-1,-4.276053514E-3
8.253409004E2,1.908952370E-2,2.819140851E-1,1.800523996E-1
8.258448638E2,-6.108647678E-3,-5.314523727E-2,-1.678351015E-1
8.263488273E2,-3.466657698E-1,2.371682525E-1,1.072067693E-1
8.268527907E2,-3.619373962E-2,1.679878123E-2,-4.037816226E-1
8.273567542E2,8.268054724E-1,1.175303817E0,-8.581122756E-1
8.278607176E2,8.429933786E-1,1.983019829E0,1.253799945E-1
8.283646813E2,-1.510363221E-1,5.497782957E-3,2.533561587E-1
8.288686451E2,-6.948586553E-2,2.646571696E-1,4.068359435E-1
8.293726091E2,2.122755051E-1,1.461493969E-1,-1.159421325E0
8.298765732E2,-6.870701313E-1,-5.033525825E-1,-6.765327603E-2
8.303805374E2,-1.718057245E-1,2.904661894E-1,-6.198750138E-1
8.308845015E2,-4.641045034E-1,3.518581092E-1,-5.775726438E-1
8.313884656E2,-5.198459029E-1,-1.165224537E-1,-3.396408260E-1
8.318924297E2,-4.657844007E-1,9.086613357E-2,-4.946477413E-1
8.323963938E2,7.660244107E-1,-1.159268618E0,5.986474827E-2
8.329003577E2,-5.161807314E-2,-5.937605500E-1,1.232877851E0
8.334043216E2,-2.147189677E-1,-9.556979537E-1,-1.387884736E0
8.339082855E2,-8.478803039E-1,8.536835015E-2,8.185588121E-1
8.344122492E2,2.222020626E-1,-7.513637096E-2,-1.534645081E0
8.349162128E2,-2.562577724E-1,-3.481929302E-1,1.627649188E0
8.354201764E2,-6.841685623E-2,-4.382954910E-2,-1.383455992E0
8.359241398E2,1.372918636E-1,-9.045380354E-1,1.253647208E0
8.364281030E2,-3.179551065E-1,4.729620516E-1,-5.086976290E-1
8.369320662E2,1.192713454E-1,-2.435823381E-1,-3.289506733E-1
8.374360292E2,-3.086394370E-1,6.189587116E-1,1.962403059E-1
8.379399920E2,2.509126961E-1,-1.925751269E-1,-3.316995800E-1
8.384439548E2,-4.821250141E-1,3.213148713E-1,5.758927464E-1
8.389479174E2,2.768744528E-1,-1.114828214E-1,-5.878046155E-1
8.394518799E2,-2.764163017E-1,-4.856374860E-2,7.968730927E-1
8.399558424E2,8.353576064E-2,2.012799382E-1,-8.002328873E-1
8.404598049E2,-2.139553875E-1,-7.528908551E-2,4.923570156E-1
8.409637672E2,3.089448512E-1,-6.185005903E-1,-1.093447953E-1
8.414677294E2,6.452259421E-1,-6.070469022E-1,6.840158105E-1
8.419716916E2,-2.855792828E-2,9.259182811E-1,-1.611155868E-1
8.424756537E2,-5.621483326E-1,-5.525271893E-1,7.327322960E-1
8.429796160E2,5.968148708E-1,1.191797137E0,-6.737838387E-1
8.434835783E2,-4.763218164E-1,-3.808741868E-1,-4.016436040E-1
8.439875407E2,-1.525634825E-1,9.269873053E-2,-1.568395346E-1
8.444915032E2,-2.136499584E-1,1.084285006E-1,-2.315177470E-1
8.449954657E2,2.412915826E-1,-3.674351573E-1,7.406735420E-2
8.454994283E2,-4.337139800E-2,1.125518382E-1,-1.267544460E-2
8.460033910E2,-3.646862805E-1,2.419024557E-1,-3.732383847E-1
8.465073537E2,-1.200349256E-1,3.054323979E-2,4.821250141E-1
8.470113165E2,1.823431402E-1,-3.669770062E-1,-1.209512278E-1
8.475152793E2,1.189659163E-1,-1.047633067E-1,4.547888339E-1
8.480192420E2,-2.350302190E-1,2.826776803E-1,-4.005745649E-1
8.485232047E2,8.338304609E-2,-2.823722363E-1,3.723220825E-1
8.490271673E2,2.594648004E-1,3.045161068E-1,-8.964440972E-2
8.495311298E2,-1.930332631E-1,4.535670951E-2,-1.049160287E-1
8.500350923E2,-2.018908113E-1,1.481347084E-1,2.069304436E-1
8.505390546E2,3.985892609E-2,-1.478292793E-1,1.018617004E-1
8.510430169E2,-4.214967042E-2,-1.188132018E-1,-3.681987524E-1
8.515469791E2,-8.231402934E-2,-1.435532272E-1,-3.017672002E-1
8.520509412E2,2.060141414E-1,-9.834922850E-2,6.600393653E-1
8.525549033E2,-2.547306120E-1,2.661843300E-1,-6.508764029E-1
8.530588652E2,-7.162389904E-2,-1.620318890E-1,7.544180155E-1
8.535628270E2,1.320995092E-1,7.819069177E-2,-5.549706817E-1
8.540667886E2,-1.925751269E-1,-9.162971377E-2,4.780016840E-2
8.545707502E2,-1.910479665E-1,1.779143661E-1,5.910116807E-2
8.550747118E2,-9.361502528E-2,1.175914705E-2,-4.818195999E-1
8.555786733E2,-9.101885557E-2,-2.968802750E-1,6.197223067E-1
8.560826346E2,-1.299614757E-1,2.981020212E-1,-8.190169334E-1
8.565865958E2,2.932151034E-2,-8.765909821E-2,8.193224072E-1
8.570905569E2,2.344193608E-1,-1.580612659E-1,-3.981311321E-1
8.575945179E2,3.817904741E-2,-4.825831577E-2,2.281579971E-1
8.580984787E2,5.940660089E-2,2.031125315E-2,-2.390008420E-1
8.586024396E2,-5.390881747E-2,-7.345648855E-2,9.315688163E-3
8.591064004E2,-3.147480786E-1,-2.577849329E-1,-5.650499370E-3
8.596103612E2,1.527161989E-2,2.200640440E-1,-3.304778337E-1
8.601143221E2,2.412915789E-2,6.505709887E-2,3.379609287E-1
8.606182828E2,8.414662629E-2,1.185077652E-1,-2.463312149E-1
8.611222434E2,7.819069177E-2,-2.987128794E-1,4.856374860E-2
8.616262038E2,-3.054323979E-2,2.041815519E-1,-4.118755758E-1
8.621301643E2,-7.055488229E-2,2.883281708E-1,4.537198246E-1
8.626341248E2,-3.772090077E-1,-2.782489061E-1,-8.720094711E-2
8.631380853E2,9.315688163E-3,-1.679878123E-2,1.090393662E-1
8.636420458E2,2.197586000E-1,-1.831067204E-1,4.537198246E-1
8.641460062E2,-3.769035637E-1,4.691441655E-1,-5.326740742E-1
8.646499667E2,1.679878086E-1,-4.105011225E-1,3.962985277E-1
8.651539270E2,-2.504545636E-2,-9.162971750E-3,-1.411097646E-1
8.656578871E2,2.086103261E-1,-6.618719697E-1,-2.318231910E-1
8.661618473E2,1.380554438E-1,5.534434915E-1,9.972367436E-2
8.666658074E2,3.100138716E-2,-3.558287323E-1,-2.107483447E-1
8.671697675E2,-2.477056682E-1,4.272999167E-1,-8.613193035E-2
8.676737277E2,-4.352411628E-2,-1.713475734E-1,1.776089370E-1
8.681776879E2,1.374445707E-1,-2.645044625E-1,1.221729536E-2
8.686816480E2,5.039634556E-2,1.357647032E-1,-6.505709887E-2
8.691856082E2,1.821904182E-1,-1.760817766E-1,-4.948004708E-2
8.696895684E2,-5.696314201E-2,3.500255048E-1,6.551524997E-2
8.701935286E2,1.317940801E-1,-1.893680841E-1,-9.850194305E-2
8.706974888E2,-5.068650246E-1,3.034470677E-1,3.234528899E-1
8.712014490E2,5.085449293E-2,-4.578431547E-1,-4.857902229E-1
8.717054092E2,-3.802633286E-2,3.950767815E-1,6.954695582E-1
8.722093694E2,-2.631300092E-1,-1.201876476E-1,-3.014617562E-1
8.727133295E2,5.146535859E-2,-5.229002237E-1,-5.681042373E-2
8.732172896E2,-1.970038936E-2,1.773035079E-1,-1.218675226E-1
8.737212498E2,4.393644929E-1,-8.329141140E-1,6.230820715E-2
8.742252102E2,-2.318231910E-1,7.221949100E-1,-1.157588735E-1
8.747291707E2,-1.342375278E-1,-1.617264450E-1,-1.105665267E-1
8.752331315E2,-2.646571696E-1,2.295324355E-1,2.522871494E-1
8.757370924E2,-1.670715213E-1,2.168569900E-2,-2.388481349E-1
8.762410537E2,9.773836471E-3,8.048143238E-2,7.425061464E-1
8.767450151E2,-1.304196268E-1,-1.689041108E-1,-6.693550944E-1
8.772489884E2,3.159697950E-1,-4.088212550E-1,3.825540543E-1
8.777529385E2,-2.046397030E-1,3.254382014E-1,-1.415679157E-1
8.782569003E2,1.921169758E-1,-3.811796308E-1,-1.010981202E-1
8.787608621E2,-2.837466896E-1,7.177661359E-2,-3.979783952E-1
8.792648240E2,5.838339925E-1,-3.240637779E-1,1.478292793E-1
8.797687858E2,-2.202167511E-1,-5.375609919E-2,1.884517819E-1
8.802727476E2,2.231183648E-1,-2.654207349E-1,-3.782780170E-1
8.807767095E2,-5.902481079E-1,5.664243698E-1,6.181951761E-1
8.812806715E2,2.451094985E-1,-3.911061883E-1,-5.839866996E-1
8.817846335E2,-3.729329407E-1,1.550069451E-1,6.185005903E-1
8.822885956E2,3.149007857E-1,-2.806923687E-1,-9.398154616E-1
8.827925579E2,-4.366155863E-1,2.144135386E-1,1.191644430E0
8.832965203E2,2.779434808E-2,-2.370155305E-1,-7.984002829E-1
8.838004830E2,5.100720748E-2,7.864884287E-2,6.404917240E-1
8.843044457E2,7.437278330E-2,1.832594397E-3,-2.984074354E-1
8.848084087E2,3.145953640E-2,9.601266980E-1,-1.313970089E0
8.853123719E2,5.748237371E-1,1.629176378E0,-9.755510688E-1
8.858163350E2,6.627883017E-2,3.891208768E-1,-2.474002391E-1
8.863202983E2,2.794706449E-2,3.909534588E-2,1.339320987E-1
