"Time (s)","Linear Acceleration x (m/s^2)","Linear Acceleration y (m/s^2)","Linear Acceleration z (m/s^2)"
8.373750000E-3,-7.127046585E-2,1.221933126E0,-3.886203766E-1
2.100170320E-1,-4.110314846E-1,1.115529418E0,6.277017593E-1
7.100170320E-1,1.145674706E0,-3.221901655E-1,2.005375862E0
1.210017032E0,2.157716513E0,8.017534614E-1,-1.123304367E0
1.710017032E0,-2.970301390E0,4.417172432E0,1.689864635E0
2.210017032E0,-7.477378845E-2,4.683728218E-1,4.663685799E0
2.710017032E0,2.603354454E-1,-1.846329212E0,-3.781684637E0
3.210017032E0,-7.282204628E-1,4.990210533E-1,-1.188613772E0
3.710017032E0,-8.104724884E-1,-3.898829460E0,-1.143155575E0
4.210017032E0,2.159882545E0,-2.115090370E0,-3.679765463E-1
4.710017032E0,-2.560019493E-1,1.275658607E-1,-9.991682768E-1
5.210017032E0,2.348862171E0,-1.713986397E0,-7.756015062E-1
5.710017032E0,5.000669956E-1,2.807269096E0,-1.908364534E0
6.210017032E0,-2.885737419E-1,-6.942195892E-1,2.095231056E0
6.710017032E0,-1.599526405E-2,2.813109875E0,-1.295360923E0
7.210017032E0,-2.613018513E0,-4.750618935E-1,2.139666557E0
7.710017032E0,1.038694620E0,-1.296586037E0,6.265742779E-1
8.210017032E0,-3.355518103E0,-1.253646851E0,1.186811805E0
8.710017032E0,2.763497829E0,-2.589445591E0,1.194354773E0
9.210017032E0,-1.689527988E0,-1.858098030E0,8.405518532E-1
9.710017032E0,3.417315483E0,-1.816657066E0,5.057549477E-1
1.021001703E1,-5.302906036E-3,-2.113186836E0,9.625822306E-2
1.071001703E1,1.804481030E0,-1.239353657E0,-7.506370544E-3
1.121001703E1,5.730471611E-1,-2.141971588E0,2.686958909E-1
1.171001703E1,8.399581909E-1,1.169643402E0,2.641832590E0
1.221001703E1,1.914162636E-1,-1.118718147E0,3.632342815E-1
1.271001703E1,2.738132477E0,-1.895596504E0,-1.247618198E-1
1.321001703E1,8.107905388E-1,1.372642994E0,-7.009526491E-1
1.371001703E1,1.290794373E0,-7.883567810E-1,1.422806978E0
1.421001703E1,4.799871445E-1,2.644635201E0,-1.066154599E0
1.471001703E1,-2.623324394E-1,1.526470184E-1,2.722948551E0
1.521001703E1,1.389371634E0,1.609979153E0,-7.344973087E-1
1.571001703E1,-2.318117857E0,3.466129303E-2,2.697471380E0
1.621001703E1,7.558043003E-1,1.808490753E-1,7.047953010E-1
1.671001703E1,-1.065116644E0,2.088946819E0,1.020242214E0
1.721001703E1,1.305225372E0,-8.216495514E-1,3.472115993E-1
1.771001703E1,-1.123659849E0,-2.273750305E-2,6.208909750E-1
1.821001703E1,2.955629349E0,-2.710668564E0,1.061654091E-2
1.871001703E1,-1.012022972E0,-2.545001984E0,7.286111116E-1
1.921001703E1,2.704126835E0,-9.300575256E-1,1.179032803E0
1.971001703E1,-2.034053802E-1,-2.432365417E0,3.792406321E-1
2.021001703E1,2.773571014E-1,6.551537514E-1,1.646916986E0
2.071001703E1,-3.998236656E-1,-1.180756569E0,3.230586052E-1
2.121001703E1,-1.512347460E0,5.752363205E-1,3.126195908E0
2.171001703E1,1.118518591E0,1.418901920E0,-6.602225304E-1
2.221001703E1,-2.049184084E0,5.467429161E-1,2.409540892E0
2.271001703E1,1.434206486E0,2.631652832E0,-1.280116081E0
2.321001703E1,-1.369003534E0,-1.669731140E-1,3.783696890E-1
2.371001703E1,8.333780766E-1,1.374040127E0,7.160289288E-1
2.421001703E1,-2.453689575E-1,-2.554646492E0,7.583229542E-1
2.471001703E1,3.108797073E-1,-5.788373947E-1,4.464790821E-1
2.521001703E1,-8.289542198E-1,7.761368752E-1,1.758208394E0
2.571001703E1,2.476823330E0,-1.571543694E0,1.206889153E0
2.621001703E1,2.730798721E-2,-9.755668640E-1,1.583893299E-1
2.671001703E1,2.796785355E0,-1.603135109E0,1.294120669E0
2.721001703E1,6.064743996E-1,-2.264710426E0,1.004812002E0
2.771001703E1,4.313993454E-1,4.352855682E-2,3.984239578E0
2.821001703E1,-1.018390656E-1,-6.567983627E-1,1.697847843E-1
2.871001703E1,-1.174000025E0,-3.972530365E-2,5.002015114E0
2.921001703E1,-4.170413017E-1,2.504284859E0,-1.611463070E0
2.971001703E1,-1.515310049E0,-4.573249817E-2,8.346207142E-1
3.021001703E1,7.701898813E-1,2.735206127E0,-9.185111523E-1
3.071001703E1,-1.021075249E0,-1.768661499E0,1.156287193E-1
3.121001703E1,1.660393953E0,7.311372757E-1,5.616284609E-1
3.171001703E1,-8.834352493E-1,-2.754275322E0,7.810446024E-1
3.221001703E1,2.260313988E0,-1.786884308E0,8.809459209E-1
3.271001703E1,4.674530029E-2,-2.347968102E0,-9.937009811E-1
3.321001703E1,2.402765274E0,-1.892882347E0,2.331240177E0
3.371001703E1,9.855637550E-1,-5.980329514E-1,1.843088627E0
3.421001703E1,3.176314831E0,-2.405941486E0,1.832049012E0
3.471001703E1,1.681419849E0,2.053348064E0,4.302132130E-1
3.521001703E1,2.439127445E0,-1.661406517E0,8.049449921E-1
3.571001703E1,1.140511513E0,3.108013630E0,-3.949403763E-3
3.621001703E1,-1.436348438E0,-2.318477631E-1,3.346906900E0
3.671001703E1,1.346360683E0,1.778165817E0,4.660720825E-1
3.721001703E1,-1.961047649E0,7.915005684E-1,3.592853308E0
3.771001703E1,2.853748798E-1,2.585668087E0,-1.412482500E0
3.821001703E1,-7.172696590E-1,3.826618195E-1,8.867477179E-1
3.871001703E1,5.767731667E-1,3.450570107E0,-4.920768738E-1
3.921001703E1,-7.790768147E-1,-1.567937851E0,-1.085367203E-1
3.971001703E1,1.483677864E0,8.896303177E-1,7.579938173E-1
4.021001703E1,3.548514843E-1,-5.956802368E-1,3.475723267E-1
4.071001703E1,2.145421505E0,-2.663427353E0,1.331273675E0
4.121001703E1,9.432713985E-1,1.726436615E-2,1.800163031E0
4.171001703E1,1.972829342E0,-2.774405479E0,1.231717825E0
4.221001703E1,2.820336342E0,3.921975613E0,-1.171591759E0
4.271001703E1,-1.368377686E0,-3.004717350E0,2.059470415E0
4.321001703E1,3.317862034E0,7.109613419E-1,1.731295586E-1
4.371001703E1,-3.636685133E0,-3.316872120E0,2.942383051E0
4.421001703E1,3.077915668E0,-3.405924797E0,2.512390375E0
4.471001703E1,-2.958059311E0,-2.240959167E0,-4.743647575E-2
4.521001703E1,2.244652271E0,-3.553403378E0,1.207832098E0
4.571001703E1,-1.814049006E0,-3.363907814E0,5.748622417E-1
4.621001703E1,-6.427211761E-1,-3.092498779E0,1.788542867E0
4.671001703E1,-3.381004333E-1,-1.251565933E0,1.543610334E0
4.721001703E1,-4.217691422E0,-2.745538235E0,2.200709820E0
4.771001703E1,3.361012936E0,1.957857609E0,2.005066633E0
4.821001703E1,-3.234668493E0,-1.578932762E0,1.171092272E0
4.871001703E1,3.916310310E0,2.669649601E0,2.464301586E-1
4.921001703E1,-2.570024490E0,-2.302515030E0,-7.447719574E-3
4.971001703E1,2.969866276E0,-2.600378036E0,2.365038395E0
5.021001703E1,-3.015212059E0,-2.508935928E0,1.367120743E-1
5.071001703E1,2.211038113E0,-3.855254173E0,1.553214312E0
5.121001703E1,-1.195017576E0,-2.110768318E0,4.762600660E-1
5.171001703E1,-9.603257179E-1,-4.711580276E0,2.048162460E0
5.221001703E1,1.170176506E0,-2.106287003E0,1.433140278E0
5.271001703E1,-5.685575485E0,-3.953006744E0,1.486909389E-1
5.321001703E1,5.143832207E0,1.365756989E-2,1.865951300E0
5.371001703E1,-4.709782600E0,-1.991449833E0,4.486522675E-1
5.421001703E1,4.441375256E0,3.290031910E0,6.478242874E-1
5.471001703E1,-1.984951019E0,-2.685540199E0,-5.869280100E-1
5.521001703E1,1.780667543E0,1.935282707E0,1.208772659E0
5.571001703E1,-9.708976746E-1,-2.947251320E0,3.541624546E-1
5.621001703E1,2.084225178E0,-1.090717316E0,1.633264780E0
5.671001703E1,6.199679375E-1,-8.212842941E-1,1.285099149E0
5.721001703E1,2.007336617E0,-2.602961540E0,1.253214002E0
5.771001703E1,1.411131620E0,6.620397568E-1,1.717338562E-1
5.821001703E1,2.141964912E0,-2.757103920E0,9.994809628E-1
5.871001703E1,2.088785648E0,3.337564945E0,-7.791564465E-1
5.921001703E1,1.449308395E-1,2.865552902E-2,2.279504299E0
5.971001703E1,1.620360374E0,3.183162212E0,-7.766139507E-1
6.021001703E1,-2.479720831E0,-4.827375412E-1,2.851936102E0
6.071001703E1,1.271335840E0,4.265975952E-1,7.065843344E-1
6.121001703E1,-2.695321321E0,-1.550126076E-1,2.679031610E0
6.171001703E1,1.704332113E0,3.527340412E0,-7.684829235E-1
6.221001703E1,-2.124767065E0,-6.510782242E-1,1.549826503E0
6.271001703E1,8.955736160E-1,3.178916931E0,-8.983776569E-1
6.321001703E1,-1.925592661E0,-2.121294975E0,7.323641777E-1
6.371001703E1,5.445051193E-1,1.147058010E0,1.039320469E0
6.421001703E1,-1.999986172E0,-3.210152149E0,1.022413015E0
6.471001703E1,2.872922897E0,-2.189483643E-1,4.541743994E-1
6.521001703E1,9.671392441E-1,-3.910493851E-1,4.887068272E-1
6.571001703E1,2.197311401E0,-1.902053356E0,1.074435234E0
6.621001703E1,1.873504639E0,1.746949673E0,1.634929180E-1
6.671001703E1,1.964482784E0,-1.343645573E0,1.437102556E0
6.721001703E1,4.949488640E-1,2.865851879E0,-1.201405048E0
6.771001703E1,1.352605820E-1,2.670726776E-1,2.157744884E0
6.821001703E1,1.094221115E0,2.620796680E0,-2.776122093E-2
6.871001703E1,-1.956804752E0,9.751420021E-1,2.497661591E0
6.921001703E1,1.003013968E0,4.826536179E-1,9.829419851E-1
6.971001703E1,-2.984261990E0,2.786889076E-1,1.839502692E0
7.021001703E1,2.089751244E0,-8.771085739E-1,5.434907675E-1
7.071001703E1,-2.300189257E0,-9.524822235E-2,1.431710005E0
7.121001703E1,2.086565971E0,-1.783270836E0,7.100528479E-1
7.171001703E1,-1.805255890E0,-1.104545593E0,-1.956503391E-1
7.221001703E1,2.589179039E0,-2.312188148E0,8.968271613E-1
7.271001703E1,-2.432502747E0,-2.972519875E0,-1.527536511E-1
7.321001703E1,1.390004635E0,-1.539163589E0,2.378545046E0
7.371001703E1,-3.816690445E-1,-3.427700043E0,7.813986540E-1
7.421001703E1,2.878135681E0,-1.703279495E0,1.452561855E0
7.471001703E1,-1.370384455E0,-1.046249390E0,1.185037971E0
7.521001703E1,2.327264786E0,-2.674073219E0,1.201783657E0
7.571001703E1,1.214768648E0,1.965547085E0,1.150341749E0
7.621001703E1,6.208763123E-1,-2.128609180E0,1.277347326E0
7.671001703E1,1.435074806E0,2.502649784E0,7.196116447E-2
7.721001703E1,-1.964400291E0,-2.165879250E0,2.229678869E0
7.771001703E1,1.074229956E0,1.486822605E0,7.618488073E-1
7.821001703E1,-4.359683037E0,-2.640943527E0,3.256218433E0
7.871001703E1,1.444991112E0,3.962688446E-1,1.078321576E0
7.921001703E1,-2.630742311E0,-5.783843994E-2,2.337705612E0
7.971001703E1,1.810679913E0,-2.302124023E0,1.991736531E0
8.021001703E1,-3.046884298E0,-1.581853867E0,3.531941891E0
8.071001703E1,2.008755207E0,-2.813502312E0,1.130119205E0
8.121001703E1,-1.057147026E0,-2.747777939E0,1.784333587E0
8.171001703E1,-4.171476364E-1,-7.233724594E-1,2.555431604E0
8.221001703E1,3.193297386E-1,-1.330246925E0,2.057143450E-1
8.271001703E1,-2.257356882E0,5.329465866E-1,3.308261395E0
8.321001703E1,1.033495665E0,1.551650524E0,-4.741150141E-1
8.371001703E1,-2.693937063E0,-1.837720871E-1,5.333020687E-1
8.421001703E1,1.530387402E-1,2.537666798E0,-1.507027626E0
8.471001703E1,-7.371902466E-2,-2.199511528E0,2.496473789E-1
8.521001703E1,3.942518234E-1,-5.358595848E-1,2.278347731E0
8.571001703E1,5.301179886E-1,-2.114443779E0,1.503618121E0
8.621001703E1,1.529278755E0,-1.483979702E0,4.313103855E-2
8.671001703E1,5.030679703E-2,-8.526010513E-1,7.011679411E-1
8.721001703E1,8.167915344E-1,-2.072587967E0,2.424286842E0
8.771001703E1,7.295856476E-1,-2.087103844E0,2.302107334E0
8.821001703E1,8.673524857E-2,1.058305264E0,2.987089634E0
8.871001703E1,-4.525504112E-1,-1.109825134E0,-1.903337240E-2
8.921001703E1,1.450395584E-1,1.342801571E0,1.608010888E0
8.971001703E1,3.480882645E-1,3.557371616E0,-8.799856901E-1
9.021001703E1,-3.612768650E-1,-7.639884949E-3,-1.383357286E0
9.071001703E1,2.559916973E-1,1.613804817E0,1.088487625E0
9.121001703E1,-3.087854385E-1,-1.719045639E0,4.627676606E-1
9.171001703E1,1.835148573E0,-1.217260361E0,2.019104958E0
9.221001703E1,2.495365143E-1,-2.053652763E0,1.808078051E0
9.271001703E1,2.441786051E0,-2.445965767E0,4.186418951E-1
9.321001703E1,8.888442516E-1,1.024931431E0,-9.456528425E-1
9.371001703E1,2.265240192E0,-9.082460403E-1,1.363723993E0
9.421001703E1,6.511490345E-1,1.520862103E0,-2.556592703E0
9.471001703E1,6.421113014E-1,-1.470572472E0,1.446966171E0
9.521001703E1,6.488614082E-1,2.437210560E0,4.425725937E-1
9.571001703E1,-6.157836914E-1,4.420647621E-1,2.248290300E0
9.621001703E1,-4.452505112E-1,1.020205498E0,7.396526933E-1
9.671001703E1,-2.251083612E0,2.417449951E-1,2.254240036E0
9.721001703E1,7.006387711E-1,-3.242577553E0,6.263594627E-1
9.771001703E1,-1.347985506E0,-2.166398048E0,1.450403929E-1
9.821001703E1,8.881621361E-1,-2.657289505E0,1.166780353E0
9.871001703E1,-2.749915123E-1,-3.048377037E0,2.306064129E0
9.921001703E1,1.547276497E0,-2.219911575E0,8.881381750E-1
9.971001703E1,2.312111855E-1,-4.593334198E-1,-2.125604749E-1
1.002100170E2,1.209400654E0,-3.009456635E0,2.031363249E0
1.007100170E2,2.136485100E0,1.905553341E0,7.708693743E-1
1.012100170E2,3.372697830E-1,-2.025049210E0,2.055032969E0
1.017100170E2,4.996783733E-1,3.028619289E0,-4.349470139E-2
1.022100170E2,-1.326104641E0,-2.318804264E0,2.616356373E0
1.027100170E2,2.949102402E0,9.817008972E-1,1.367730141E0
1.032100170E2,-3.281474352E0,-1.801708221E0,1.993729472E0
1.037100170E2,2.257801533E0,-1.155868530E0,1.931836963E0
1.042100170E2,-3.116218328E0,-1.194002151E0,5.480337143E-2
1.047100170E2,2.334476471E0,-3.408157349E0,2.390231609E0
1.052100170E2,-1.880316734E0,-2.879060745E0,-8.600295782E-1
1.057100170E2,1.184766293E0,-1.820651531E0,9.141954780E-1
1.062100170E2,-1.182218313E0,-3.798038483E0,1.803190827E0
1.067100170E2,-9.609885216E-1,-1.397523880E-1,3.406145096E0
1.072100170E2,5.197556019E-1,-3.002824783E-1,1.126545429E0
1.077100170E2,-3.481292486E0,-5.457797050E-1,3.161150455E0
1.082100170E2,1.236496210E0,3.029689312E0,-1.972308159E-1
1.087100170E2,-2.211363316E0,-3.368806839E-1,1.428597331E0
1.092100170E2,2.219285965E-1,3.040406704E0,-6.239550114E-1
1.097100170E2,-2.244865894E0,-1.708196640E0,4.461850524E-1
1.102100170E2,7.263045311E-1,4.874410629E-1,2.261733294E0
1.107100170E2,-1.527838945E0,-3.378402710E0,2.572953463E0
1.112100170E2,2.601268768E0,-2.615908623E0,1.307539701E0
1.117100170E2,-2.134248495E0,-1.009530067E0,1.498320103E0
1.122100170E2,1.805240631E0,-2.774764061E0,1.317863941E0
1.127100170E2,-2.503251314E0,-2.737926483E0,7.849258184E-2
1.132100170E2,-1.435565948E-1,-2.840893745E0,2.556742191E0
1.137100170E2,1.436057091E-1,-3.799981117E0,2.315434456E0
1.142100170E2,4.162545204E-1,1.370083332E0,2.682492733E0
1.147100170E2,4.783992767E-1,-6.780633926E-1,1.508368015E0
1.152100170E2,-1.975082874E0,1.035902023E0,3.752824783E0
1.157100170E2,-4.701232910E-1,7.563619614E-1,6.329076290E-1
1.162100170E2,-1.462482214E0,1.264278412E0,2.469550133E0
1.167100170E2,-1.162727833E0,2.416512966E0,1.857881546E-1
1.172100170E2,-1.050318956E0,-4.730033875E-2,1.396615267E0
1.177100170E2,-3.063857555E-1,2.485412598E0,1.660081863E0
1.182100170E2,-1.157135487E0,-2.032973289E0,1.327083230E0
1.187100170E2,-2.650351524E-1,1.269417286E0,1.323013067E0
1.192100170E2,5.353574753E-1,-3.162181854E0,1.658401012E0
1.197100170E2,1.143091917E0,-1.217112541E0,2.199691772E0
1.202100170E2,2.672839165E-1,-2.587904453E0,1.462413192E0
1.207100170E2,2.248370171E0,-2.639091492E0,2.130860090E0
1.212100170E2,8.541135788E-1,1.197147369E-1,1.500632763E0
1.217100170E2,2.364484310E0,-2.002236366E0,1.691798091E0
1.222100170E2,7.430331707E-1,2.930320263E0,-1.516599655E-1
1.227100170E2,1.250418186E0,-2.599439621E-1,1.316225886E0
1.232100170E2,4.511477947E-1,3.028987408E0,-3.455398083E-1
1.237100170E2,-3.233623505E-2,3.864188194E-1,3.202193260E0
1.242100170E2,1.097116470E0,-8.610019684E-1,1.653245926E0
1.247100170E2,-1.814879894E0,1.577386856E-1,3.499353170E0
1.252100170E2,8.192720413E-1,6.997199059E-1,3.635816574E-1
1.257100170E2,-1.424477816E0,8.240275383E-1,3.292968035E0
1.262100170E2,9.460830688E-1,2.629950523E0,-8.015434742E-1
1.267100170E2,-1.536319017E0,-3.551025391E-1,1.266635656E0
1.272100170E2,5.481739044E-1,2.517192364E0,-8.961961269E-1
1.277100170E2,-1.303980112E0,-1.059813499E0,-1.553804278E-1
1.282100170E2,7.970790863E-1,6.273818016E-1,9.014924765E-1
1.287100170E2,1.842737198E-1,-2.641528130E0,9.248073101E-1
1.292100170E2,1.620054245E0,-1.818031311E0,1.659524918E0
1.297100170E2,-8.296680450E-2,-1.195361137E0,1.616983414E-1
1.302100170E2,1.693663120E0,-2.125514984E0,4.331293106E-1
1.307100170E2,1.746197224E0,1.185412884E0,-6.199572086E-1
1.312100170E2,1.085440636E0,-1.815114498E0,1.578444123E0
1.317100170E2,1.180767298E0,3.358221531E0,-1.752608061E0
1.322100170E2,-1.510725021E-1,4.479436874E-1,3.350116730E0
1.327100170E2,1.049987316E0,1.949255466E0,-5.402445793E-2
1.332100170E2,-2.685075283E0,3.623189926E-1,2.819992781E0
1.337100170E2,2.486449003E0,-1.660362244E0,1.486227036E0
1.342100170E2,-2.505838394E0,-1.706695557E0,2.534746408E0
1.347100170E2,3.067002773E0,-3.400200844E0,2.175552368E0
1.352100170E2,-1.064806461E0,-1.851823807E0,7.853562832E-1
1.357100170E2,3.562515736E0,-1.284499168E0,2.233635902E0
1.362100170E2,1.021264553E0,-2.485568047E0,2.195385456E0
1.367100170E2,1.003489017E0,-3.507166862E0,1.863618135E0
1.372100170E2,1.672472954E-1,-5.114135742E-1,-1.120767593E-1
1.377100170E2,1.768247128E0,-2.236533165E0,1.054091811E0
1.382100170E2,-7.819387913E-1,3.056739807E0,-2.496125698E-1
1.387100170E2,1.171804905E0,5.821447372E-1,1.988098979E0
1.392100170E2,-5.251204967E-1,2.062569141E0,1.373920679E0
1.397100170E2,-2.225534201E0,1.222981453E0,2.191347122E0
1.402100170E2,2.189729214E0,-7.784729004E-1,1.788262010E0
1.407100170E2,-1.796634436E0,-3.113212585E-1,1.572781324E0
1.412100170E2,3.141096115E0,-2.481480598E0,1.229312181E0
1.417100170E2,-1.225187540E0,-2.215462685E0,-1.821891218E-2
1.422100170E2,1.085229874E0,-1.533100605E0,1.760999203E0
1.427100170E2,7.326550484E-1,-1.851872444E0,1.962894201E0
1.432100170E2,-1.852170467E0,-5.034241676E-1,3.175529242E0
1.437100170E2,1.487887621E0,1.846533775E0,6.631317139E-1
1.442100170E2,-2.283825636E0,-4.347658157E-2,1.821009517E0
1.447100170E2,1.007195711E0,3.322264194E0,-6.615848541E-1
1.452100170E2,-2.240634680E0,-2.636580944E0,1.894898057E0
1.457100170E2,1.867991209E0,1.832976341E0,8.703231812E-3
1.462100170E2,-1.113214970E0,-3.575642586E0,1.005652785E0
1.467100170E2,2.495664358E0,-2.829331398E0,2.809978247E0
1.472100170E2,8.422608376E-1,-1.183300018E-1,3.799221516E-1
1.477100170E2,1.479573250E0,-2.473746300E0,1.301961303E0
1.482100170E2,-1.637587547E-1,-2.547324181E0,1.217082262E0
1.487100170E2,-1.871446133E0,-1.077408791E-1,2.941372633E0
1.492100170E2,1.233322620E0,7.525191307E-1,-7.730841637E-2
1.497100170E2,-2.697170019E0,5.673680305E-1,1.297919750E0
1.502100170E2,8.322296143E-1,3.217716694E0,-1.378427982E0
1.507100170E2,-2.483661890E0,-1.940103531E0,-3.415049314E-1
1.512100170E2,1.917552948E-2,7.923064232E-1,1.971803665E0
1.517100170E2,8.588123322E-2,-3.103682518E0,2.115414143E0
1.522100170E2,1.154971123E0,-2.692493916E0,2.512259007E0
1.527100170E2,7.579550743E-1,-8.150568008E-1,1.681559682E0
1.532100170E2,1.646596909E0,-1.975782394E0,1.506655455E0
1.537100170E2,1.478094339E0,3.396314621E0,-8.175227642E-1
1.542100170E2,-7.195281982E-2,-6.454148293E-1,2.358567715E0
1.547100170E2,5.440506935E-1,1.851619720E0,6.428517103E-1
1.552100170E2,-2.044604063E0,5.856904984E-1,2.255583525E0
1.557100170E2,9.031281471E-1,-1.920260429E0,2.444532871E0
1.562100170E2,-1.118869305E0,-4.873580933E-1,1.315525532E0
1.567100170E2,8.438801765E-1,-3.420131683E0,7.459932566E-1
1.572100170E2,-1.180405617E0,-3.229475021E0,5.827593207E-1
1.577100170E2,2.602877617E-1,-1.508203506E0,2.087328196E0
1.582100170E2,1.307023048E0,-2.009046555E0,2.349591017E0
1.587100170E2,-2.081235647E0,2.300472260E-1,2.426542997E0
1.592100170E2,1.285830021E0,1.352484703E0,5.745846033E-1
1.597100170E2,-1.961285114E0,9.331793785E-1,1.130272269E0
1.602100170E2,-3.693420887E-1,3.678956509E0,-8.496658802E-1
1.607100170E2,-4.159951210E-1,9.955496788E-1,1.994948864E0
1.612100170E2,4.138803482E-2,6.010074615E-1,1.735115767E0
1.617100170E2,-8.341689110E-1,1.255349636E0,1.961367846E0
1.622100170E2,1.477527618E0,-2.089577675E0,2.238276005E-1
1.627100170E2,-7.329347134E-1,-1.350152016E0,9.798122048E-1
1.632100170E2,1.463569164E0,-2.121714592E0,1.265752435E0
1.637100170E2,1.723845005E0,-2.278282166E0,5.514172912E-1
1.642100170E2,-1.744603634E0,-1.594667435E-1,1.986433029E0
1.647100170E2,-4.904804230E-1,-8.056669235E-1,8.184504509E-2
1.652100170E2,-1.911303520E0,1.212856293E0,4.434522152E0
1.657100170E2,-2.350811720E0,2.268980980E0,-9.669866562E-1
1.662100170E2,-2.447287083E0,-2.176799774E-1,2.840037346E0
1.667100170E2,-6.914179325E-1,1.640220165E0,-9.296774864E-3
1.672100170E2,-1.286654472E-1,-3.115056038E0,8.212413788E-1
1.677100170E2,1.808204174E0,-2.048912048E0,2.017533302E0
1.682100170E2,-2.242209911E-1,-1.129502296E0,1.113114119E0
1.687100170E2,1.466179371E0,-3.216414452E0,2.133395672E0
1.692100170E2,1.382869720E0,2.656211853E0,-1.628732681E-2
1.697100170E2,8.622336388E-1,-4.796824455E-1,1.178996682E0
1.702100170E2,7.821297646E-1,2.722329140E0,-3.984394073E-1
1.707100170E2,-1.179017305E0,9.042997360E-1,4.153217793E0
1.712100170E2,6.369695663E-1,-6.254501343E-1,1.384825587E0
1.717100170E2,-2.907939196E0,-8.075919151E-1,2.741043329E0
1.722100170E2,3.155457020E0,-2.427227020E0,1.578904390E-1
1.727100170E2,-3.148188591E-1,-2.298521996E0,-4.652328491E-1
1.732100170E2,1.606237888E0,-1.409724236E0,1.220366478E0
1.737100170E2,-1.545834541E-2,-2.851159096E0,1.367223978E0
1.742100170E2,6.253156662E-1,-3.185932159E0,2.495434999E0
1.747100170E2,2.461280823E-1,-1.426839828E-1,1.409429312E0
1.752100170E2,1.931399345E0,-2.247606277E0,1.710639954E0
1.757100170E2,1.200235248E0,3.556829453E0,-1.126477957E0
1.762100170E2,3.880052567E-1,7.236881256E-1,2.827947140E0
1.767100170E2,7.412433624E-1,2.290369987E0,2.093012094E0
1.772100170E2,-1.964354277E0,1.162500858E0,2.951324940E0
1.777100170E2,1.599009275E0,-2.384055138E0,1.409498334E0
1.782100170E2,-2.672576904E-1,-4.578790665E-1,-9.024947882E-3
1.787100170E2,2.081979752E0,-2.761382103E0,2.312618732E0
1.792100170E2,-1.314113140E-1,-2.645376205E0,1.130531549E0
1.797100170E2,-1.469912529E-1,-5.707092285E-1,2.496840954E0
1.802100170E2,8.643343449E-1,-1.366518974E0,1.207513690E0
1.807100170E2,-2.829541683E0,-4.729590416E-1,2.760235310E0
1.812100170E2,2.041703224E0,2.606771469E0,1.425418854E-1
1.817100170E2,-2.248615980E0,-1.104091644E0,2.820646763E-2
1.822100170E2,1.449986219E0,1.803122997E0,3.669285774E-1
1.827100170E2,-1.727493048E0,-2.479997635E0,5.884438753E-2
1.832100170E2,9.785122871E-1,-2.023322105E0,1.675887108E0
1.837100170E2,4.834818840E-2,-1.130256653E0,1.083055973E0
1.842100170E2,2.389470577E0,-2.969663620E0,1.716684818E0
1.847100170E2,7.883095741E-1,1.626613140E0,-5.923585892E-1
1.852100170E2,1.729803562E0,-1.158927917E0,1.840610027E0
1.857100170E2,3.461985588E-1,-1.974949837E0,1.532188296E0
1.862100170E2,-2.620435953E0,4.945578575E-1,2.872306824E0
1.867100170E2,7.454123497E-1,9.996552467E-1,5.951453447E-1
1.872100170E2,-3.724856377E0,-1.793184280E-1,1.169124365E0
1.877100170E2,1.957750559E0,3.029205799E0,-3.885602951E-1
1.882100170E2,-2.789009809E0,-8.810100555E-1,-2.828813791E-1
1.887100170E2,2.652411222E0,2.014703274E0,1.271574497E0
1.892100170E2,-1.203150511E0,-2.268404961E0,6.493996829E-2
1.897100170E2,2.606781006E0,-1.255363464E0,3.171223164E0
1.902100170E2,-5.807399750E-1,-1.777040482E0,6.687968373E-1
1.907100170E2,2.490833759E0,-2.670036316E0,2.354157448E0
1.912100170E2,1.445942402E0,1.704400063E0,-3.737537861E-1
1.917100170E2,1.135120392E0,-3.117945671E0,9.709577560E-1
1.922100170E2,2.783142090E0,3.939655304E0,-2.306654453E-1
1.927100170E2,1.029836893E0,7.347879410E-1,1.759167433E0
1.932100170E2,1.641985059E0,2.474179268E0,-1.114722729E0
1.937100170E2,-1.199318886E0,2.350477219E0,3.493239164E0
1.942100170E2,3.737230301E-1,-1.704774857E0,1.842598438E0
1.947100170E2,-8.720724583E-1,8.003587723E-1,9.812735319E-1
1.952100170E2,2.085137844E0,-3.476932526E0,1.496110201E0
1.957100170E2,-5.934908390E-1,-1.633346558E0,5.647093058E-1
1.962100170E2,2.330106258E0,-2.777978897E0,1.489505768E0
1.967100170E2,-1.041909933E0,-2.813106537E0,1.911658049E-2
1.972100170E2,2.176458836E0,1.384630203E-1,2.585820913E0
1.977100170E2,-8.025271893E-1,-2.463048935E0,7.376704216E-1
1.982100170E2,3.495743036E0,-1.035771370E0,1.681176901E0
1.987100170E2,-1.201766729E0,1.544336796E0,-6.033167839E-1
1.992100170E2,2.190975666E0,-4.918775558E-1,1.474780917E0
1.997100170E2,1.261227846E0,3.570930004E0,-2.495861053E-2
2.002100170E2,-1.572534084E0,1.882314682E-1,2.946587801E0
2.007100170E2,8.864486217E-1,4.190111160E-1,1.596061826E0
2.012100170E2,-3.311508656E0,-4.255309105E-1,2.481285334E0
2.017100170E2,9.875607491E-1,-2.218507767E0,2.180273771E0
2.022100170E2,-1.523120403E0,-2.211437225E-1,-3.270593882E-1
2.027100170E2,1.544222832E0,-2.726839066E0,1.687744379E0
2.032100170E2,-1.672905326E0,-2.002703667E0,-1.131457090E-1
2.037100170E2,-8.123483658E-1,-2.914895058E0,5.651694536E-1
2.042100170E2,-5.388363600E-1,-1.692224503E0,8.550032377E-1
2.047100170E2,-3.572489500E0,-3.167508125E0,2.891192436E-1
2.052100170E2,3.281411409E0,1.278028488E0,-4.663062096E-2
2.057100170E2,-4.156575680E0,-1.385205269E0,1.866627812E0
2.062100170E2,3.168815136E0,3.551934242E0,-1.318599343E0
2.067100170E2,-4.030334473E0,-3.423191071E0,-1.116450548E0
2.072100170E2,2.712895870E0,2.342445850E0,2.720920801E0
2.077100170E2,-3.288891077E0,-2.428826332E0,2.143071175E0
2.082100170E2,1.917818069E0,-9.910898209E-1,1.873102665E0
2.087100170E2,-1.661339998E0,-2.736979485E0,1.242357373E0
2.092100170E2,1.392669439E0,-2.909119606E0,2.462434053E0
2.097100170E2,-6.071610451E-1,-5.778074265E-1,9.926906824E-1
2.102100170E2,2.576063156E0,-2.391751289E0,1.009245634E0
2.107100170E2,-2.222507954E0,-2.832038879E0,1.051112175E0
2.112100170E2,7.933139801E-1,-8.415565491E-1,1.972878218E0
2.117100170E2,-1.149723291E0,-2.580257416E0,7.194688320E-1
2.122100170E2,-1.368821144E0,3.866577148E-2,2.324725151E0
2.127100170E2,-6.090474129E-2,-4.964199066E-1,6.726143360E-1
2.132100170E2,-2.941906929E0,-2.697467804E-1,2.087077141E0
2.137100170E2,1.311724424E0,2.066341877E0,4.257574081E-1
2.142100170E2,-2.376876831E0,-1.273684502E-1,2.782379627E0
2.147100170E2,-1.677280903E0,1.824645519E0,2.018543482E-1
2.152100170E2,2.981128693E-1,-9.202194214E-2,9.017043114E-1
2.157100170E2,-1.045214176E0,1.635836124E0,6.685011983E-1
2.162100170E2,5.298957825E-1,-1.632506371E0,1.231765389E0
2.167100170E2,4.050159454E-1,4.912853241E-1,1.567294359E0
2.172100170E2,-7.934761047E-2,-2.108615875E0,6.386054158E-1
2.177100170E2,6.479816437E-1,-7.712354660E-1,8.235113621E-1
2.182100170E2,6.412606239E-1,-1.853056908E0,4.543412924E-1
2.187100170E2,1.063642502E0,-1.600117683E0,5.842039585E-1
2.192100170E2,6.440258026E-1,-9.384946823E-1,5.520862341E-1
2.197100170E2,1.627378464E0,-2.252686501E0,8.021914959E-2
2.202100170E2,4.502072334E-1,1.598598957E0,-6.402062178E-1
2.207100170E2,1.523789883E0,-2.048702240E-1,9.054297209E-1
2.212100170E2,-1.076868773E0,2.231576443E0,-1.020173788E0
2.217100170E2,-8.734970093E-1,1.367935181E0,1.713883162E0
2.222100170E2,5.575113297E-1,-4.763317108E-2,1.197468281E0
2.227100170E2,-1.937075853E0,5.198225975E-1,1.284008026E-1
2.232100170E2,7.024288177E-3,2.841468334E0,-1.058588386E0
2.237100170E2,7.210178375E-1,-1.013823509E0,1.849341989E-1
2.242100170E2,3.915448189E-1,-3.140544891E-2,7.288746834E-1
2.247100170E2,1.410378933E0,-1.101767540E0,1.853200793E-1
2.252100170E2,1.900254250E0,-2.570466042E0,1.695317030E-2
2.257100170E2,2.793345451E-1,2.260324001E0,-7.863111496E-1
2.262100170E2,1.308187962E0,-4.822535515E-1,1.799160361E0
2.267100170E2,5.281908512E-1,2.445911884E0,4.925893545E-1
2.272100170E2,-1.446890354E0,1.405944347E0,1.031273007E0
2.277100170E2,1.706806898E0,-9.140243530E-1,1.805267930E0
2.282100170E2,-2.196605921E0,-2.821092606E-1,-6.464899778E-1
2.287100170E2,2.922903061E0,-2.506488800E0,1.828330874E0
2.292100170E2,-1.206381798E0,-2.863501549E0,-3.742927909E-1
2.297100170E2,7.720022202E-1,-8.718681335E-1,1.977223754E0
2.302100170E2,-2.871036530E-1,-1.781404495E0,8.349250555E-1
2.307100170E2,-2.701975584E0,-4.711580276E-2,2.251729488E0
2.312100170E2,6.413211823E-1,1.045880318E0,1.548765659E0
2.317100170E2,-1.766261816E0,1.125841141E-1,1.147737622E0
2.322100170E2,6.019690037E-1,2.839942455E0,-1.319217682E-2
2.327100170E2,-1.125249863E0,-2.483142853E0,2.759573460E-1
2.332100170E2,-3.525009155E-1,-5.277185440E-1,3.162240028E0
2.337100170E2,5.712056160E-1,-2.435948372E0,1.981802702E0
2.342100170E2,2.215923309E0,-2.010492325E0,1.904716372E0
2.347100170E2,5.737934113E-1,-4.477720261E-1,1.337682128E0
2.352100170E2,3.294159412E0,-2.239214897E0,6.256842613E-2
2.357100170E2,-1.821697474E0,-3.563963890E0,-1.371870190E-1
2.362100170E2,7.517108917E-1,-7.362933159E-1,3.350175619E0
2.367100170E2,5.067772865E-1,-2.319949150E0,1.651622772E0
2.372100170E2,-2.804410934E0,4.553565979E-1,1.651273727E0
2.377100170E2,1.033713579E0,7.746477127E-1,1.278625131E0
2.382100170E2,-6.901948452E-1,1.016615868E0,1.286367178E0
2.387100170E2,6.775369644E-1,3.336223125E0,-7.016426325E-1
2.392100170E2,-2.072855234E0,-1.348205566E0,3.252721429E-1
2.397100170E2,-1.837599277E-1,1.194118023E0,1.292000890E0
2.402100170E2,-1.005106449E0,-3.169991493E0,1.258187413E0
2.407100170E2,1.424266815E0,-2.335447311E0,2.007265568E0
2.412100170E2,8.295006752E-1,-1.319793701E0,1.298536062E0
2.417100170E2,1.963007927E0,-3.060450554E0,1.795311689E0
2.422100170E2,2.176802158E-1,1.917006016E0,7.284456491E-1
2.427100170E2,1.404930115E0,-2.638912678E0,2.005429983E0
2.432100170E2,-6.892275810E-2,3.347945213E0,-1.335887909E0
2.437100170E2,-4.120368958E-1,8.975501060E-1,3.031938076E0
2.442100170E2,7.277266979E-1,1.884615421E0,1.925654411E-1
2.447100170E2,-2.703893423E0,8.453764915E-1,2.595622540E0
2.452100170E2,1.967190027E0,-2.103697777E0,2.739970922E0
2.457100170E2,-1.921880245E0,-1.015751839E0,6.035149097E-1
2.462100170E2,2.365726471E0,-3.586909771E0,2.330559969E0
2.467100170E2,-1.444218636E0,-3.071738243E0,5.713069439E-2
2.472100170E2,3.359589577E-1,-1.337954998E0,1.616376281E0
2.477100170E2,3.309431076E-1,-2.244052887E0,1.502208948E0
2.482100170E2,2.888568401E0,-2.641602516E0,2.230892420E0
2.487100170E2,8.783521652E-1,7.162280083E-1,8.010718822E-1
2.492100170E2,1.790503025E0,-2.417904854E0,1.833209157E0
2.497100170E2,7.949705124E-1,3.151498795E0,5.780458450E-2
2.502100170E2,-2.504019737E-1,-1.914625168E0,2.023221731E0
2.507100170E2,1.766648531E0,2.376973629E0,6.951394081E-1
2.512100170E2,-3.319092989E0,-1.292649269E0,1.947524548E0
2.517100170E2,1.811552048E0,-7.397356033E-1,2.474205494E0
2.522100170E2,-3.278600931E0,-8.732395172E-1,1.866572618E0
2.527100170E2,2.389509201E0,-2.289966583E0,4.212443829E0
2.532100170E2,-2.326248884E0,-9.871387482E-1,1.205673575E0
2.537100170E2,2.853610516E0,-2.288767815E0,3.455142975E-1
2.542100170E2,-2.280077934E-1,-1.808580399E0,-6.299233437E-1
2.547100170E2,1.294087410E0,-9.495449066E-2,2.233274460E0
2.552100170E2,-5.877590179E-2,-2.333764076E0,1.191414356E0
2.557100170E2,-6.783933640E-1,1.223826885E0,2.995178699E0
2.562100170E2,7.959799767E-1,3.630733490E-2,9.990658164E-1
2.567100170E2,-2.513266563E0,3.014664650E-1,1.872183323E0
2.572100170E2,2.524536848E0,3.757840633E0,6.987023354E-2
2.577100170E2,-1.711917639E0,-1.715628624E0,9.865280390E-1
2.582100170E2,6.908025742E-1,1.418563843E0,6.496762037E-1
2.587100170E2,-1.098879099E0,-3.168857574E0,1.601770163E0
2.592100170E2,2.210058451E0,-2.444362640E0,2.372981787E0
2.597100170E2,-1.348781586E-2,-5.779733658E-1,1.750869036E0
2.602100170E2,2.782160282E0,-2.364350319E0,1.378354192E0
2.607100170E2,-1.475162983E0,-2.142547607E0,5.638268590E-1
2.612100170E2,2.005195618E0,-1.260714531E0,2.279738903E0
2.617100170E2,-8.081231117E-1,-2.450274467E0,2.141470432E0
2.622100170E2,-1.494975090E0,2.347407341E-1,2.490607977E0
2.627100170E2,8.728909492E-1,1.238329411E0,4.200963974E-1
2.632100170E2,-2.218675375E0,2.054858208E-1,1.808323860E0
2.637100170E2,2.405850649E0,3.720819473E0,-6.695877314E-1
2.642100170E2,-5.855941772E-1,-2.027524948E0,1.586283922E0
2.647100170E2,1.098488331E0,-1.354560852E-1,2.184494019E0
2.652100170E2,-6.272914410E-1,-2.738832474E0,2.228561401E0
2.657100170E2,1.798584461E0,-2.454884529E0,2.404028177E0
2.662100170E2,1.312138319E0,1.659355164E-1,1.765540719E0
2.667100170E2,1.913849831E0,-2.558634281E0,1.759348750E0
2.672100170E2,2.148086786E0,2.938380718E0,-1.254504442E0
2.677100170E2,1.630892754E-1,-5.141849518E-1,2.779354095E0
2.682100170E2,1.858000755E0,2.445034027E0,-1.601962805E0
2.687100170E2,-2.203044176E0,1.080055237E0,2.684033155E0
2.692100170E2,7.821576595E-1,-1.453481674E0,1.978716135E0
2.697100170E2,-2.657917738E-1,9.957599640E-1,1.122750401E0
2.702100170E2,6.924684048E-1,-2.665697098E0,8.044074774E-1
2.707100170E2,-3.197042942E-1,-1.293992043E0,1.175804377E0
2.712100170E2,3.004063606E0,-2.323714256E0,-3.466145992E-1
2.717100170E2,-4.918537140E-1,-3.384162903E0,9.396832585E-1
2.722100170E2,1.359246731E0,-2.381477356E-1,4.190635681E-1
2.727100170E2,1.266668320E0,-1.956364632E0,1.673332214E0
2.732100170E2,1.983625412E0,-2.787140846E0,6.281700134E-1
2.737100170E2,2.292947769E-1,1.071879864E0,-2.274365425E-1
2.742100170E2,2.591012478E0,-1.072228432E0,-2.367558479E-1
2.747100170E2,4.774587154E-1,3.147279263E0,-1.025611162E0
2.752100170E2,4.508352280E-1,2.613649368E-1,1.604124308E0
2.757100170E2,-2.528262138E-1,2.336394310E0,-6.646517515E-1
2.762100170E2,-2.494658470E0,1.164413929E0,2.334509373E0
2.767100170E2,-2.289488316E-1,-6.675529480E-2,1.399776459E0
2.772100170E2,-2.613561153E0,8.320317268E-1,2.138661861E0
2.777100170E2,1.606964827E0,-1.238898277E0,7.136967778E-1
2.782100170E2,-1.335224628E0,2.266864777E-1,7.462124825E-1
2.787100170E2,2.079959869E0,-2.177734375E0,8.704258800E-1
2.792100170E2,-1.023399115E0,-1.144175529E0,-5.573930740E-1
2.797100170E2,1.369254112E0,-2.387153625E0,5.796531439E-1
2.802100170E2,-1.068033814E0,-2.160000801E0,-4.134848416E-1
2.807100170E2,-1.938348770E0,-1.414890289E0,1.980586290E0
2.812100170E2,1.911590099E-1,-1.104250908E0,1.143498421E0
2.817100170E2,-3.600568295E0,-1.651592255E-1,1.836196542E0
2.822100170E2,1.354719400E0,1.373124599E0,-4.035406113E-1
2.827100170E2,-2.582197666E0,6.879754066E-1,1.593549490E0
2.832100170E2,9.346106052E-1,2.981235981E0,-5.683053732E-1
2.837100170E2,-2.743828535E0,-8.360748291E-1,2.041732788E0
2.842100170E2,-5.173542500E-1,2.667233944E0,-5.853365660E-1
2.847100170E2,-8.962988853E-1,-1.822207451E0,5.891537666E-2
2.852100170E2,6.486968994E-1,-2.334280014E-1,1.215018511E0
2.857100170E2,-2.385892391E0,8.183717728E-1,8.847117424E-1
2.862100170E2,1.153200388E0,-1.579869270E0,1.639059186E-2
2.867100170E2,6.230764389E-1,-7.249975204E-1,9.218800068E-1
2.872100170E2,1.361470699E0,-1.361675262E0,8.027393222E-1
2.877100170E2,-8.217501640E-1,-2.773245811E0,9.174579382E-1
2.882100170E2,-5.010638237E-1,6.803016663E-1,2.981403828E0
2.887100170E2,1.386835575E0,-1.077556610E0,6.781901121E-1
2.892100170E2,-2.042041540E0,7.228918076E-1,2.239318848E0
2.897100170E2,5.635976791E-1,2.577179432E0,-9.171602726E-1
2.902100170E2,-1.429284334E0,5.293197632E-1,-2.893333435E-1
2.907100170E2,3.640289307E-1,3.197547436E0,-8.725426197E-1
2.912100170E2,-4.752056599E-1,-1.350837708E0,-1.400673032E0
2.917100170E2,1.057147741E0,1.756538391E0,1.084824920E0
2.922100170E2,1.377620697E-1,-2.821476936E0,1.080515623E0
2.927100170E2,1.976377010E0,-1.453628540E0,4.268359542E-1
2.932100170E2,1.049952030E0,1.863479614E-2,9.585809708E-2
2.937100170E2,3.095627308E0,-2.162404060E0,5.834925175E-2
2.942100170E2,1.569966078E0,3.122133732E0,-1.025651455E0
2.947100170E2,7.962169647E-1,-9.363903999E-1,1.689618826E0
2.952100170E2,1.863500595E0,2.421106815E0,-7.029430866E-1
2.957100170E2,-3.599462271E0,-1.009927273E0,1.406438708E0
2.962100170E2,2.300646067E0,-4.460954666E-1,1.505789518E0
2.967100170E2,-2.894001007E0,-2.760295868E-1,9.274134040E-1
2.972100170E2,2.884754181E0,-2.189105034E0,1.392573953E0
2.977100170E2,-1.776037216E0,-2.855865955E0,1.545955181E0
2.982100170E2,1.518943071E0,8.336925507E-1,7.672030926E-1
2.987100170E2,-1.187410831E0,-2.494521141E0,-8.877853155E-1
2.992100170E2,2.653164387E0,-1.378993034E0,1.622815728E0
2.997100170E2,2.057309151E-1,-5.122470856E-1,3.430502415E-1
3.002100170E2,2.044151306E0,-2.431199074E0,7.145515084E-1
3.007100170E2,1.450770140E0,3.160496712E0,-1.217860699E0
3.012100170E2,3.348512650E-1,-7.158632278E-1,1.882370114E0
3.017100170E2,1.465976238E-1,2.270180225E0,1.217012405E-1
3.022100170E2,-3.078016520E0,7.209935188E-1,1.882656097E0
3.027100170E2,1.017522097E0,-1.227614403E0,1.763002396E0
3.032100170E2,-2.078898191E0,-3.189954758E-1,6.917454004E-1
3.037100170E2,1.881233692E0,-2.766995430E0,1.301807642E0
3.042100170E2,-1.983120203E0,-1.551936150E0,-1.741409302E-3
3.047100170E2,8.484058380E-1,-2.998939514E0,8.722386956E-1
3.052100170E2,-1.603185892E0,-3.104883194E0,7.690165043E-1
3.057100170E2,-6.775770187E-1,-1.553080082E0,1.939114213E0
3.062100170E2,-4.230432510E-1,-2.411756992E0,1.391044855E0
3.067100170E2,-3.030274391E0,-2.035285473E0,2.905613422E0
3.072100170E2,1.638032436E0,7.815670967E-1,8.601547480E-1
3.077100170E2,-2.485403061E0,3.108472824E-1,2.993549585E0
3.082100170E2,7.496347427E-1,1.981248379E0,-8.145570755E-2
3.087100170E2,-1.235056639E0,5.994801521E-1,1.642760277E0
3.092100170E2,1.845008850E0,2.931957722E0,6.690853834E-1
3.097100170E2,-1.287047863E-1,-9.661026001E-1,7.453413010E-1
3.102100170E2,4.268975258E0,9.418468475E-1,2.918746233E0
3.107100170E2,-3.525747061E0,-1.229671478E0,2.009560585E0
3.112100170E2,3.856274128E0,-1.216683388E0,1.299138308E0
3.117100170E2,-1.275405884E-1,-1.723941803E0,3.101085424E-1
3.122100170E2,1.769172192E0,-1.614934921E0,1.495543480E0
3.127100170E2,6.654162407E-1,-2.170230865E0,2.063103020E-1
3.132100170E2,-7.309536934E-1,5.811409950E-1,1.640163183E0
3.137100170E2,1.547989845E0,-7.272310257E-1,1.706689596E0
3.142100170E2,-2.158666849E0,8.548808098E-1,2.246206760E0
3.147100170E2,2.549193621E0,2.136744022E0,-2.606248856E-2
3.152100170E2,-2.389122725E0,6.680731773E-1,1.921679854E0
3.157100170E2,1.378976822E0,3.650148869E0,-7.725069523E-1
3.162100170E2,-1.248953104E0,-3.893661499E-2,-8.195778728E-2
3.167100170E2,4.887840748E-1,2.451455593E0,-7.974815369E-2
3.172100170E2,-9.091317654E-1,-2.494296074E0,3.884323835E-1
3.177100170E2,1.923944712E0,3.357353210E-1,1.871905088E0
3.182100170E2,-6.865158081E-1,-2.784384727E0,1.593993664E0
3.187100170E2,2.607060909E0,-2.494129181E0,1.007973671E0
3.192100170E2,1.656847954E0,9.172296524E-1,6.879256964E-1
3.197100170E2,1.748945236E0,-2.379149437E0,9.636213779E-1
3.202100170E2,1.827872515E0,3.532353401E0,-1.143130541E0
3.207100170E2,-1.275800705E0,-1.133668423E0,2.639247894E0
3.212100170E2,1.420211554E0,2.865421772E0,-2.447261810E-1
3.217100170E2,-3.380917072E0,-2.047571182E0,1.923652053E0
3.222100170E2,2.265470505E0,-2.509174347E-1,1.835968256E0
3.227100170E2,-3.096349716E0,-7.367563248E-1,1.286540389E0
3.232100170E2,2.028212547E0,-2.488322258E0,2.041715622E0
3.237100170E2,-2.480455637E0,-1.810643673E0,7.921206355E-1
3.242100170E2,1.059125185E0,1.285555363E0,5.748652220E-1
3.247100170E2,-2.105405092E0,-2.664456367E0,4.151313603E-1
3.252100170E2,8.800601959E-1,-8.744058609E-1,2.125955105E0
3.257100170E2,-2.344570160E-1,-2.769225121E0,1.447578192E0
3.262100170E2,1.059003830E0,-2.398098469E0,1.456515908E0
3.267100170E2,1.161217690E-1,-1.207900524E0,1.281843066E0
3.272100170E2,3.564776421E0,-4.413009167E0,2.650467873E0
3.277100170E2,3.299720287E0,-5.922117233E-1,1.025095940E0
3.282100170E2,6.928162575E-1,-1.643471241E0,2.524986982E0
3.287100170E2,1.228040695E0,-2.926626205E-1,5.402042270E-1
3.292100170E2,1.961178780E-1,9.850420952E-1,1.251346469E0
3.297100170E2,8.048272133E-1,-6.038436890E-1,3.993615508E-1
3.302100170E2,4.020361900E-1,-2.137026787E0,2.652205706E0
3.307100170E2,3.722506762E0,-4.754095078E-1,1.334215641E0
3.312100170E2,3.660058498E0,-2.887087822E0,6.011506319E-1
3.317100170E2,1.813315630E0,2.698358536E0,9.660468698E-1
3.322100170E2,-2.694113970E0,-1.157063484E0,1.376418591E0
3.327100170E2,2.296104193E0,3.249058247E0,-4.896749258E-1
3.332100170E2,-2.243349552E0,-1.678370476E0,1.949400663E0
3.337100170E2,2.018192291E0,1.892229557E0,1.350346088E0
3.342100170E2,-3.911762714E0,-2.864210606E0,1.235375881E0
3.347100170E2,6.140611172E-1,1.033390999E0,1.188921213E0
3.352100170E2,-3.213837624E0,-4.356136322E-1,6.576431990E-1
3.357100170E2,2.215042114E-1,7.868947983E-1,9.551798105E-1
3.362100170E2,-1.104912758E-1,-1.409583092E0,1.373343110E0
3.367100170E2,-1.245687485E0,-4.706687927E-1,1.837069988E-1
3.372100170E2,1.943774223E-1,-1.504012585E0,5.292204618E-1
3.377100170E2,-2.462003708E0,-6.009931564E-1,2.164170742E0
3.382100170E2,-5.094442368E-1,-8.649902344E-1,8.109923005E-1
3.387100170E2,9.212970734E-2,2.885761261E-1,-8.076363802E-2
3.392100170E2,-4.802584648E-1,4.081535339E-2,1.528181911E0
3.397100170E2,1.325734615E0,-1.102638245E-2,-3.979318142E-1
3.402100170E2,-5.326776505E-1,1.544322968E-1,-9.910640717E-1
3.407100170E2,2.507786751E-1,2.982225418E-1,1.107339978E0
3.412100170E2,2.473306656E-2,1.732568741E-1,2.701910138E-1
3.417100170E2,1.990313530E-1,1.157550812E-1,2.012129575E-1
3.422100170E2,2.528061867E-1,1.656341553E-1,1.852999032E-1
3.427100170E2,-1.894216537E-1,-1.052694321E-1,-3.967715055E-2
3.432100170E2,7.212829590E-2,2.395725250E-2,5.817487836E-2
3.437100170E2,-2.276229858E-2,8.859634399E-3,-5.798102170E-2
3.442100170E2,-4.025077820E-2,-1.729679108E-2,-8.062626421E-2
3.447100170E2,-1.902580261E-4,2.964973450E-3,-4.119308293E-2
3.452100170E2,-2.371883392E-2,1.333904266E-2,-1.729783416E-2
3.457100170E2,1.211676598E-1,4.831218719E-2,3.278045356E-2
3.462100170E2,-1.045799255E-1,-1.244335175E-1,-1.883065999E-1
3.467100170E2,9.940252304E-1,4.849700928E-1,2.893984020E-1
3.472100170E2,-6.297492981E-2,9.628200531E-2,-1.553575993E-1
3.477100170E2,1.291704178E-2,1.770305634E-2,3.887438774E-2
3.482100170E2,2.414965630E-1,1.004295349E-1,1.111698896E-1
3.487100170E2,-5.023813248E-2,-1.380825043E-2,7.849395275E-3
3.492100170E2,2.147912979E-2,4.032039642E-2,1.558892429E-3
3.497100170E2,3.216218948E-2,-9.999752045E-2,-5.832380056E-2
3.502100170E2,4.436488152E-1,1.509227753E-1,2.215251029E-1
3.507100170E2,-1.132426262E-1,2.214908600E-2,8.638899028E-2
3.512100170E2,1.333279610E-1,5.045223236E-2,-2.319402993E-3
3.517100170E2,4.031562805E-2,1.673984528E-2,-8.620356023E-2
3.522100170E2,-4.075050354E-2,-1.146793365E-2,-1.687034965E-2
3.527100170E2,1.709394455E-1,1.174707413E-1,-4.548946023E-2
3.532100170E2,2.385172844E-1,9.299850464E-2,3.948377073E-2
3.537100170E2,1.937942505E-1,1.018819809E-1,-1.143336594E-1
3.542100170E2,-1.654925346E-1,-3.944683075E-2,4.782855511E-2
3.547100170E2,-1.448440552E-2,-3.633022308E-2,-3.025949001E-3
3.552100170E2,4.366612434E-2,2.033710480E-2,1.442077756E-2
3.557100170E2,-1.649615765E-1,-3.517150879E-3,2.296626568E-3
3.562100170E2,5.537748337E-2,-7.370948792E-3,-1.191722453E-1
3.567100170E2,2.750396729E-2,-1.749038696E-3,-1.694744825E-2
3.572100170E2,-5.282735825E-2,-6.128883362E-2,1.292824745E-2
3.577100170E2,1.151494980E-1,4.444694519E-2,4.345971346E-2
3.582100170E2,-2.876281738E-2,1.481342316E-2,8.606314659E-3
3.587100170E2,2.104282379E-3,1.231384277E-2,3.174799681E-2
3.592100170E2,2.768707275E-2,9.484291077E-3,-5.929636955E-2
3.597100170E2,2.430629730E-2,1.730251312E-2,-5.210697651E-3
3.602100170E2,1.980447769E-2,-7.908821106E-3,-2.788001299E-2
3.607100170E2,-6.899356842E-3,9.698867798E-4,2.032947540E-2
3.612100170E2,2.999305725E-4,-5.393028259E-3,3.573894501E-3
3.617100170E2,6.918907166E-4,-9.387016296E-3,-3.616082668E-2
3.622100170E2,-5.393028259E-4,1.543998718E-3,-1.282823086E-2
3.627100170E2,-3.948211670E-3,-1.159667969E-3,-1.132333279E-2
3.632100170E2,5.246400833E-2,1.835250854E-2,-1.404035091E-2
3.637100170E2,7.540702820E-3,2.953529358E-3,-1.318371296E-2
3.642100170E2,-1.377916336E-2,-6.801605225E-3,-2.073848248E-2
3.647100170E2,1.508760452E-2,1.068019867E-2,-4.079210758E-2
3.652100170E2,4.352903366E-2,1.050472260E-2,-4.498720169E-2
3.657100170E2,1.132249832E-2,-2.017021179E-3,-5.060315132E-3
3.662100170E2,4.182958603E-2,1.465702057E-2,-2.778708935E-2
3.667100170E2,2.327871323E-2,1.085281372E-2,-3.374588490E-2
3.672100170E2,1.041889191E-2,6.729125977E-3,1.272904873E-2
3.677100170E2,-9.200572968E-3,4.540443420E-3,-1.402258873E-2
3.682100170E2,3.124146461E-1,2.427682877E-1,1.444047689E-1
3.687100170E2,1.061260700E0,5.160512924E-1,9.655293822E-1
3.692100170E2,-1.142428875E0,7.248721123E-1,-1.153320074E0
3.697100170E2,-1.159523487E0,-3.159651756E-1,7.113811970E-1
3.702100170E2,-4.480123520E-2,2.895011902E-1,-9.351625443E-1
3.707100170E2,-2.529525518E0,-2.261667252E-1,-1.268129826E0
3.712100170E2,2.232205868E0,-2.662480354E0,-1.050066128E-1
3.717100170E2,-1.492683887E0,-3.088450432E0,-1.487642527E-1
3.722100170E2,-9.728569984E-1,1.500797272E-2,2.046004534E0
3.727100170E2,-4.372396469E-1,2.829837799E-2,-6.188911796E-1
3.732100170E2,-2.879823685E0,-7.299051285E-1,1.476944804E0
3.737100170E2,6.925568581E-1,2.315544605E0,-1.183906794E0
3.742100170E2,-8.373126984E-1,-1.666890144E0,2.122884989E-2
3.747100170E2,2.147961140E0,2.831840992E0,-7.528223395E-1
3.752100170E2,-3.331134796E0,-2.088690758E0,9.623074532E-1
3.757100170E2,2.433762550E0,5.662527084E-1,9.880840182E-1
3.762100170E2,-3.360787153E0,-9.673600197E-1,2.434919596E0
3.767100170E2,2.477471352E0,-1.906702042E0,7.668234706E-1
3.772100170E2,-1.925152779E0,-2.091991425E0,-3.935912251E-1
3.777100170E2,2.409237385E0,-2.266930580E0,1.795499325E0
3.782100170E2,-1.274973392E0,-1.941984177E0,2.712199092E-2
3.787100170E2,-1.441717148E-1,-2.352418423E0,1.875741482E0
3.792100170E2,-1.856891870E0,-2.232923508E0,-2.726587057E-1
3.797100170E2,5.883955956E-1,-1.634047508E0,8.118913174E-1
3.802100170E2,-1.869315863E0,-2.943744659E0,1.023310721E-1
3.807100170E2,-1.792217731E0,-2.444973469E0,9.308632612E-1
3.812100170E2,-3.398141861E-1,1.584556103E0,2.657389641E-2
3.817100170E2,-4.932853222E0,-2.749596596E0,-7.179296017E-1
3.822100170E2,5.653170586E0,2.488181114E0,5.805112839E0
3.827100170E2,3.553751945E0,-2.662081242E0,3.436117172E0
3.832100170E2,-3.621745110E-1,-3.157366753E0,2.969802856E0
3.837100170E2,-6.296949387E-1,-1.358799934E0,-7.871496677E-1
3.842100170E2,1.762294769E-1,-3.057316780E0,2.518715620E0
3.847100170E2,1.550948620E-1,3.223117352E0,1.698534012E0
3.852100170E2,-3.864146948E0,4.985699654E-1,-5.956037045E-1
3.857100170E2,2.435820580E0,-1.913609505E0,2.174374104E0
3.862100170E2,-2.004701138E0,-2.115011215E-1,4.607334733E-1
3.867100170E2,1.492977142E0,3.461284637E-1,3.596165180E0
3.872100170E2,-4.281656742E-1,6.693687439E-1,-1.147110462E0
3.877100170E2,-1.322017193E0,-1.217918396E0,2.093133926E0
3.882100170E2,-3.330404758E-1,9.139738083E-1,1.087582350E0
3.887100170E2,-3.095595121E0,3.549451828E-1,-1.575868964E0
3.892100170E2,1.521556854E0,-2.051026821E0,3.227725744E0
3.897100170E2,-8.785040379E-1,-1.781066895E0,1.406808853E0
3.902100170E2,-4.474697113E0,-1.446329594E0,2.406159401E0
3.907100170E2,6.661748886E-1,2.517100811E0,-2.325672388E0
3.912100170E2,-3.380940914E0,-1.463296413E0,3.584066033E-1
3.917100170E2,1.312244177E0,1.680539131E0,-1.255486608E0
3.922100170E2,-3.030740499E0,-2.099369526E0,1.981878996E0
3.927100170E2,2.212046146E0,1.064297676E0,1.746892929E-2
3.932100170E2,-2.013679028E0,-4.235448837E-1,1.177726984E-1
3.937100170E2,1.515755653E-1,1.078090668E0,-3.462471962E-1
3.942100170E2,-1.783520222E0,-1.364707947E-2,1.141802311E0
3.947100170E2,3.171892166E0,-2.015172005E0,3.599169254E-1
3.952100170E2,-4.407315254E0,-4.701848507E0,4.281762123E0
3.957100170E2,4.252038956E0,2.423826218E0,-2.322944164E0
3.962100170E2,-2.890969753E0,-2.912342072E0,5.554631352E-1
3.967100170E2,-5.088195801E-1,1.897831440E0,1.033719897E0
3.972100170E2,-4.454331398E-1,-1.443695068E0,-5.758296847E-1
3.977100170E2,4.475551605E0,-1.074832916E0,-1.191894650E0
3.982100170E2,5.213522911E-1,1.611095905E0,-1.863804102E0
3.987100170E2,1.980725765E0,-6.752681732E-2,-2.078171730E0
3.992100170E2,5.360400677E-1,-2.716454506E0,-7.628059983E-1
3.997100170E2,-1.990630627E0,3.170905113E-1,2.490905285E0
4.002100170E2,1.374732733E0,6.338567734E-1,1.276344061E-1
4.007100170E2,-3.362895966E0,-4.951057434E-1,1.752418995E0
4.012100170E2,3.105487585E0,3.273698807E0,-2.002829313E0
4.017100170E2,-3.212952614E0,-1.220407486E0,7.316398621E-1
4.022100170E2,1.860206842E0,2.311391830E0,-6.330307722E-1
4.027100170E2,-1.452215910E0,-3.366091728E0,4.030308127E-2
4.032100170E2,5.280199051E-1,-2.652617455E0,1.833933353E0
4.037100170E2,2.475187302E0,-3.195463181E0,1.151820898E0
4.042100170E2,2.354373455E0,-3.341548920E0,1.095303893E0
4.047100170E2,1.995187283E0,2.880875111E0,-1.404406071E0
4.052100170E2,3.060522079E-1,-1.884070873E0,1.256466150E0
4.057100170E2,4.251556396E-1,3.664405823E0,-1.797091126E0
4.062100170E2,-3.266866446E0,4.604725838E-1,2.242474556E0
4.067100170E2,-2.223973274E-1,-1.357585907E0,2.358585835E0
4.072100170E2,-3.460585356E0,-1.130550385E0,7.029434443E-1
4.077100170E2,2.802317619E0,-2.570960045E0,8.011476994E-1
4.082100170E2,-1.360087395E0,-3.560468674E0,2.361884356E0
4.087100170E2,2.692436695E0,1.553051949E0,2.150031090E0
4.092100170E2,-6.586894989E-1,-1.622314453E0,1.046154797E-1
4.097100170E2,-6.328759193E-1,1.478400230E0,2.210711241E0
4.102100170E2,3.535126448E-1,-8.340358734E-2,-1.261337996E-1
4.107100170E2,-3.993290424E0,7.018771172E-1,1.684703588E0
4.112100170E2,2.379235744E0,3.751488686E0,-1.387629867E0
4.117100170E2,-4.077676296E0,-8.263516426E-1,2.027171612E0
4.122100170E2,2.510740757E0,-8.783159256E-1,-1.416403055E-2
4.127100170E2,-8.099582195E-1,-4.328470230E-1,-8.318940997E-1
4.132100170E2,5.323343277E-1,-2.331070900E0,3.201742172E-1
4.137100170E2,7.514078617E-1,-2.636147499E0,5.117812157E-1
4.142100170E2,-2.083936691E0,-2.550625801E-1,1.781377554E0
4.147100170E2,1.493881226E0,9.074611664E-1,3.374006748E-1
4.152100170E2,-3.327297449E0,-6.010532379E-1,3.189968824E0
4.157100170E2,1.581482172E0,3.341432571E0,-1.739011765E0
4.162100170E2,-1.077532291E0,-5.599927902E-1,-6.059042215E-1
4.167100170E2,1.647302747E0,2.309909821E0,-7.949173450E-1
4.172100170E2,-7.360615730E-1,-2.459837914E0,-7.473347783E-1
4.177100170E2,6.668820381E-1,-1.830768585E-1,2.673116207E0
4.182100170E2,-1.067939758E0,-3.305252075E0,5.929855704E-1
4.187100170E2,2.287405968E0,-2.884476662E0,2.636652231E0
4.192100170E2,3.363394737E-1,-2.526397705E-1,-2.914218307E-1
4.197100170E2,3.152553558E0,-1.995640755E0,1.113512635E0
4.202100170E2,1.431324482E0,1.698060989E0,-1.521735787E0
4.207100170E2,9.964332581E-1,-1.369888306E0,1.956604958E0
4.212100170E2,8.745098114E-1,3.114931583E0,-1.084761143E0
4.217100170E2,-1.471278667E0,-6.287274361E-1,2.362084627E0
4.222100170E2,1.599315405E0,1.216176987E0,7.513056993E-1
4.227100170E2,-3.295868158E0,-3.970670700E-2,1.549045563E0
4.232100170E2,2.165565968E0,-6.692676544E-1,9.958212376E-1
4.237100170E2,-7.474672794E-1,7.119913101E-1,-1.936297417E-1
4.242100170E2,-1.441602707E0,2.114907742E0,-2.138190031E0
4.247100170E2,-1.031522751E-1,-9.980297089E-1,1.623412073E-1
4.252100170E2,4.325985909E-1,9.038457870E-1,1.477329135E0
4.257100170E2,-5.718255043E-1,-2.984926224E0,3.388516903E-1
4.262100170E2,1.915179014E0,-1.745621681E0,1.107680798E0
4.267100170E2,-5.100419521E-1,-1.077547073E0,4.980444908E-1
4.272100170E2,3.407655716E0,-1.983381271E0,3.846199512E-1
4.277100170E2,-1.596736908E-2,1.055927753E0,-1.183497787E0
4.282100170E2,8.300900459E-1,-1.039276123E0,1.479630947E0
4.287100170E2,-7.918286324E-2,2.504986763E0,-9.076538086E-1
4.292100170E2,-2.615374804E0,-2.176589966E-1,9.196450114E-1
4.297100170E2,6.260814667E-1,2.341671467E0,7.225960493E-1
4.302100170E2,-1.979763031E0,1.148608685E0,-4.524759352E-1
4.307100170E2,1.962256432E0,-1.240160465E0,2.089670151E-1
4.312100170E2,-1.116103649E0,-1.131795883E0,-1.439831495E0
4.317100170E2,1.608265400E0,-1.545269966E0,1.223287463E0
4.322100170E2,1.895699501E-1,-3.771841049E0,-3.752592206E-1
4.327100170E2,-1.653892517E0,4.478335381E-1,2.603133202E0
4.332100170E2,-1.006272793E0,-1.682076454E0,-9.713699818E-1
4.337100170E2,-1.348501205E0,2.061381817E0,3.231036425E0
4.342100170E2,1.365383148E0,3.112968922E0,-1.808268428E0
4.347100170E2,-2.520631075E0,6.784029007E-1,4.397122264E-1
4.352100170E2,-9.977244139E-1,2.845799446E0,4.125979543E-1
4.357100170E2,-1.694457531E0,-2.520949364E0,6.580470800E-1
4.362100170E2,4.175510406E-1,-8.464031219E-1,9.986986518E-1
4.367100170E2,-2.620306492E0,-4.940118790E-1,-2.948229313E-1
4.372100170E2,2.300025463E0,-2.949486732E0,6.846516132E-1
4.377100170E2,-2.507543325E0,-2.983309746E0,-1.094311625E-1
4.382100170E2,-6.071028709E-1,-1.137575150E0,2.487162352E0
4.387100170E2,-5.124664307E-1,-8.897147179E-1,-3.551852107E-1
4.392100170E2,-2.977122068E0,3.997278214E-1,2.185363770E0
4.397100170E2,1.381008625E0,2.689922333E0,-6.251878738E-1
4.402100170E2,-2.341003656E0,-6.449422836E-1,7.142299414E-1
4.407100170E2,5.012531281E-1,2.540033817E0,-4.408321381E-1
4.412100170E2,-2.333278418E0,-2.949750900E0,4.420605898E-1
4.417100170E2,7.344093323E-1,-1.182520866E0,1.283738971E0
4.422100170E2,-1.703376770E-1,-3.172884941E0,1.642781973E0
4.427100170E2,4.345431328E-1,-3.256351471E0,8.647488356E-1
4.432100170E2,-5.149006844E-1,-9.885621071E-1,9.428896904E-1
4.437100170E2,3.013032913E0,-2.584932327E0,1.551369905E0
4.442100170E2,6.386394501E-1,1.554147243E0,4.431495667E-1
4.447100170E2,2.308625698E0,-2.030034065E-1,1.965772271E0
4.452100170E2,-1.567899704E0,4.372561932E0,-2.204482555E-1
4.457100170E2,-8.887767792E-1,9.363746643E-1,3.401593685E0
4.462100170E2,-1.102259874E0,7.288169861E-2,1.181314945E0
4.467100170E2,-3.067526102E0,4.615607262E-1,1.202028036E0
4.472100170E2,2.252435446E0,-2.076988220E0,1.784021378E0
4.477100170E2,-1.852639437E0,-7.967891693E-1,1.180505514E0
4.482100170E2,2.092865467E0,-2.205605507E0,2.039372683E0
4.487100170E2,-6.940977573E-1,-2.169294357E0,8.808654547E-1
4.492100170E2,7.800059319E-1,-1.482448101E0,8.944317102E-1
4.497100170E2,-7.042596340E-1,-1.990452766E0,1.280149937E0
4.502100170E2,2.139758587E0,-3.085145950E0,1.773566723E0
4.507100170E2,2.663429022E0,1.842636585E0,-6.503894329E-1
4.512100170E2,2.849633694E0,-1.791395187E0,1.332687140E0
4.517100170E2,2.167585850E0,3.660942554E0,-2.573574781E0
4.522100170E2,-1.817096710E0,-9.965944290E-1,3.416143894E0
4.527100170E2,1.451706648E0,3.081169128E-1,6.424193382E-1
4.532100170E2,-3.085191965E0,-1.523742676E-1,1.547650218E0
4.537100170E2,1.963662148E0,-1.729798317E0,1.476050615E0
4.542100170E2,-2.482754707E0,-1.507074356E0,-4.065868855E-1
4.547100170E2,1.863383770E0,-2.822919846E0,7.356615067E-1
4.552100170E2,-1.082466841E0,-2.261376381E0,-2.191829681E-2
4.557100170E2,-2.796721458E-1,-1.006464958E0,1.360714436E0
4.562100170E2,-9.974884987E-2,-1.458822250E0,2.006379962E-1
4.567100170E2,-3.423089743E0,6.107130051E-1,2.318264246E0
4.572100170E2,9.841434956E-1,2.259007931E0,-2.730023861E0
4.577100170E2,-1.914153099E0,4.589748383E-2,-2.011997700E0
4.582100170E2,1.355449438E0,2.795912266E0,-6.446572542E-1
4.587100170E2,-1.010180712E0,-2.756478310E0,4.824753702E-1
4.592100170E2,1.079968929E0,-1.192956924E0,1.691689253E0
4.597100170E2,-2.391047478E-1,-2.007688522E0,9.765080214E-1
4.602100170E2,1.769708633E0,-3.530758858E0,1.323794603E0
4.607100170E2,1.879037857E0,2.227499485E0,-4.692544937E-1
4.612100170E2,-1.715998650E-1,-1.080441475E0,1.622929573E0
4.617100170E2,2.045956612E0,3.125607967E0,-8.518891335E-1
4.622100170E2,-2.675804377E0,-5.253911018E-1,1.789583921E0
4.627100170E2,1.844477892E0,1.332066536E0,2.719346285E-1
4.632100170E2,-2.876902819E0,-8.554458618E-2,1.056870341E0
4.637100170E2,2.001832008E0,3.283530235E0,-5.750255585E-1
4.642100170E2,-2.202864408E0,-1.894508362E0,1.799461842E-1
4.647100170E2,1.127229452E0,6.046857834E-1,1.819661379E0
4.652100170E2,-1.210274696E-1,-2.131278038E0,6.322969198E-1
4.657100170E2,3.656833410E0,-1.468488693E0,1.586109281E0
4.662100170E2,-2.171416283E-1,9.139394760E-1,-6.170833111E-1
4.667100170E2,5.195126534E-1,-2.221728325E0,7.018151283E-1
4.672100170E2,1.944596291E0,4.094139576E0,-1.856114626E0
4.677100170E2,-2.348095417E0,-2.309803963E-1,1.485662580E0
4.682100170E2,7.546613216E-1,3.130083084E-1,7.577586770E-1
4.687100170E2,-2.941405296E0,4.129199982E-1,1.309171796E0
4.692100170E2,1.294202805E0,-2.582041740E0,1.228196502E0
4.697100170E2,-1.537384033E0,-9.927244186E-1,-6.428763866E-1
4.702100170E2,2.146567345E0,-1.607872009E0,1.107558012E0
4.707100170E2,-3.965008259E-1,-2.488654137E0,1.316831589E0
4.712100170E2,6.866645813E-2,1.181683540E-1,2.601348877E0
4.717100170E2,1.136211395E0,-8.425769806E-1,1.253572106E0
4.722100170E2,-3.758817911E0,-2.117948532E-1,2.610366344E0
4.727100170E2,1.465050220E0,2.712808132E0,-6.503853798E-1
4.732100170E2,-2.179726839E0,-6.376495361E-1,1.877770424E-1
4.737100170E2,9.635627270E-1,2.677638531E0,-7.985299826E-1
4.742100170E2,-1.575352430E0,-2.143715858E0,-2.554729581E-1
4.747100170E2,7.463157177E-1,-7.314023972E-1,1.373007536E0
4.752100170E2,-3.143680811E0,-4.795274734E-1,1.521476746E0
4.757100170E2,1.950905323E0,-2.739582062E0,2.169463634E0
4.762100170E2,-2.370967150E0,-1.872648239E0,2.100621462E-1
4.767100170E2,1.344115257E0,-2.522164345E0,1.977578878E0
4.772100170E2,-6.047406197E-1,-3.001805305E0,1.407674909E0
4.777100170E2,-2.229121208E0,-1.321311951E0,2.338978767E0
4.782100170E2,1.116214752E0,-6.012573242E-1,1.973057270E0
4.787100170E2,-3.812955379E0,-1.296372414E0,2.355489731E0
4.792100170E2,1.931069613E0,3.369116783E0,-3.746786118E-1
4.797100170E2,-3.679894686E0,-2.017786026E0,2.479238033E0
4.802100170E2,1.111317873E0,2.985252380E0,-7.417674065E-1
4.807100170E2,-1.948551655E0,-2.665036201E0,1.427745104E0
4.812100170E2,4.818623066E-1,1.250362396E-2,9.338546991E-1
4.817100170E2,-1.234455109E-1,-1.764420509E0,2.418254852E0
4.822100170E2,7.551283836E-1,-2.941275120E0,5.397394896E-1
4.827100170E2,-5.630874634E-2,1.404898643E0,-4.658696651E-1
4.832100170E2,5.348629951E-1,-1.184366226E0,3.352530956E0
4.837100170E2,-1.282631636E0,1.980572224E0,-8.587918282E-1
4.842100170E2,-5.798969269E-1,6.603817940E-1,1.699808359E0
4.847100170E2,-9.352207184E-3,1.809506416E0,4.542615414E-1
4.852100170E2,-3.037063360E0,1.594648361E-1,1.772863746E0
4.857100170E2,1.275149345E0,-1.616468430E-1,1.307640672E0
4.862100170E2,-3.030142546E0,-3.028793335E-1,-1.238167286E-1
4.867100170E2,1.768463135E0,-1.995031357E0,2.346166372E-1
4.872100170E2,-2.107741117E0,-1.563993454E0,-4.971424341E-1
4.877100170E2,8.391911983E-1,9.364871979E-1,5.686886311E-1
4.882100170E2,-9.130494595E-1,-2.571393013E0,-5.976231694E-1
4.887100170E2,9.001128674E-1,-1.608436584E0,6.302163601E-1
4.892100170E2,-1.337137699E0,-3.083621979E0,3.124976158E-2
4.897100170E2,1.749448299E0,-3.272500038E0,-5.567831397E-1
4.902100170E2,1.439908504E0,9.668159485E-1,-3.619309664E-1
4.907100170E2,1.755392075E0,-2.274824619E0,2.217860699E0
4.912100170E2,5.160944462E-1,3.905006409E0,-2.077642441E0
4.917100170E2,-1.239403725E0,-1.786127567E0,1.370285988E0
4.922100170E2,3.451955318E-1,4.113006592E-2,2.162046194E0
4.927100170E2,-3.318654299E0,4.158687592E-2,4.642200470E-1
4.932100170E2,1.455882072E0,-2.658525467E0,1.129540443E0
4.937100170E2,-2.486732721E0,-2.623723030E0,-9.238773584E-1
4.942100170E2,1.716539383E0,-1.919753075E0,1.839408875E0
4.947100170E2,-9.861235619E-1,-3.950008392E0,1.401986003E0
4.952100170E2,9.437866211E-1,6.861004829E-1,2.276030064E0
4.957100170E2,5.438899994E-2,-1.515490532E0,3.175438643E-1
4.962100170E2,-2.495616436E0,6.988253593E-1,1.130115390E0
4.967100170E2,1.080476284E0,2.662677765E0,-7.446891069E-1
4.972100170E2,-2.641908169E0,-5.805139542E-1,-1.875298023E-1
4.977100170E2,6.453208923E-1,2.955330372E0,-2.540416718E-1
4.982100170E2,-1.666868448E0,-2.424360275E0,-1.796776056E-2
4.987100170E2,2.264269590E0,2.582902908E-1,1.558493376E0
4.992100170E2,-1.195642948E0,-2.969819069E0,-5.825512111E-3
4.997100170E2,2.612030029E0,-4.645624161E-1,2.898071527E0
5.002100170E2,-2.659461975E0,4.665498734E-1,3.949587345E-1
5.007100170E2,2.255833149E0,-2.806712151E0,1.441746473E0
5.012100170E2,-2.059641600E0,-2.685670853E0,-1.335420132E0
5.017100170E2,4.246168137E-1,-1.961514950E0,8.049194217E-1
5.022100170E2,1.023016930E0,-1.625376701E0,2.031734943E0
5.027100170E2,-2.598190784E0,-2.098884106E0,1.495592833E0
5.032100170E2,4.184715271E0,1.182275772E0,1.205964088E0
5.037100170E2,-4.201307297E0,-2.277168274E0,4.264390767E-1
5.042100170E2,4.709202766E0,3.614352703E0,-8.891452551E-1
5.047100170E2,-2.550562382E0,-3.091416359E0,-1.091928363E0
5.052100170E2,7.529273033E-1,1.348182201E0,6.868839860E-1
5.057100170E2,-1.242521286E0,-3.084853172E0,7.668316364E-1
5.062100170E2,1.977519989E-1,-1.578973770E0,2.888725042E0
5.067100170E2,9.901700020E-1,-2.199947357E0,2.647356510E0
5.072100170E2,1.159319878E0,-3.928016186E0,2.651962280E0
5.077100170E2,1.606643200E0,1.767999172E0,5.932103395E-1
5.082100170E2,6.679534912E-3,-2.622613430E0,1.118199587E0
5.087100170E2,9.913671017E-1,3.318454266E0,-1.617691398E0
5.092100170E2,-1.187789440E0,-1.810843945E0,1.584366202E0
5.097100170E2,5.946214199E-1,2.561570644E0,-1.536076069E-1
5.102100170E2,-3.360577106E0,-1.460046291E0,3.479583263E0
5.107100170E2,1.750863075E0,-5.375194550E-2,2.413180351E0
5.112100170E2,-2.626756191E0,-4.957776070E-1,1.667855740E0
5.117100170E2,2.312757969E0,-3.220775604E0,2.969460487E0
5.122100170E2,-2.319158316E0,-2.221964836E0,-1.013683677E-1
5.127100170E2,1.646416664E0,1.377209663E0,1.436882257E0
5.132100170E2,-1.588255405E0,-2.658347130E0,6.608669758E-1
5.137100170E2,1.589808941E0,-1.528290749E0,3.843860865E0
5.142100170E2,-9.122133255E-1,-2.014256477E0,1.330269456E0
5.147100170E2,1.862822056E0,-3.178501129E0,3.478772163E0
5.152100170E2,1.439643860E0,-1.893754959E0,2.383190155E0
5.157100170E2,1.616812706E0,-3.109577179E0,3.611754656E0
5.162100170E2,1.524803162E0,-2.118387222E-1,3.883229017E0
5.167100170E2,2.999150276E0,-2.168954849E0,3.078553677E0
5.172100170E2,3.626543283E0,2.835353374E0,5.847215652E-1
5.177100170E2,-4.869036674E-1,-1.475917816E0,2.932355642E0
5.182100170E2,2.615428448E0,3.180951595E0,-5.732623339E-1
5.187100170E2,-2.809392929E0,-2.803661823E0,3.382745981E0
5.192100170E2,2.468266010E0,-6.368780136E-1,3.302806377E0
5.197100170E2,-2.732462883E0,-2.852089882E0,1.079918385E0
5.202100170E2,3.735757828E0,-2.416350365E0,3.148900270E0
5.207100170E2,-1.978971004E0,-2.381993294E0,5.590210855E-2
5.212100170E2,3.302958965E0,-2.095068932E0,3.829454422E0
5.217100170E2,-1.504301071E0,-3.848964691E0,1.476691365E-1
5.222100170E2,1.591893196E0,-3.107413769E0,3.303130627E0
5.227100170E2,6.961319447E-1,-1.024044037E0,1.530279517E-1
5.232100170E2,-8.704032898E-1,-2.515904427E0,2.217663765E0
5.237100170E2,2.836029053E0,-4.489002228E-1,2.388566017E0
5.242100170E2,-2.136292219E0,6.611065865E-1,1.258271933E0
5.247100170E2,1.130513906E0,4.576170921E0,-1.261591077E0
5.252100170E2,-1.068958759E0,-1.862286568E0,-1.203435659E-2
5.257100170E2,1.036130190E0,1.189233780E0,1.693926334E0
5.262100170E2,-1.750548363E0,3.497624397E-1,3.531922340E0
5.267100170E2,1.117637634E0,-1.287211418E0,2.188409567E0
5.272100170E2,-2.834099054E0,4.564390182E-1,7.912254333E-2
5.277100170E2,2.897401333E0,-3.547999859E0,3.221698761E0
5.282100170E2,-1.619277239E0,-2.176362038E0,1.862066984E-1
5.287100170E2,1.507957935E0,-2.318465233E0,2.139291048E0
5.292100170E2,-1.284533024E0,-4.148780823E0,1.538490295E0
5.297100170E2,-7.130928040E-1,-1.362265110E0,3.287475824E0
5.302100170E2,1.690727234E0,-1.252885342E0,2.610450029E0
5.307100170E2,-2.344988823E0,1.081304073E0,2.277915239E0
5.312100170E2,1.312646866E0,1.656812191E0,1.320197940E0
5.317100170E2,-2.282250881E0,2.686514854E-1,1.487157822E0
5.322100170E2,1.731970072E0,4.339243412E0,3.477387428E-1
5.327100170E2,-1.782252550E0,-1.365946770E0,1.159616828E0
5.332100170E2,4.106858253E0,1.788839340E0,6.066840887E-1
5.337100170E2,-2.201863766E0,-5.097620964E0,2.170269728E0
5.342100170E2,1.972625494E0,-2.078437805E-1,2.548797131E0
5.347100170E2,-1.174709797E-1,-2.711370468E0,2.626545906E0
5.352100170E2,2.311874390E0,-2.082553864E0,1.581296682E0
5.357100170E2,1.580555439E0,-4.991283417E-1,1.550386786E0
5.362100170E2,3.177659988E0,-2.230913162E0,1.679210305E0
5.367100170E2,1.326869965E0,1.544211864E0,-9.511992931E-1
5.372100170E2,3.243039608E0,-1.517056465E0,1.379555464E0
5.377100170E2,1.557773113E0,2.894796848E0,-4.514207840E-1
5.382100170E2,1.790558815E0,-3.578186035E-1,2.200337410E0
5.387100170E2,6.286768913E-1,-1.493858814E0,1.701766372E0
5.392100170E2,6.340136528E-1,9.280877113E-1,1.868610263E0
5.397100170E2,1.569673538E0,-6.878662109E-2,3.106429577E-1
5.402100170E2,-1.938871145E0,1.274653912E0,1.881835699E0
5.407100170E2,1.756736040E0,1.778179646E0,-1.528360844E0
5.412100170E2,-2.129390240E0,1.165282726E0,1.362226725E0
5.417100170E2,1.361354351E0,2.888315678E0,-1.534704804E0
5.422100170E2,-4.655473232E-1,-7.995157242E-1,5.844710469E-1
5.427100170E2,1.587770820E0,2.025017738E0,-5.574600697E-1
5.432100170E2,-5.404195786E-1,-1.721299171E0,-7.563644648E-1
5.437100170E2,1.307574749E0,-8.290672302E-1,1.664883256E0
5.442100170E2,-2.981009483E-1,-2.134851456E0,7.323964834E-1
5.447100170E2,2.809617996E0,-2.851301193E0,1.605777621E0
5.452100170E2,5.276782513E-1,6.480073929E-1,3.216261864E-1
5.457100170E2,2.162559509E0,-1.652823448E0,5.721403956E-1
5.462100170E2,2.225558519E0,3.223987103E0,-4.820110798E-1
5.467100170E2,7.098822594E-1,-3.656706810E-1,1.551801682E0
5.472100170E2,1.696082354E0,2.983358860E0,-8.773446083E-2
5.477100170E2,-1.772096157E0,-6.961927414E-1,2.362344503E0
5.482100170E2,1.078394890E0,1.114965439E0,1.001538277E0
5.487100170E2,-3.796729803E0,-1.611443043E0,1.271260738E0
5.492100170E2,1.668159962E0,-1.623540878E0,2.748676777E0
5.497100170E2,-3.094759703E0,-8.915596008E-1,8.596279025E-1
5.502100170E2,1.665121555E0,-2.419153214E0,1.977056146E0
5.507100170E2,-2.401834965E0,-2.064643860E0,-7.349712253E-1
5.512100170E2,1.223483086E0,1.010069847E0,1.637568474E0
5.517100170E2,-1.686694145E0,-3.052226067E0,6.490010023E-1
5.522100170E2,2.050124168E0,-2.152964592E0,2.621169090E0
5.527100170E2,-2.450532913E-1,-1.626789093E0,1.038926125E0
5.532100170E2,2.310648441E0,-2.590841293E0,2.249409676E0
5.537100170E2,6.975579262E-1,6.074981689E-1,1.166248322E-1
5.542100170E2,2.534828186E0,-1.849274158E0,2.430443048E0
5.547100170E2,1.696978569E0,3.039436340E0,-6.554813385E-1
5.552100170E2,4.843730927E-1,-8.356962204E-1,2.188745260E0
5.557100170E2,1.149428368E0,3.517276287E0,-1.111881375E0
5.562100170E2,-1.898543835E0,-2.876181602E-1,1.983465910E0
5.567100170E2,1.183186531E0,8.615379333E-1,1.368214607E0
5.572100170E2,-3.039064646E0,-2.824096680E-1,2.246088505E0
5.577100170E2,1.632724524E0,-1.131565094E0,2.196374416E0
5.582100170E2,-2.834527731E0,-1.373909950E0,2.234166384E0
5.587100170E2,3.076285362E0,-2.257631302E0,2.189194918E0
5.592100170E2,-1.843167067E0,-1.867187500E0,8.401298523E-2
5.597100170E2,2.960051060E0,-2.054171085E0,1.960367084E0
5.602100170E2,-9.614505768E-1,-2.668440819E0,9.801689982E-1
5.607100170E2,1.312162399E0,-3.196725845E-1,1.668447852E0
5.612100170E2,-5.081872940E-1,-2.396476746E0,9.219983816E-1
5.617100170E2,-9.569926262E-1,3.761544228E-1,2.933092594E0
5.622100170E2,4.174518585E-2,-2.644691467E-1,6.706523895E-2
5.627100170E2,-2.264667511E0,2.845845222E-1,2.427996635E0
5.632100170E2,1.331971169E0,8.188986778E-1,9.133815765E-3
5.637100170E2,2.201418400E0,-2.532215595E0,8.144441843E-1
5.642100170E2,2.123936653E0,1.436867237E0,-4.568922520E-2
5.647100170E2,2.998070717E0,-1.628056526E0,1.580974579E0
5.652100170E2,1.229958534E-1,2.720562458E0,-6.084487438E-1
5.657100170E2,1.662897110E0,-3.990125656E-2,1.946496129E0
5.662100170E2,9.879345894E-1,3.838358402E0,-1.423875690E0
5.667100170E2,-8.091983795E-1,2.069587708E-1,1.439217687E0
5.672100170E2,1.627356768E0,1.848896503E0,4.517863393E-1
5.677100170E2,-3.224201441E0,-4.215526581E-1,1.861778140E0
5.682100170E2,1.785560608E0,-4.333572388E-1,1.994030714E0
5.687100170E2,-4.207399845E0,-1.226539135E0,1.478702307E0
5.692100170E2,2.231657028E0,-1.486659050E0,1.287565589E0
5.697100170E2,-2.805649042E0,-1.880142212E0,-4.376703501E-1
5.702100170E2,2.699519157E0,-2.806390762E0,5.883590579E-1
5.707100170E2,-2.461680174E0,-1.780097961E0,-1.356446147E0
5.712100170E2,1.400165081E0,-1.900259018E0,1.710275173E0
5.717100170E2,-1.558728933E0,-2.709392548E0,7.449063063E-1
5.722100170E2,-1.002253056E0,-8.724832535E-1,1.860084534E0
5.727100170E2,-7.705855370E-1,-8.492984772E-1,5.343682170E-1
5.732100170E2,-2.732366562E0,-2.946763039E-1,1.910326838E0
5.737100170E2,3.365225792E-1,1.979002476E0,-3.274986744E-1
5.742100170E2,-3.018197298E0,-8.225917816E-2,1.598721504E0
5.747100170E2,1.493234158E0,3.214510441E0,4.611325264E-2
5.752100170E2,-2.921128273E0,-2.629614830E0,1.664773941E0
5.757100170E2,9.681239128E-1,2.888342381E0,-1.499514222E0
5.762100170E2,-1.411519527E0,8.428568840E-1,2.891266346E0
5.767100170E2,-2.233757019E0,4.144954681E-1,1.416168213E0
5.772100170E2,-2.761130333E0,5.353746414E-1,2.282755375E-1
5.777100170E2,2.302896500E0,-2.061340332E0,1.949580193E0
5.782100170E2,-2.280056715E0,-4.206752777E-1,9.329580069E-1
5.787100170E2,1.848295212E0,-3.926620483E0,7.577574253E-1
5.792100170E2,2.254145145E-1,-2.034751892E0,-4.021440744E-1
5.797100170E2,-8.418812752E-1,-1.287728786E0,2.190718412E0
5.802100170E2,8.615350723E-1,-1.910273552E0,1.888412118E0
5.807100170E2,-1.015810490E0,-9.366340637E-1,3.345996857E0
5.812100170E2,1.983002186E0,3.955144882E-1,-1.640261531E0
5.817100170E2,-1.846607924E0,9.120121002E-1,2.791364670E0
5.822100170E2,3.055204153E0,1.264380455E0,4.183530807E-3
5.827100170E2,-3.344780445E0,-6.598052979E-1,1.379274607E0
5.832100170E2,3.453968525E0,3.491208553E0,-1.001926422E0
5.837100170E2,-1.306329012E0,-3.502435684E-1,-2.035084963E-1
5.842100170E2,-6.673991680E-1,5.176031590E0,-2.917103767E-1
5.847100170E2,-8.205950260E-1,-1.898058891E0,1.056203008E0
5.852100170E2,1.305127859E0,1.594174385E0,2.240080833E0
5.857100170E2,-8.461408615E-1,-2.847219467E0,6.857825518E-1
5.862100170E2,1.136608124E0,-1.100699425E0,1.004412651E0
5.867100170E2,6.548514366E-1,-1.645692825E0,1.002846837E0
5.872100170E2,2.372891426E0,-2.002502441E0,7.890409231E-1
5.877100170E2,-9.966468811E-2,5.072116852E-1,-5.101647377E-1
5.882100170E2,1.945330620E0,-1.717444420E0,5.605135560E-1
5.887100170E2,1.836156845E-1,-3.029026985E0,5.939902663E-1
5.892100170E2,8.475861549E-1,1.663313866E0,1.535422325E0
5.897100170E2,-1.528182030E-1,-1.024370193E0,6.433415413E-2
5.902100170E2,-1.525973797E0,1.871524334E0,1.871159554E0
5.907100170E2,6.316125393E-1,1.952706814E0,-7.063448429E-1
5.912100170E2,-1.663344622E0,-4.014968872E-3,1.667108774E0
5.917100170E2,5.307447910E-1,3.440399647E0,-1.595325947E0
5.922100170E2,-1.277359486E0,-1.159757614E0,-5.990606546E-1
5.927100170E2,3.966915607E-1,1.216029167E0,2.102112770E-1
5.932100170E2,-1.049145699E0,-3.408295155E0,2.885930240E-1
5.937100170E2,2.078917027E0,-1.353515625E0,2.197690725E0
5.942100170E2,9.220409393E-2,-1.860156059E0,1.143390894E0
5.947100170E2,2.499565125E0,-3.091012955E0,2.068101406E0
5.952100170E2,6.587133408E-1,4.138450623E-1,8.239119053E-1
5.957100170E2,1.514571190E0,-2.208970070E0,1.790622115E0
5.962100170E2,1.566893578E0,3.117161274E0,-1.038024426E0
5.967100170E2,2.571954727E-1,3.755445480E-1,2.344131708E0
5.972100170E2,2.686126232E-1,2.105309963E0,4.711260796E-1
5.977100170E2,-3.241365671E0,-1.097574234E-1,3.204949856E0
5.982100170E2,8.362100124E-1,-9.860944748E-1,1.687666893E0
5.987100170E2,-2.754872322E0,-3.879280090E-1,1.992660046E0
5.992100170E2,1.068434238E0,-2.594263077E0,2.451852322E0
5.997100170E2,-2.191095114E0,-1.603276253E0,-5.862276554E-1
6.002100170E2,1.664554119E0,-2.551301003E0,1.452835202E0
6.007100170E2,-1.566836596E0,-2.762896538E0,-2.688060403E-1
6.012100170E2,2.437863350E-1,-1.350016117E0,1.749480247E0
6.017100170E2,-9.319033623E-1,-2.577643394E0,1.850542784E0
6.022100170E2,1.316037178E0,-3.196905136E0,2.578408003E0
6.027100170E2,6.017274857E-1,-1.371135712E-1,1.641819119E0
6.032100170E2,1.225144863E0,-2.519400120E0,1.876806021E0
6.037100170E2,1.872533560E0,2.376020432E0,6.305114031E-1
6.042100170E2,-1.699509621E-1,-1.281451225E0,2.015988827E0
6.047100170E2,2.100506544E0,3.390186787E0,-8.290017843E-1
6.052100170E2,-1.710992336E0,-1.206418991E0,2.151393652E0
6.057100170E2,1.538905859E0,1.546376228E0,1.187071800E0
6.062100170E2,-3.396418571E0,-1.143591404E0,2.047019005E0
6.067100170E2,1.163618803E0,-1.672945023E-1,2.398990154E0
6.072100170E2,-3.341162205E0,-1.007678509E0,1.937909365E0
6.077100170E2,1.934760571E0,-1.951134682E0,2.418178320E0
6.082100170E2,-2.431683302E0,-1.322638035E0,1.496158719E0
6.087100170E2,1.559001923E0,-2.477139473E0,2.314925671E0
6.092100170E2,-2.404466391E0,-1.980332375E0,1.472578645E-1
6.097100170E2,1.522554398E0,-2.648769379E0,1.543663621E0
6.102100170E2,-1.515092373E0,-2.816141129E0,-5.955286324E-4
6.107100170E2,9.438714981E-1,-1.482167244E0,2.088626623E0
6.112100170E2,-1.399047375E0,-2.429764748E0,4.909744859E-1
6.117100170E2,-6.044855118E-1,-2.258360863E0,1.835911989E0
6.122100170E2,-8.096499443E-1,-2.625198364E0,1.541266203E0
6.127100170E2,-2.885542393E0,-2.343672752E0,2.776263952E0
6.132100170E2,1.645438194E0,-4.987311363E-1,-7.349158525E-1
6.137100170E2,8.437294960E-1,8.178443909E-1,1.971859694E0
6.142100170E2,2.664183617E0,-1.570483685E0,4.088086605E0
6.147100170E2,7.150063515E-1,-2.545435905E0,1.118086815E0
6.152100170E2,1.846323013E0,-1.340415001E0,1.869242549E0
6.157100170E2,2.557196140E0,-1.150394440E0,2.386255741E0
6.162100170E2,2.844867706E-1,-2.352117538E0,-1.825577021E-1
6.167100170E2,2.799849510E0,-1.405922890E0,3.566675901E0
6.172100170E2,-1.396201134E0,-3.226453781E0,1.267016888E0
6.177100170E2,1.209950447E0,6.113357544E-1,2.791145325E0
6.182100170E2,-5.545487404E-1,-1.919332027E0,3.582470417E-1
6.187100170E2,1.177362442E0,1.092819691E0,2.530673504E0
6.192100170E2,2.222575188E0,5.333938599E-1,1.673128605E0
6.197100170E2,3.472118139E0,1.898746967E0,2.417577267E0
6.202100170E2,-2.529249668E0,-7.927703857E-1,-1.884901285E0
6.207100170E2,3.035684586E0,3.402377605E0,-4.544888735E-1
6.212100170E2,-3.042878866E0,-1.614792824E0,-3.076791763E-1
6.217100170E2,1.579548836E0,2.845010757E0,-3.070231676E-1
6.222100170E2,-1.636252165E0,-1.820696831E0,-2.800729871E-1
6.227100170E2,1.163040161E0,3.018893242E0,1.503292322E-1
6.232100170E2,-2.001001835E0,-1.371046066E0,-5.857096910E-1
6.237100170E2,1.492424726E0,1.532701492E0,1.217652559E0
6.242100170E2,-2.797078609E0,-1.357113361E0,1.202364206E0
6.247100170E2,3.220019579E0,2.619733334E0,5.424960852E-1
6.252100170E2,-1.469065666E0,-1.285250664E0,-7.974280119E-1
6.257100170E2,2.780216694E0,2.495686531E0,1.724263906E0
6.262100170E2,-2.178471565E0,-1.913934231E0,-8.496605158E-1
6.267100170E2,2.120019913E0,6.993336678E-1,4.214986324E0
6.272100170E2,-3.201000690E0,-1.596739769E0,-1.232947130E-2
6.277100170E2,4.203964710E0,-1.430721283E0,2.030267715E0
6.282100170E2,-2.569162130E0,-1.617094994E0,-1.341177821E0
6.287100170E2,2.120074749E0,-1.287973404E0,2.587590456E0
6.292100170E2,2.745447159E-1,-1.758308411E0,3.030105829E-1
6.297100170E2,1.255035400E-3,-1.451867104E0,2.210059643E0
6.302100170E2,1.996383667E-1,-1.994937897E0,-1.024966836E-1
6.307100170E2,1.084532738E-1,-1.866550922E0,1.513803959E0
6.312100170E2,-5.819077492E-1,-6.567811966E-1,7.105906010E-1
6.317100170E2,6.954803467E-1,-9.389276505E-1,4.799592495E-2
6.322100170E2,-1.060255527E0,-6.627788544E-1,3.377538919E-1
6.327100170E2,1.737658978E0,-7.268753052E-1,1.362236142E0
6.332100170E2,-2.818200588E0,-1.805281639E0,8.169507980E-2
6.337100170E2,-6.080207825E-1,5.067691803E-1,-6.273599863E-1
6.342100170E2,-1.915572643E0,-1.423259258E0,1.707813978E0
6.347100170E2,-1.030598164E0,-2.292089462E-1,1.062860131E0
6.352100170E2,9.556694031E-1,1.873540878E-1,1.244997501E0
6.357100170E2,1.821832180E0,9.929056168E-1,1.235605478E0
6.362100170E2,4.835605621E-1,-3.656716347E-1,6.549608111E-1
6.367100170E2,1.508564949E0,3.828935623E-1,5.214095116E-1
6.372100170E2,-3.853425980E-1,-8.171844482E-2,1.290716171E0
6.377100170E2,1.621994972E-1,2.398891449E-1,-2.297151387E-1
6.382100170E2,5.319266319E-1,4.018602371E-1,-2.671147585E-1
6.387100170E2,-8.128213882E-2,2.183036804E-1,-4.222058058E-1
6.392100170E2,4.237966537E-1,4.416532516E-1,-4.452980757E-1
6.397100170E2,-2.977628708E-1,3.139209747E-2,8.160537481E-2
6.402100170E2,2.844705582E-1,-1.132574081E-1,-9.556070566E-1
6.407100170E2,-1.938185692E-1,1.770505905E-1,3.546552062E-1
6.412100170E2,-2.628145218E-1,-1.351766586E-1,-1.818127930E-1
6.417100170E2,1.575288773E-1,1.026544571E-1,2.972600050E-2
6.422100170E2,-6.767892838E-2,-8.528137207E-2,-1.077830121E-1
6.427100170E2,7.117795944E-2,3.339004517E-2,-1.010296643E-1
6.432100170E2,-4.815483093E-2,-8.319759369E-2,-9.722144902E-2
6.437100170E2,2.464437485E-2,-5.368614197E-2,1.417273581E-1
6.442100170E2,7.569789886E-2,7.818508148E-2,-3.603192419E-2
6.447100170E2,5.066108704E-2,-2.106666565E-3,-5.122022703E-2
6.452100170E2,-1.511716843E-2,-1.714420319E-2,-9.259927273E-2
6.457100170E2,3.888368607E-2,2.676677704E-2,-4.120245576E-2
6.462100170E2,-5.282926559E-2,-4.721164703E-2,-8.360424638E-2
6.467100170E2,-1.182413101E-2,-1.145744324E-2,8.748081326E-2
6.472100170E2,-2.932548523E-4,3.485774994E-2,6.438510120E-2
6.477100170E2,-3.612804413E-2,-4.394817352E-2,-1.386667490E-1
6.482100170E2,1.048836708E-1,3.584384918E-2,-1.050426066E-2
6.487100170E2,-3.339052200E-2,7.615089417E-3,-3.711760789E-2
6.492100170E2,-5.242872238E-2,-3.299427032E-2,-7.786867023E-2
6.497100170E2,5.887079239E-2,3.599452972E-2,-8.768232912E-2
6.502100170E2,1.849651337E-3,-8.639335632E-3,-1.231774017E-1
6.507100170E2,-4.775142670E-2,-5.136203766E-2,-5.463362858E-2
6.512100170E2,1.932692528E-1,6.994342804E-2,4.931587726E-2
6.517100170E2,-7.776737213E-2,-5.022621155E-2,-1.145153195E-1
6.522100170E2,1.148314476E-1,1.848125458E-2,4.031093046E-2
6.527100170E2,-1.254386902E-1,-3.881454468E-3,-1.221511513E-2
6.532100170E2,1.996421814E-2,-4.517364502E-2,-1.453774869E-1
6.537100170E2,-3.352642059E-2,-2.874755859E-2,-3.115370125E-2
6.542100170E2,-1.145458221E-2,5.487632751E-2,-9.168329835E-2
6.547100170E2,-1.369681358E-1,-3.454303741E-2,-7.915630937E-3
6.552100170E2,2.191591263E-2,6.886482239E-3,-1.131658703E-1
6.557100170E2,1.761293411E-2,-9.247779846E-3,-4.990834743E-2
6.562100170E2,-3.595972061E-2,-2.220249176E-2,-5.096882582E-3
6.567100170E2,1.380748749E-1,-1.026697159E-1,2.058890164E-1
6.572100170E2,4.574618340E-1,2.916483879E-1,9.498789161E-2
6.577100170E2,-2.864408493E-1,-1.759204865E-1,-1.292180717E-1
6.582100170E2,2.052879333E-1,1.156177521E-1,9.240422398E-3
6.587100170E2,-1.257081032E-1,-7.504844666E-2,-6.251714379E-2
6.592100170E2,9.652142525E-1,4.417638779E-1,3.942528367E-2
6.597100170E2,9.602169991E-1,-9.407224655E-1,6.882979274E-1
6.602100170E2,6.696739197E-1,-1.998276711E0,9.781236649E-1
6.607100170E2,-8.367195129E-1,-5.004668236E-1,7.804911733E-1
6.612100170E2,1.885085106E-1,-1.136432648E0,-9.837540984E-2
6.617100170E2,-1.969026089E0,1.625232697E0,8.098709583E-1
6.622100170E2,-1.662296176E0,2.240514278E0,-1.116051912E0
6.627100170E2,-2.240027189E0,-7.187585831E-1,8.295083046E-1
6.632100170E2,-1.632754803E-1,3.135591507E0,-1.118581176E0
6.637100170E2,-1.740080595E0,-2.124430656E0,-3.223339617E-1
6.642100170E2,1.029650688E0,8.588495255E-1,8.765745163E-2
6.647100170E2,-1.874107361E0,-3.189621449E0,-8.962503672E-1
6.652100170E2,1.027968407E0,-1.803122520E0,1.497121096E0
6.657100170E2,-1.617065430E0,-1.837876320E0,-4.581426382E-1
6.662100170E2,2.248716831E0,-2.192127705E0,7.777997255E-1
6.667100170E2,-3.403506279E-1,-2.009696007E0,1.107540607E0
6.672100170E2,-4.455060959E-1,-6.646189690E-1,1.771441221E0
6.677100170E2,5.704441071E-1,-5.164480209E-1,5.035159588E-1
6.682100170E2,-3.316071987E0,-4.944000244E-1,-1.571388245E-1
6.687100170E2,3.084944248E0,3.213208675E0,-5.189307928E-1
6.692100170E2,-3.535083532E0,-2.621358871E0,-1.384605289E0
6.697100170E2,7.500793934E-1,3.312406063E0,5.015324354E-1
6.702100170E2,-1.631590366E0,-3.406369209E0,-7.858231664E-1
6.707100170E2,-1.088390350E-1,-2.062152863E0,1.471525431E0
6.712100170E2,4.876775742E-1,-1.847220421E0,1.212050676E0
6.717100170E2,1.554850101E0,-4.016400814E0,1.983718038E0
6.722100170E2,2.734098196E0,2.325714588E0,3.807437420E-1
6.727100170E2,-3.629636765E-2,-1.530442238E0,1.409989595E0
6.732100170E2,2.149381161E0,4.204091072E0,-2.958289385E-1
6.737100170E2,-3.757272720E0,-1.689106464E0,2.324846268E0
6.742100170E2,1.203129292E0,4.339866638E-1,1.614710212E0
6.747100170E2,-2.779761553E0,2.497754097E-1,3.235820055E0
6.752100170E2,-1.670413017E-1,-2.242238045E0,-2.106707692E-1
6.757100170E2,-2.109123468E0,-5.500011444E-1,1.400670052E0
6.762100170E2,2.101356506E0,-3.172046661E0,3.909884691E-1
6.767100170E2,-3.046259880E0,-8.798532486E-1,1.452498794E0
6.772100170E2,3.097114325E0,1.162052155E-1,7.809498310E-1
6.777100170E2,-1.640659094E0,-3.469772339E0,1.935284853E0
6.782100170E2,3.854548454E0,-2.359390259E0,3.023301363E-1
6.787100170E2,-1.917166710E-1,2.067232132E-1,-1.407015800E0
6.792100170E2,1.095042706E0,-2.788340092E0,1.768106222E0
6.797100170E2,1.520713806E0,3.785542965E0,-6.232441664E-1
6.802100170E2,-8.966331482E-1,-8.950018883E-1,2.270158291E0
6.807100170E2,8.661577702E-1,1.462420464E0,1.067668200E0
6.812100170E2,-3.617718458E0,-1.072088718E0,3.585900068E0
6.817100170E2,8.704104424E-1,-2.656991005E0,2.952547789E0
6.822100170E2,-3.611520529E0,-1.556118488E0,1.255594254E0
6.827100170E2,3.966494560E0,-2.895206928E0,3.324949026E0
6.832100170E2,-1.553744793E0,-2.319724083E0,1.305114031E0
6.837100170E2,3.806282520E0,-2.120210171E0,1.655038357E0
6.842100170E2,-1.033701897E0,-3.936954975E0,2.055816650E0
6.847100170E2,3.452610970E-1,-2.279901505E-2,2.598967552E0
6.852100170E2,-7.862589359E-1,-1.356348991E0,6.135873795E-1
6.857100170E2,-3.251064539E0,2.136230469E-4,2.767796993E0
6.862100170E2,9.991493225E-1,1.374354362E0,1.886477828E0
6.867100170E2,-3.449958086E0,-6.486763954E-1,9.231500030E-1
6.872100170E2,-2.911882401E-1,3.142741203E0,4.766667485E-1
6.877100170E2,-1.977540970E0,-3.078790665E0,4.625461102E-1
6.882100170E2,8.414664268E-1,1.857013702E-1,3.613500595E0
6.887100170E2,5.609233379E-1,-3.340337753E0,1.384593248E0
6.892100170E2,1.213227749E0,-3.772419930E0,2.753141403E0
6.897100170E2,8.971467018E-1,-1.849298477E-1,1.297637939E0
6.902100170E2,3.260853052E0,-1.932462692E0,1.541175127E0
6.907100170E2,-1.741862059E0,-2.488016129E0,9.827933311E-1
6.912100170E2,3.684415817E-1,-1.523981094E-1,2.209860802E0
6.917100170E2,5.589990616E-1,-2.524208069E0,-9.302052259E-1
6.922100170E2,-1.768929482E0,1.653822422E0,9.636582732E-1
6.927100170E2,1.713754892E0,1.425533772E0,1.898506880E-1
6.932100170E2,-2.405002594E0,5.834422112E-1,1.623895407E0
6.937100170E2,4.116122723E-1,3.172425747E0,-2.130297184E0
6.942100170E2,-1.970398188E0,-1.066389084E0,7.416653633E-1
6.947100170E2,1.701996326E-1,8.576021194E-1,1.040931821E0
6.952100170E2,-1.905762434E0,-3.899106979E0,9.285004139E-1
6.957100170E2,1.580448627E0,-2.197355270E0,1.538658142E0
6.962100170E2,4.681081772E-1,-7.221708298E-1,1.341524601E0
6.967100170E2,1.246157646E0,-1.818149090E0,1.715578675E0
6.972100170E2,1.107849121E0,2.893532276E0,-8.574181795E-1
6.977100170E2,-1.507229805E-1,-1.068089485E0,2.538291216E0
6.982100170E2,1.701996088E0,2.301677227E0,-1.041749954E0
6.987100170E2,-2.465782166E0,-1.395636559E0,1.730147123E0
6.992100170E2,3.792598248E-1,4.530496597E-1,2.187408924E0
6.997100170E2,-2.558881760E0,-3.395628929E-1,3.827114701E-1
7.002100170E2,8.550448418E-1,2.057104111E-1,3.106979847E0
7.007100170E2,-2.943760633E0,-4.753046036E-1,6.175632477E-1
7.012100170E2,2.141978741E0,-2.564995766E0,1.389319181E0
7.017100170E2,-1.534496546E0,-1.216989517E0,-3.771299720E-1
7.022100170E2,8.144607544E-1,-2.388710499E0,1.472132087E0
7.027100170E2,-1.309462309E0,-2.575380325E0,9.343686700E-1
7.032100170E2,1.975906849E0,-1.901591301E0,2.939831257E0
7.037100170E2,1.503335476E0,8.388519287E-2,9.418262243E-1
7.042100170E2,1.298132420E0,-2.640631199E0,1.587101698E0
7.047100170E2,2.906763077E0,3.218992710E0,-4.436264038E-1
7.052100170E2,-2.365698814E-1,-1.404026985E0,2.272365332E0
7.057100170E2,1.066801071E0,2.723656178E0,3.038671017E-1
7.062100170E2,-2.543404579E0,-3.406491280E-1,1.150266647E0
7.067100170E2,2.109326363E0,3.766021729E-1,2.754285812E0
7.072100170E2,-2.319703817E0,-9.504833221E-1,2.109667063E-1
7.077100170E2,3.415770054E0,-2.150301933E0,1.952475905E0
7.082100170E2,-1.491246223E0,-2.219737053E0,2.044362426E-1
7.087100170E2,1.127862930E0,-7.953906059E-1,2.075265169E0
7.092100170E2,-5.675315857E-2,-1.411023140E0,9.885308743E-1
7.097100170E2,-1.565955162E0,6.677818298E-1,2.772427082E0
7.102100170E2,6.981401443E-1,1.618669987E0,-9.810946584E-1
7.107100170E2,-1.144757271E-1,1.675982475E0,9.858775139E-1
7.112100170E2,1.147732377E0,4.332323074E0,-8.474297523E-1
7.117100170E2,-5.930036306E-1,-7.333049774E-1,6.645349264E-1
7.122100170E2,1.925206304E0,2.521732807E0,8.419538736E-1
7.127100170E2,-1.434684038E0,-1.875527382E0,-1.747702360E-1
7.132100170E2,8.951307833E-2,-1.761021614E0,6.170400381E-1
7.137100170E2,-1.879658818E0,-2.444825172E0,-2.515442371E-1
7.142100170E2,7.496047020E-1,-2.536508560E0,7.550738454E-1
7.147100170E2,-1.663169861E-1,1.203456402E0,-3.076148033E-2
7.152100170E2,1.558877468E0,-2.828119755E0,3.497390270E0
7.157100170E2,6.401925087E-1,-8.638038635E-1,9.576880932E-1
7.162100170E2,-1.844796896E0,5.089197159E-1,3.103240728E0
7.167100170E2,1.226315260E0,1.731147766E-1,-1.705532312E0
7.172100170E2,-6.408777237E-1,1.995487690E0,-4.656394720E-1
7.177100170E2,1.914838791E0,2.600728989E0,4.918410182E-1
7.182100170E2,-2.022320509E0,-1.474479675E0,6.527338028E-1
7.187100170E2,8.196938038E-1,2.419016838E0,2.589419842E0
7.192100170E2,-1.627733946E0,-2.874890327E0,-1.215181231E0
7.197100170E2,6.185812950E-1,-7.509775162E-1,2.153986692E0
7.202100170E2,-5.269470215E-1,-2.445969582E0,1.628684998E0
7.207100170E2,3.288367271E0,-2.255433083E0,1.930672407E0
7.212100170E2,2.055351973E0,8.397197723E-1,1.635607362E0
7.217100170E2,2.250647545E0,-1.807253361E0,7.558454275E-1
7.222100170E2,3.081515074E0,3.586297512E0,-3.814811707E-1
7.227100170E2,-1.135808945E0,-6.928596497E-1,2.744302273E0
7.232100170E2,2.995258331E0,1.291045189E0,1.923347473E0
7.237100170E2,-2.059864998E0,-3.135633469E-2,1.348275900E0
7.242100170E2,1.675635338E0,-3.011844635E0,1.995346785E0
7.247100170E2,-2.178597212E0,-1.262392044E0,-5.672354698E-1
7.252100170E2,6.751837730E-1,-3.075128555E0,3.528790474E0
7.257100170E2,-1.155462265E-1,-3.161849976E0,6.328204870E-1
7.262100170E2,-1.236208916E0,-1.924460411E0,1.004932523E0
7.267100170E2,1.644195080E0,-1.183444977E0,2.353960514E0
7.272100170E2,-4.199435234E0,-1.542050362E0,2.051066160E0
7.277100170E2,2.330860376E0,2.494056225E0,-2.536191940E-1
7.282100170E2,-3.464502573E0,-1.462045670E0,6.030926704E-1
7.287100170E2,1.217338085E0,4.171776772E0,-6.656295657E-1
7.292100170E2,-2.775897503E0,-5.856561661E-1,9.849795699E-1
7.297100170E2,2.500281334E-1,1.385713100E0,1.207082033E0
7.302100170E2,-4.192088604E0,-1.312015057E0,-3.151749372E-1
7.307100170E2,6.558370590E-2,9.893546104E-1,3.116225719E0
7.312100170E2,-2.226720810E0,-1.533794403E-1,-3.685426712E-2
7.317100170E2,1.566932678E0,-3.708946705E0,4.134709358E0
7.322100170E2,-1.997464657E0,-2.989918709E0,-6.325137615E-1
7.327100170E2,5.808448792E-1,-1.621040821E0,2.583085537E0
7.332100170E2,-1.763715744E0,-1.722384930E0,9.958148003E-2
7.337100170E2,-2.257405758E0,-4.935350418E-1,2.116611004E-1
7.342100170E2,1.251096249E0,2.154713154E0,1.156028748E0
7.347100170E2,-3.176603794E0,-6.900329590E-1,-4.162402153E-1
7.352100170E2,1.828180790E0,4.797289371E0,-1.066073850E-1
7.357100170E2,-2.330715656E0,-1.152826309E0,1.455279469E0
7.362100170E2,1.508975267E0,2.157910824E0,1.151832342E0
7.367100170E2,-2.330467224E0,-8.658180237E-1,1.719606280E0
7.372100170E2,2.024068356E0,-3.176994324E-1,1.793584585E0
7.377100170E2,-2.690948248E0,-9.898281097E-1,1.471549988E0
7.382100170E2,4.165959358E-1,-2.314010620E0,1.884280443E-1
7.387100170E2,1.757584810E0,1.301840782E0,1.308295131E0
7.392100170E2,1.829557419E0,-2.814407825E0,1.532294631E0
7.397100170E2,4.393207550E0,3.946446896E0,-8.878266811E-2
7.402100170E2,-1.349374771E0,-1.527844429E0,9.945071936E-1
7.407100170E2,2.026566029E0,1.628715038E0,4.562722445E-1
7.412100170E2,-3.102224350E0,-1.047960281E0,1.276074052E0
7.417100170E2,2.362279177E0,3.277583122E0,-4.301688671E-1
7.422100170E2,-2.368475437E0,-9.631514549E-1,2.787544131E-1
7.427100170E2,2.018102646E0,3.873717308E0,-1.158706188E0
7.432100170E2,-2.628407955E0,-2.672977448E0,-1.912009418E-1
7.437100170E2,3.190064192E0,7.053890228E-1,2.785716534E0
7.442100170E2,-1.677064657E0,-2.517153740E0,1.327144861E0
7.447100170E2,3.580985785E0,-1.276356697E0,2.376567841E0
7.452100170E2,-6.726100445E-1,5.320835114E-2,1.566346407E0
7.457100170E2,3.002577782E0,-2.157843590E0,2.532867908E0
7.462100170E2,2.341694355E0,3.809802532E0,5.797121525E-1
7.467100170E2,7.617611885E-1,-8.011727333E-1,1.292055726E0
7.472100170E2,1.798048019E-1,2.974389553E0,6.543008089E-1
7.477100170E2,-3.043047905E0,7.223110199E-1,1.107488275E0
7.482100170E2,1.226952553E0,-2.864427567E-1,2.604504824E0
7.487100170E2,-1.675978184E0,-8.123335838E-1,2.287090063E0
7.492100170E2,2.649275303E0,-2.325799942E0,1.574005723E0
7.497100170E2,-1.667299032E0,-2.195187569E0,-7.040703297E-2
7.502100170E2,1.298210621E0,-2.197329998E0,2.422073603E0
7.507100170E2,-1.686759949E0,-3.058523178E0,1.187187314E0
7.512100170E2,-1.448853016E0,3.022089005E-1,3.689019203E0
7.517100170E2,7.175621986E-1,-7.811660767E-1,3.951350451E-1
7.522100170E2,-2.963473558E0,7.849745750E-1,1.904273152E0
7.527100170E2,8.989441395E-1,2.319855690E0,-8.682878017E-1
7.532100170E2,-2.583260775E0,-1.034721375E0,8.149790764E-2
7.537100170E2,1.246784925E0,2.776205540E0,-9.764116406E-1
7.542100170E2,-2.140455723E0,4.847726822E-1,8.533452749E-1
7.547100170E2,2.212230682E0,1.316905022E0,9.736275673E-1
7.552100170E2,-1.601677895E0,1.844574928E0,1.898834825E0
7.557100170E2,1.695569754E0,-1.641998291E0,3.141225338E0
7.562100170E2,-1.018743277E0,-6.175899506E-1,1.485021710E0
7.567100170E2,3.108257294E0,-2.609143257E0,1.809574604E0
7.572100170E2,-7.567477226E-1,-2.567778587E0,6.223821044E-1
7.577100170E2,1.726942539E0,-1.121763229E0,1.935023785E0
7.582100170E2,-2.768723965E-1,-2.567959785E0,2.217108965E0
7.587100170E2,-4.374408722E-1,-5.290040970E-1,2.652238846E0
7.592100170E2,5.409824848E-1,-1.421085358E0,1.184507608E0
7.597100170E2,-2.837395430E0,6.260657310E-1,2.129866838E0
7.602100170E2,8.749394417E-1,1.754874706E0,-3.604322672E-1
7.607100170E2,-2.746203184E0,5.571908951E-1,7.630974054E-1
7.612100170E2,8.278174400E-1,3.648509502E0,-7.287764549E-1
7.617100170E2,-1.908230305E0,-7.717151642E-1,-1.036902666E-1
7.622100170E2,9.064366817E-1,2.896361828E0,-7.024827003E-1
7.627100170E2,-1.910365820E0,-2.232060432E0,2.368631363E0
7.632100170E2,2.327801228E0,1.836719513E-1,5.806915164E-1
7.637100170E2,2.258014679E-2,-2.565877914E0,7.541701198E-1
7.642100170E2,2.544518948E0,-3.245244980E0,1.815712690E0
7.647100170E2,2.464880943E-1,6.199727058E-1,6.673586369E-1
7.652100170E2,3.755326271E0,-1.653542519E0,1.288460970E0
7.657100170E2,1.926311255E0,3.533707142E0,-1.038660169E0
7.662100170E2,2.891399860E0,1.120737076E0,1.467638969E0
7.667100170E2,-2.081031799E0,-1.863503456E0,1.278382063E0
7.672100170E2,-3.272353888E0,2.224173546E-1,2.773966074E0
7.677100170E2,-9.891886711E-1,2.420725346E0,-6.393754482E-1
7.682100170E2,-6.645922661E-1,7.363452911E-1,1.140034199E0
7.687100170E2,-2.159691095E0,2.098404408E0,-1.318756104E0
7.692100170E2,-1.536075354E0,-2.694213867E0,5.396461487E-2
7.697100170E2,-3.321247101E-1,-5.183563232E-1,1.918686628E0
7.702100170E2,-1.880791903E0,-3.189144135E0,8.245738745E-1
7.707100170E2,3.628635406E-1,-2.117956161E0,8.048280478E-1
7.712100170E2,-3.563601971E-1,-2.292300224E0,9.553115368E-1
7.717100170E2,1.725696087E0,-3.174904823E0,1.321397543E0
7.722100170E2,6.302802563E-1,2.640047550E0,-7.603397369E-1
7.727100170E2,3.044052124E-1,-2.500730515E0,-4.066486359E-1
7.732100170E2,1.668465376E0,4.157119274E0,1.342363358E-1
7.737100170E2,-2.044435501E0,-7.948951721E-1,7.196173072E-1
7.742100170E2,2.137346268E-1,1.572702885E0,5.877844691E-1
7.747100170E2,-3.444353342E0,7.087545395E-1,4.691742659E-1
7.752100170E2,2.272779942E0,-1.777142525E0,1.229259253E0
7.757100170E2,-1.420259714E0,-3.341579437E-1,6.320800781E-1
7.762100170E2,2.508199692E0,-2.896709442E0,3.360140324E-1
7.767100170E2,-1.423045635E0,-2.427952766E0,1.557867646E0
7.772100170E2,1.751778603E0,-1.896690845E0,1.409529567E0
7.777100170E2,8.982686996E-1,-2.594568253E0,1.694602370E0
7.782100170E2,-2.195058346E0,8.319954872E-1,1.617726684E0
7.787100170E2,3.438668013E0,3.438265800E0,4.324021339E-1
7.792100170E2,4.946274757E-1,-1.663534164E0,9.161623120E-1
7.797100170E2,1.637098789E0,2.856110096E0,-5.921056271E-1
7.802100170E2,-3.712935209E0,-9.024233818E-1,3.130106688E0
7.807100170E2,2.339646339E0,-8.028783798E-1,2.203597069E0
7.812100170E2,-2.226815701E0,-3.165035248E-1,-6.581449509E-2
7.817100170E2,4.030141830E-1,-3.374814034E0,1.590521097E0
7.822100170E2,-2.302652836E0,-2.151636124E0,5.303645134E-2
7.827100170E2,5.750169754E-1,-6.331405640E-1,1.128879070E0
7.832100170E2,-5.949132442E-1,-2.926298141E0,2.257437468E0
7.837100170E2,-1.219934464E0,1.031441689E-1,1.712943912E0
7.842100170E2,6.133606434E-1,-9.894342422E-1,1.084198713E0
7.847100170E2,-4.448678970E0,-1.567943096E0,2.692916632E0
7.852100170E2,3.129296780E0,3.159629822E0,-1.653528571E0
7.857100170E2,-1.410498857E0,-4.529552460E-1,-2.091674805E-1
7.862100170E2,2.788844109E0,2.100794315E0,1.317640662E0
7.867100170E2,-1.628188372E0,-2.236555099E0,-8.768228889E-1
7.872100170E2,2.110365629E0,-1.345063210E0,2.011035919E0
7.877100170E2,3.990790844E-1,-1.060247421E-1,-6.554126740E-1
7.882100170E2,1.779674530E0,-1.996196747E0,3.806903064E-1
7.887100170E2,2.224369287E0,3.015718937E0,-5.750217438E-1
7.892100170E2,-1.434817314E-1,-7.826733589E-1,6.856864691E-1
7.897100170E2,2.239802599E0,1.542399406E0,-4.207839966E-1
7.902100170E2,-3.450774908E0,-7.484326363E-1,1.692883968E0
7.907100170E2,2.858664513E0,-1.293803215E0,2.166166067E0
7.912100170E2,-1.690362692E0,-1.695977211E0,-1.362523079E0
7.917100170E2,2.077837467E0,-1.214602470E0,2.076285362E0
7.922100170E2,-1.483114004E0,-2.619600296E0,8.670923710E-1
7.927100170E2,2.007107019E0,-1.437036514E0,9.632201195E-1
7.932100170E2,2.711081505E-1,-9.689121246E-1,-6.711411476E-2
7.937100170E2,1.943384171E0,-2.108328819E0,1.372746676E-1
7.942100170E2,3.177575111E0,1.123669624E0,-1.036909819E-1
7.947100170E2,1.970429420E-1,-3.442654133E0,5.905582905E-1
7.952100170E2,3.222094297E0,3.245364189E0,2.627642155E-1
7.957100170E2,-1.997658253E0,-1.348696232E0,9.502780437E-1
7.962100170E2,1.247634888E0,2.570417881E0,7.079362869E-2
7.967100170E2,-3.764163733E0,5.217838287E-2,1.318958759E0
7.972100170E2,1.266786098E0,-1.014081001E0,1.959210396E0
7.977100170E2,-3.377347231E0,-8.939914703E-1,2.105056047E-1
7.982100170E2,2.610565662E0,-2.798317909E0,1.639135957E0
7.987100170E2,-2.903808117E0,-2.923244953E0,8.632171154E-1
7.992100170E2,1.954658508E0,-1.445032120E0,1.166075945E0
7.997100170E2,-1.179318905E0,-2.790973663E0,6.061862111E-1
8.002100170E2,-8.737015724E-1,-1.163024902E-1,2.412440300E0
8.007100170E2,1.551126480E0,-8.600692749E-1,1.081444860E0
8.012100170E2,-4.068196297E0,1.181077957E-2,1.856903911E0
8.017100170E2,8.475131989E-1,2.769151211E0,-7.669782639E-2
8.022100170E2,-2.572767735E0,-5.479311943E-1,7.408807278E-1
8.027100170E2,8.336269855E-1,3.318756580E0,-1.314218640E0
8.032100170E2,-1.789661407E0,-1.294443130E0,-1.932892501E-1
8.037100170E2,1.104564905E0,1.341335773E0,3.565678000E-1
8.042100170E2,-3.256320953E-1,-2.573381424E0,5.559265614E-2
8.047100170E2,2.552047968E0,-5.917129517E-1,1.067532420E0
8.052100170E2,-1.236220837E0,7.838535309E-2,2.003513336E0
8.057100170E2,1.160890102E0,-1.779923439E0,2.418394089E-1
8.062100170E2,-6.062180996E-1,-1.885423660E0,8.322393894E-2
8.067100170E2,-3.037126064E-1,-3.053245544E-1,2.128158808E0
8.072100170E2,-6.818919182E-1,-1.917740822E0,7.095603347E-1
8.077100170E2,-7.986943722E-1,1.130848885E0,9.149942398E-1
8.082100170E2,5.634927750E-2,2.782583237E-1,-7.405706644E-1
8.087100170E2,-3.006269455E0,2.362251282E-2,4.163401723E-1
8.092100170E2,1.267896891E0,1.903385639E0,-8.095940948E-1
8.097100170E2,-2.550302505E0,-4.719867706E-1,5.984808207E-1
8.102100170E2,2.816267014E0,3.156457424E0,-1.178798079E0
8.107100170E2,-3.568693399E0,-4.349956512E-1,-1.327521354E-1
8.112100170E2,4.785926342E-1,2.296694279E0,-2.324736118E-2
8.117100170E2,-3.228851080E0,-1.635162354E0,-1.332540274E0
8.122100170E2,2.633996010E-1,1.474653721E0,1.424069881E0
8.127100170E2,-6.970906258E-1,-1.326208115E0,2.320870459E-1
8.132100170E2,6.937494278E-1,1.894167423E0,1.467636585E0
8.137100170E2,-1.113750696E0,-1.332401276E0,8.953130841E-1
8.142100170E2,2.613263130E-1,1.101243496E0,8.684756756E-1
8.147100170E2,5.513477325E-1,-2.188204765E0,1.604862213E0
8.152100170E2,3.171112061E0,-9.618911743E-1,-5.330238938E-1
8.157100170E2,9.415650368E-1,-1.396747589E0,4.134639502E-1
8.162100170E2,4.774077415E0,-1.060437202E0,4.486161470E-1
8.167100170E2,-5.187242031E-1,1.693559170E0,-3.249218225E0
8.172100170E2,6.353735924E-1,-1.327271461E0,2.359816730E-1
8.177100170E2,1.794710159E-1,-2.368027687E0,1.252601385E0
8.182100170E2,-2.463421345E0,-2.155038834E0,6.966357827E-1
8.187100170E2,4.696651936E0,7.649354935E-1,1.841681600E0
8.192100170E2,-4.265325546E0,-2.446396828E0,5.564846992E-1
8.197100170E2,4.218389511E0,3.653262138E0,-2.170014381E-2
8.202100170E2,-2.603677034E0,-1.639283180E0,-2.397456169E-1
8.207100170E2,9.333100319E-1,2.308063507E-1,2.435319424E0
8.212100170E2,8.979644775E-1,-1.948968887E0,1.518120289E0
8.217100170E2,2.113220215E0,-3.721224785E0,1.659531951E0
8.222100170E2,2.567094326E0,3.098614216E0,2.170534134E-1
8.227100170E2,-1.385395527E0,-1.186940670E0,1.802418232E0
8.232100170E2,6.095256805E-1,2.394379139E0,1.627444506E0
8.237100170E2,-2.497897625E0,9.454302788E-1,6.221530437E-1
8.242100170E2,1.108289242E0,-2.509224892E0,7.983685732E-1
8.247100170E2,-1.847908735E0,-1.421876907E0,-8.974511623E-1
8.252100170E2,-4.982781410E-1,-3.148910999E0,1.555134177E0
8.257100170E2,-6.360180378E-1,-2.938829422E0,1.844742298E0
8.262100170E2,-3.329458475E0,3.531436920E-1,1.429566860E0
8.267100170E2,4.752459526E-1,2.441968441E0,-1.120653749E0
8.272100170E2,-3.849165440E0,-5.348949432E-1,-9.947147369E-1
8.277100170E2,1.776548386E0,-2.165283203E0,-2.620328903E0
8.282100170E2,3.037811756E0,2.631550074E0,-1.128368378E-1
8.287100170E2,-6.650514603E-1,-9.004533291E-2,-3.181819916E-1
8.292100170E2,1.498029232E0,-2.583154678E0,1.828484535E0
8.297100170E2,-1.647188663E0,4.525950432E0,-1.841473579E0
8.302100170E2,-1.079053760E0,2.211854696E0,-2.630319595E-1
8.307100170E2,-6.360405087E-1,-5.908179283E-1,2.198850632E0
8.312100170E2,3.287093639E-1,9.941802025E-1,1.002130508E-1
8.317100170E2,9.379937649E-1,-3.272065163E0,2.348238945E0
8.322100170E2,-9.952278137E-1,-1.215343475E-1,-1.755924106E0
8.327100170E2,2.620000839E-1,-3.367955685E0,3.337715626E0
8.332100170E2,-8.928053379E-1,-1.640882492E0,-3.319686174E0
8.337100170E2,-2.804015636E0,-3.597239971E0,3.571157694E0
8.342100170E2,2.891938686E-1,-3.990430832E-1,1.042906284E0
8.347100170E2,-3.652457714E0,-2.640659332E0,-4.573274255E-1
8.352100170E2,4.485546112E0,3.050941944E0,-1.883637905E-1
8.357100170E2,-2.850196838E0,-2.660597801E0,-3.986929059E-1
8.362100170E2,4.082529068E0,1.935669422E0,1.140454173E0
8.367100170E2,-2.508680344E0,-3.015821457E0,1.440870047E0
8.372100170E2,1.993925571E0,-2.789124489E0,6.736490726E-1
8.377100170E2,1.270890236E-1,9.465675354E-1,-2.124023438E-2
8.382100170E2,1.658676624E0,-2.393058777E0,1.551534891E0
8.387100170E2,1.913396597E0,3.441504002E0,8.095777631E-1
8.392100170E2,-2.058867455E0,-5.922613144E-1,1.666220427E0
8.397100170E2,1.239657879E0,2.134733200E0,1.415445447E0
8.402100170E2,-3.634900808E0,4.496297836E-1,-5.055997968E-1
8.407100170E2,1.180091381E0,-9.142532349E-1,2.125579834E0
8.412100170E2,-1.500947952E0,2.013711929E-1,8.395459652E-1
8.417100170E2,3.949077606E0,-3.634905815E0,-2.226073027E0
8.422100170E2,-1.343662739E0,-3.445377350E-1,1.635871291E0
8.427100170E2,6.077086926E-2,1.631749153E0,1.920375824E0
8.432100170E2,-5.651316047E-1,-5.545206070E-1,-3.064214468E0
8.437100170E2,1.112331152E-1,-1.902680397E0,3.005102873E0
8.442100170E2,2.956395149E-1,3.087714195E0,-6.528789401E-1
8.447100170E2,-1.896635294E0,1.801347733E-1,6.807496548E-1
8.452100170E2,1.852483273E0,1.823705196E0,1.104354262E-1
8.457100170E2,-3.037023783E0,9.532685280E-1,-5.668512583E-1
8.462100170E2,2.279532909E0,-3.284388542E0,5.877533555E-1
8.467100170E2,-1.001008749E0,-2.762971878E0,-4.049243927E-1
8.472100170E2,2.270731926E-1,7.656359673E-1,1.544960380E0
8.477100170E2,6.666696072E-1,-1.401424408E-1,-2.602565289E-2
8.482100170E2,-2.848530769E0,1.845432758E0,6.691357493E-1
8.487100170E2,1.946464539E0,2.411774158E0,-5.831142664E-1
8.492100170E2,-1.215677738E0,1.384229660E-1,-1.158316612E0
8.497100170E2,1.458285570E0,1.798727036E0,1.057171464E0
8.502100170E2,-1.676900387E-1,-2.584665298E0,8.432576656E-1
8.507100170E2,9.571764469E-1,-1.196242332E0,1.620346189E0
8.512100170E2,-2.310707569E-1,-1.863681793E0,4.149734974E-2
8.517100170E2,2.227396011E0,-2.318418503E0,-8.483852744E-1
8.522100170E2,2.077400923E0,3.462200642E0,-9.709106684E-1
8.527100170E2,2.835369110E-1,-4.910135269E-1,1.327896237E0
8.532100170E2,2.144352913E0,2.781183243E0,2.218532562E-2
8.537100170E2,-3.022031069E0,5.083060265E-1,1.116985917E0
8.542100170E2,1.528262377E0,-2.615123749E0,1.260330796E0
8.547100170E2,-2.327281952E0,-1.246519089E0,-5.513046980E-1
8.552100170E2,8.895640373E-1,-3.104728699E0,1.057625413E0
8.557100170E2,-9.305856228E-1,-3.235684395E0,1.200997353E0
8.562100170E2,1.260996342E0,-3.193274498E0,9.502763748E-1
8.567100170E2,1.025829315E0,1.895247459E0,-7.278501987E-1
8.572100170E2,1.234947681E0,-1.023981094E0,1.119160533E0
8.577100170E2,7.761046886E-1,2.699462414E0,-3.484455347E-1
8.582100170E2,-2.364442348E0,1.988390446E0,3.595866263E-1
8.587100170E2,8.208448887E-1,-1.095750809E0,1.074252248E0
8.592100170E2,-1.444385767E0,-7.481107712E-1,1.376223207E0
8.597100170E2,1.077907085E0,-2.558210373E0,-5.148040056E-1
8.602100170E2,-1.619676590E0,-3.605637550E0,5.583450794E-1
8.607100170E2,-1.648268700E0,9.290981293E-1,6.811402440E-1
8.612100170E2,9.703602791E-1,1.306202412E0,4.506099224E-2
8.617100170E2,-3.017836332E0,-5.232305527E-1,1.191699028E0
8.622100170E2,-6.376423836E-1,3.786199093E0,-8.835368156E-1
8.627100170E2,-9.077677727E-1,-4.146896362E0,2.736922741E0
8.632100170E2,1.775060654E0,-7.674589157E-1,5.858595967E-1
8.637100170E2,-4.566192627E-2,-4.513034821E-1,3.086535931E-1
8.642100170E2,1.379431725E0,-2.427417755E0,9.151167274E-1
8.647100170E2,2.272145748E0,4.173273563E0,-3.634136915E-1
8.652100170E2,-1.293809175E0,1.033097744E0,2.096156359E0
8.657100170E2,5.994467735E-1,7.435703278E-2,8.497717381E-1
8.662100170E2,-2.680014133E0,-1.830511093E-1,2.367930710E-1
8.667100170E2,2.161133766E0,-2.635766029E0,1.530020952E0
8.672100170E2,-9.195327759E-3,-2.781786919E0,8.918876052E-1
8.677100170E2,8.321418762E-1,4.727115631E-1,1.131746769E0
8.682100170E2,5.869641304E-1,-9.762926102E-1,-3.167338371E-1
8.687100170E2,2.823561192E0,-2.133382797E0,-4.353933036E-1
8.692100170E2,7.339868546E-1,3.099542141E0,-1.608489394E0
8.697100170E2,3.504157066E-1,-1.420145035E-1,1.282784462E0
8.702100170E2,3.468091488E-1,2.794073582E0,-4.088042974E-1
8.707100170E2,-2.325515032E0,2.266561985E0,-3.396798074E-1
8.712100170E2,2.041687250E0,-2.461919785E-1,1.639273524E0
8.717100170E2,-1.306958914E0,-3.348484039E-1,-8.501726389E-1
8.722100170E2,3.947846174E0,-1.424620628E0,5.101578832E-1
8.727100170E2,-2.335841656E-1,-3.838285446E0,9.169434309E-1
8.732100170E2,-5.909729004E-2,3.856158257E-1,1.577703476E0
8.737100170E2,1.435530186E0,6.652173996E-1,-1.017273664E-1
8.742100170E2,-2.079566717E0,2.060046196E0,9.162887335E-1
8.747100170E2,-2.536177635E-1,3.872207165E0,-9.585188031E-1
8.752100170E2,-6.223006248E-1,-9.573965073E-1,-2.385789156E-2
8.757100170E2,2.429201603E-1,1.702007294E0,5.006320477E-1
8.762100170E2,3.502397537E-1,-2.713987350E0,1.075213313E0
8.767100170E2,2.905110359E0,-9.308547974E-1,9.947304726E-1
8.772100170E2,4.496426582E-1,6.606197357E-2,-4.564389586E-1
8.777100170E2,3.257147312E0,-1.865250587E0,3.758569360E-1
8.782100170E2,1.568030834E0,3.670238972E0,-8.674991131E-1
8.787100170E2,8.452615738E-1,-6.799974442E-1,1.670883894E0
8.792100170E2,5.005621910E-1,3.380064011E0,1.382457018E-1
8.797100170E2,-1.526837349E0,1.030570507E0,1.092439294E0
8.802100170E2,7.387580872E-1,8.295421600E-1,5.724672079E-1
8.807100170E2,-2.265430212E0,2.037058830E0,1.454964399E0
8.812100170E2,1.899458408E0,3.688877583E0,-1.296433806E0
8.817100170E2,-2.319956779E0,-2.468729019E-1,5.381886363E-1
8.822100170E2,-3.390893936E-1,3.646126747E0,-9.262620211E-1
8.827100170E2,-1.625358105E0,-3.804697990E-1,1.356205940E-1
8.832100170E2,2.078497171E0,2.959207535E0,4.357964396E-1
8.837100170E2,-2.381990671E0,-5.971589088E-1,5.923576355E-1
8.842100170E2,1.932907104E-1,1.853834629E0,-7.091605663E-1
8.847100170E2,-1.780624866E0,3.293161392E-1,1.008129001E0
8.852100170E2,1.192955971E0,-4.567088127E0,-3.222763538E0
8.857100170E2,2.805256367E0,-6.609153748E-2,-2.116236210E0
8.862100170E2,-1.071893692E0,1.163127422E0,8.996009827E-2
