"Time (s)","Acceleration x (m/s^2)","Acceleration y (m/s^2)","Acceleration z (m/s^2)"
0.000000000E0,-4.205385685E0,5.817550182E0,4.425525665E0
1.465188300E-2,-3.764508247E0,6.056832314E0,4.653441906E0
5.146518830E-1,-1.189831018E0,3.440878868E0,9.617950439E0
1.014651883E0,-1.347757339E0,3.556930780E0,9.612566948E0
1.514651883E0,6.253043652E0,-2.285743713E0,6.016752720E0
2.014651883E0,6.935596466E0,-8.277371407E0,2.985046208E-1
2.514651883E0,4.835296154E0,-8.017750740E0,-1.453041553E0
3.014651883E0,5.524429321E0,-8.060222626E0,-1.724626899E0
3.514651883E0,5.471786976E0,-7.788039684E0,-1.685743570E0
4.014651883E0,4.758127689E0,-8.280363083E0,-1.330409408E0
4.514651883E0,5.132006168E0,-8.151150703E0,-7.932206988E-1
5.014651883E0,4.619942188E0,-8.682954788E0,-1.253839016E0
5.514651883E0,5.136792183E0,-8.318648338E0,-1.035493970E0
6.014651883E0,5.294120312E0,-8.469395638E0,-1.135394335E0
6.514651883E0,4.924428940E0,-8.358727455E0,-8.243274093E-1
7.014651883E0,5.114658356E0,-8.276175499E0,7.836493850E-2
7.514651883E0,4.826921463E0,-8.644669533E0,-5.419743061E-1
8.014651883E0,4.378865242E0,-8.537590981E0,-1.064207911E0
8.514651883E0,4.469792843E0,-8.421539307E0,-1.518844128E0
9.014651883E0,5.669793129E0,-8.042875290E0,-2.261217386E-1
9.514651883E0,4.954339504E0,-8.247461319E0,-2.981456995E0
1.001465188E1,4.942375183E0,-7.921439171E0,-1.668395638E0
1.051465188E1,5.758327484E0,-8.256434441E0,-7.704889178E-1
1.101465188E1,6.119643688E0,-7.727022648E0,-2.056032896E0
1.151465188E1,5.739783287E0,-7.816154957E0,-1.546959877E0
1.201465188E1,5.918646812E0,-7.663612843E0,-1.034895778E0
1.251465188E1,5.487938881E0,-7.862815380E0,-1.957328916E0
1.301465188E1,6.367899418E0,-7.754539967E0,-6.400800347E-1
1.351465188E1,6.270391941E0,-7.677371502E0,-2.931207716E-1
1.401465188E1,6.186044693E0,-7.567301750E0,-6.089733839E-1
1.451465188E1,6.124429703E0,-7.878966808E0,-6.873382926E-1
1.501465188E1,6.643671989E0,-7.576872826E0,-9.523434043E-1
1.551465188E1,7.363911629E0,-7.317251682E0,-4.486542568E-2
1.601465188E1,6.382256031E0,-7.483552933E0,-3.218346536E-1
1.651465188E1,6.458826542E0,-7.524230957E0,-6.496513486E-1
1.701465188E1,6.411568165E0,-6.854838848E0,-5.647061467E-1
1.751465188E1,6.669394970E0,-7.268198967E0,-7.178468108E-1
1.801465188E1,5.637490273E0,-7.666603565E0,-3.942175210E-1
1.851465188E1,5.302495003E0,-8.898308754E0,-8.883354068E-1
1.901465188E1,2.754737139E0,-9.006584167E0,-2.445464849E0
1.951465188E1,6.104688644E0,-7.843672752E0,-1.499103427E0
2.001465188E1,4.034298897E0,-8.775078773E0,-1.698904037E0
2.051465188E1,3.619742393E0,-8.440083504E0,-2.480160713E0
2.101465188E1,4.159922123E0,-8.657232285E0,-2.370090723E0
2.151465188E1,3.874577999E0,-8.350951195E0,-2.283949137E0
2.201465188E1,4.050450325E0,-8.103293419E0,-2.566302299E0
2.251465188E1,4.249652863E0,-8.395217896E0,-1.913061738E0
2.301465188E1,3.987638950E0,-8.173882484E0,-2.193022013E0
2.351465188E1,4.045664787E0,-8.298309326E0,-2.248056889E0
2.401465188E1,4.406383038E0,-9.205786705E0,-2.608176708E0
2.451465188E1,3.853640795E0,-8.424530029E0,-1.932204247E0
2.501465188E1,4.104289055E0,-8.652446747E0,-1.978266120E0
2.551465188E1,4.150949001E0,-8.656036377E0,-2.036890268E0
2.601465188E1,3.985246181E0,-8.627322197E0,-2.046461582E0
2.651465188E1,4.039084435E0,-8.280961037E0,-1.845464468E0
2.701465188E1,4.455435753E0,-9.395418167E0,-1.730608940E0
2.751465188E1,4.278367043E0,-8.514859200E0,-1.293918848E0
2.801465188E1,4.763511658E0,-8.589036942E0,-1.836491346E0
2.851465188E1,5.047659397E0,-8.749356270E0,-9.445667267E-1
2.901465188E1,4.750350952E0,-8.273183823E0,-2.757728100E-1
2.951465188E1,4.776073933E0,-8.363512993E0,-7.914260626E-1
3.001465188E1,4.944767952E0,-8.649456024E0,-2.285145670E-1
3.051465188E1,4.753342152E0,-9.070592880E0,-7.992027402E-1
3.101465188E1,4.639084816E0,-7.730013371E0,-6.664010882E-1
3.151465188E1,3.993022680E0,-7.211967468E0,-1.255035520E0
3.201465188E1,4.784449100E0,-8.382656097E0,-6.855437160E-1
3.251465188E1,4.596014023E0,-8.215158463E0,-9.601200819E-1
3.301465188E1,4.809573650E0,-8.078168869E0,-5.198407173E-1
3.351465188E1,5.085944653E0,-8.732605934E0,-6.699903607E-1
3.401465188E1,4.518845558E0,-8.465806961E0,-7.387840152E-1
3.451465188E1,4.921437740E0,-8.567501068E0,-6.669993401E-1
3.501465188E1,4.525425911E0,-8.561519623E0,-1.112064362E0
3.551465188E1,4.859224796E0,-8.660821915E0,-8.644071817E-1
3.601465188E1,4.712664127E0,-8.331808090E0,-1.027119160E0
3.651465188E1,4.453640938E0,-8.557929993E0,-3.655036688E-1
3.701465188E1,4.625924587E0,-8.364111900E0,-3.415754437E-1
3.751465188E1,4.305285931E0,-8.785248756E0,-8.087740541E-1
3.801465188E1,4.922634602E0,-8.718249321E0,-1.573280931E0
3.851465188E1,4.994419098E0,-8.476573944E0,-1.218544960E0
3.901465188E1,4.941776752E0,-8.551948547E0,-7.926225066E-1
3.951465188E1,4.767699242E0,-7.468597889E0,-1.089332461E0
4.001465188E1,5.597410202E0,-8.132007599E0,-8.183453679E-1
4.051465188E1,5.438287735E0,-8.340183258E0,-2.991028363E-3
4.101465188E1,5.000999451E0,-7.875975609E0,-4.821537733E-1
4.151465188E1,4.998008251E0,-8.041678429E0,-1.174277663E0
4.201465188E1,5.320441246E0,-8.246863365E0,-1.471585929E-1
4.251465188E1,5.497509956E0,-8.047660828E0,-3.218346536E-1
4.301465188E1,5.632704735E0,-8.423932076E0,-8.051848412E-1
4.351465188E1,6.277570248E0,-7.722237110E0,-1.797608018E0
4.401465188E1,5.366502762E0,-8.100302696E0,-1.268195987E0
4.451465188E1,6.040680885E0,-8.177471161E0,-1.465603858E-1
4.501465188E1,5.434698582E0,-7.708477974E0,-8.404789567E-1
4.551465188E1,6.356533527E0,-7.926823139E0,-7.262216806E-1
4.601465188E1,5.282155991E0,-8.385646820E0,-1.531406492E-1
4.651465188E1,5.467001438E0,-8.082955360E0,-4.259224236E-1
4.701465188E1,5.090131760E0,-8.009973526E0,-7.704889178E-1
4.751465188E1,5.519045353E0,-8.494520187E0,7.453642488E-1
4.801465188E1,3.684946775E0,-8.253443718E0,1.581057549E0
4.851465188E1,5.285147190E0,-7.942376614E0,2.189432681E-1
4.901465188E1,5.412564754E0,-8.290532112E0,1.262213886E-1
4.951465188E1,5.880361557E0,-7.899903774E0,-2.859423161E-1
5.001465188E1,5.633901119E0,-7.989036560E0,-3.302095234E-1
5.051465188E1,5.621338367E0,-8.068597794E0,-1.501496136E-1
5.101465188E1,5.375475883E0,-7.752745152E0,-2.033899166E-2
5.151465188E1,4.911268711E0,-8.703892708E0,-1.447657645E-1
5.201465188E1,5.105087280E0,-8.078168869E0,1.615155302E-2
5.251465188E1,5.774479389E0,-8.060821533E0,-5.234299302E-1
5.301465188E1,5.634499073E0,-7.786244869E0,-8.362914920E-1
5.351465188E1,5.766702652E0,-8.540582657E0,-1.256231815E-1
5.401465188E1,5.570491314E0,-8.331808090E0,-3.469592705E-2
5.451465188E1,5.687141418E0,-7.894520283E0,-6.233302951E-1
5.501465188E1,5.815755367E0,-8.088936806E0,1.645065546E-1
5.551465188E1,5.574080467E0,-7.580461979E0,-6.747759581E-1
5.601465188E1,5.922834396E0,-7.666603565E0,-4.797609448E-1
5.651465188E1,5.629713535E0,-8.185248375E0,-1.435693540E-2
5.701465188E1,5.681757450E0,-8.239086151E0,4.642075896E-1
5.751465188E1,5.257629395E0,-8.087740898E0,1.405783296E-1
5.801465188E1,5.542973518E0,-8.054241180E0,4.127619043E-2
5.851465188E1,5.495117188E0,-8.029116631E0,3.744767308E-1
5.901465188E1,5.991627693E0,-8.085946083E0,-3.637090325E-1
5.951465188E1,6.193821430E0,-6.917052269E0,-1.597209096E0
6.001465188E1,5.666203976E0,-8.413164139E0,-1.471585929E-1
6.051465188E1,5.334797859E0,-7.666603565E0,-3.607180119E-1
6.101465188E1,5.067998409E0,-7.865806103E0,-2.691925503E-2
6.151465188E1,5.949753284E0,-7.980661869E0,5.234299302E-1
6.201465188E1,4.520640373E0,-8.462217331E0,1.215553880E0
6.251465188E1,5.400002480E0,-7.886743546E0,3.696911037E-1
6.301465188E1,5.910272121E0,-8.239685059E0,-5.282155871E-1
6.351465188E1,5.904289722E0,-8.102097511E0,-7.214360237E-1
6.401465188E1,5.650650501E0,-8.173882484E0,-4.211367965E-1
6.451465188E1,5.937789440E0,-8.708678246E0,1.196411327E-1
6.501465188E1,4.628915310E0,-7.925028801E0,-7.178468257E-2
6.551465188E1,5.801996708E0,-7.670193195E0,1.974078715E-1
6.601465188E1,6.929614544E0,-7.339983463E0,-6.831508875E-1
6.651465188E1,6.071787357E0,-8.020741463E0,-5.090730190E-1
6.701465188E1,6.732206345E0,-8.154739380E0,-7.549355626E-1
6.751465188E1,6.136991978E0,-7.902296543E0,-1.543370634E-1
6.801465188E1,6.044270039E0,-7.813762188E0,2.344966233E-1
6.851465188E1,6.242276192E0,-7.465606689E0,-1.125823021E0
6.901465188E1,5.420939922E0,-8.179863930E0,-6.299105883E-1
6.951465188E1,5.843272686E0,-7.770093441E0,8.183453679E-1
7.001465188E1,6.323033810E0,-7.945367813E0,3.672982752E-1
7.051465188E1,5.073980331E0,-7.582256794E0,9.690931439E-2
7.101465188E1,6.417550564E0,-7.593622684E0,-3.912265003E-1
7.151465188E1,6.780063152E0,-7.995616913E0,-1.998006850E-1
7.201465188E1,7.512266636E0,-8.025527000E0,-3.218346536E-1
7.251465188E1,5.514857769E0,-7.998009682E0,1.136590764E-1
7.301465188E1,5.681757450E0,-7.936394691E0,-2.715853751E-1
7.351465188E1,5.751149178E0,-7.564908981E0,3.762713671E-1
7.401465188E1,5.788836002E0,-7.763513088E0,-5.473581553E-1
7.451465188E1,5.876772404E0,-8.078168869E0,1.591227055E-1
7.501465188E1,5.551348686E0,-8.279166222E0,-1.854437590E-1
7.551465188E1,5.243272781E0,-8.175078392E0,-3.409772217E-1
7.601465188E1,5.292923450E0,-7.563114166E0,-1.830509305E-1
7.651465188E1,5.377869129E0,-8.678169250E0,-2.135594189E-1
7.701465188E1,5.538187981E0,-7.763513088E0,1.627119333E-1
7.751465188E1,5.526223660E0,-8.231309891E0,-1.406979680E0
7.801465188E1,6.229115486E0,-7.846663475E0,-3.098705411E-1
7.851465188E1,6.062216282E0,-7.918448448E0,-5.455635786E-1
7.901465188E1,5.677569866E0,-7.803592682E0,3.840480447E-1
7.951465188E1,5.792425632E0,-8.391031265E0,-1.160518974E-1
8.001465188E1,5.535196781E0,-8.124231339E0,-3.176472187E-1
8.051465188E1,5.444868088E0,-8.060222626E0,-5.395814776E-1
8.101465188E1,5.776273727E0,-7.830512047E0,-1.914258152E-1
8.151465188E1,6.270391941E0,-7.849654675E0,-6.699903309E-2
8.201465188E1,5.020142078E0,-7.887939930E0,3.762713671E-1
8.251465188E1,5.163711071E0,-8.283951759E0,4.372883439E-1
8.301465188E1,5.613562107E0,-8.298309326E0,1.387837082E-1
8.351465188E1,5.684150219E0,-7.816753387E0,-1.003789067E0
8.401465188E1,4.810770035E0,-7.859225750E0,-8.135597110E-1
8.451465188E1,5.372485161E0,-7.775477409E0,-1.471585929E-1
8.501465188E1,5.485546112E0,-7.845467091E0,-5.521438122E-1
8.551465188E1,5.198407173E0,-8.060821533E0,4.486542344E-1
8.601465188E1,5.918048382E0,-8.304290771E0,-7.573283911E-1
8.651465188E1,7.864011765E0,-8.925228119E0,-9.828519225E-1
8.701465188E1,6.235695839E0,-6.270391941E0,6.783652306E-1
8.751465188E1,4.393222332E0,-9.582656860E0,-6.699903309E-2
8.801465188E1,6.156134605E0,-6.803991318E0,-1.210768223E0
8.851465188E1,5.450850010E0,-8.456234932E0,-4.342973232E-1
8.901465188E1,5.640480995E0,-7.543971539E0,-6.041877344E-2
8.951465188E1,6.134000778E0,-7.907680511E0,-4.725824594E-1
9.001465188E1,4.514060020E0,-8.523234367E0,-2.183450609E-1
9.051465188E1,5.901896954E0,-8.201399803E0,-6.382854581E-1
9.101465188E1,4.712664127E0,-8.565108299E0,6.819544733E-2
9.151465188E1,6.296712875E0,-7.389036179E0,-8.709874153E-1
9.201465188E1,4.524229527E0,-8.489734650E0,5.569294691E-1
9.251465188E1,5.820540905E0,-8.175078392E0,-5.084748194E-2
9.301465188E1,5.480760098E0,-7.890332699E0,-1.087537885E0
9.351465188E1,4.859224796E0,-8.017750740E0,-4.666004330E-2
9.401465188E1,4.823930264E0,-8.274380684E0,-1.059422255E0
9.451465188E1,6.548557281E0,-7.869395256E0,-5.108676553E-1
9.501465188E1,6.510272026E0,-7.344769001E0,-3.768695593E-1
9.551465188E1,8.409575462E0,-7.186842918E0,-3.377469063E0
9.601465188E1,7.311269760E0,-7.191030025E0,7.435696125E-1
9.651465188E1,5.698507309E0,-7.508677483E0,-9.314061999E-1
9.701465188E1,5.501697540E0,-7.893323898E0,-4.911268353E-1
9.751465188E1,6.652047157E0,-7.165307522E0,-1.075573802E0
9.801465188E1,6.626324177E0,-7.560122967E0,1.417747438E-1
9.851465188E1,6.789036274E0,-6.682555676E0,4.671986103E-1
9.901465188E1,6.604190350E0,-7.546962738E0,-1.222134113E0
9.951465188E1,7.355536938E0,-7.491329670E0,-2.566900492E0
1.000146519E2,7.192824841E0,-7.173682213E0,-1.277767301E0
1.005146519E2,6.591030121E0,-7.146164894E0,-2.650051117E-1
1.010146519E2,5.163711071E0,-8.886942863E0,-3.990031779E-1
1.015146519E2,5.373083115E0,-7.803592682E0,-6.257231236E-1
1.020146519E2,5.776273727E0,-7.811967850E0,-1.250848055E0
1.025146519E2,6.191428661E0,-7.018746853E0,-1.569691658E0
1.030146519E2,5.685346603E0,-8.051250458E0,-2.203191519E0
1.035146519E2,5.711069584E0,-8.189435959E0,-2.008176327E0
1.040146519E2,6.022136211E0,-7.945965767E0,-1.831705689E0
1.045146519E2,5.535196781E0,-8.221738815E0,-1.716252089E0
1.050146519E2,4.703093052E0,-8.634500504E0,-9.248259664E-1
1.055146519E2,4.656432629E0,-8.543573380E0,-1.071984529E0
1.060146519E2,3.868596077E0,-8.966505051E0,-3.936193287E-1
1.065146519E2,3.812364578E0,-9.379864693E0,-1.159322619E0
1.070146519E2,3.479164124E0,-9.083154678E0,-7.334001660E-1
1.075146519E2,3.479164124E0,-9.330213547E0,-1.228116274E0
1.080146519E2,3.424727440E0,-8.990432739E0,-6.448656917E-1
1.085146519E2,3.751945972E0,-9.321240425E0,-1.094716311E0
1.090146519E2,3.979862213E0,-9.223134995E0,-1.085145116E0
1.095146519E2,3.645465374E0,-8.963513374E0,-8.279166222E-1
1.100146519E2,3.835096598E0,-8.682356834E0,-9.224331379E-1
1.105146519E2,3.852444410E0,-8.998807907E0,-6.568298340E-1
1.110146519E2,3.588037491E0,-9.347561836E0,-9.649057388E-1
1.115146519E2,3.726222992E0,-9.252447128E0,-7.764709592E-1
1.120146519E2,3.681357622E0,-9.749555588E0,-6.669993401E-1
1.125146519E2,3.566502094E0,-8.992227554E0,-1.145563841E0
1.130146519E2,3.726222992E0,-9.202795982E0,-5.772684813E-1
1.135146519E2,3.393022537E0,-9.038289070E0,-9.445667267E-1
1.140146519E2,3.614358664E0,-9.344570160E0,-1.221535921E0
1.145146519E2,3.306880951E0,-9.192028046E0,-1.194616675E0
1.150146519E2,3.775874138E0,-9.223134995E0,-1.207179070E0
1.155146519E2,3.557528973E0,-9.220144272E0,-1.368694544E0
1.160146519E2,3.094517946E0,-8.617751122E0,-1.025324464E0
1.165146519E2,3.485744476E0,-9.402596474E0,-1.197607756E0
1.170146519E2,3.285943747E0,-8.408378601E0,-6.089733839E-1
1.175146519E2,3.228515863E0,-9.175278664E0,-1.106680512E0
1.180146519E2,3.233899832E0,-8.895318031E0,-1.074975610E0
1.185146519E2,3.509074450E0,-1.061157036E1,-9.870393276E-1
1.190146519E2,3.601796389E0,-9.570094109E0,-6.795616150E-1
1.195146519E2,3.195016384E0,-9.209376335E0,-8.183453679E-1
1.200146519E2,3.349951744E0,-9.051449776E0,-9.631111026E-1
1.205146519E2,3.372085333E0,-9.137591362E0,-1.008574724E0
1.210146519E2,3.214757204E0,-9.160921097E0,-9.714859724E-1
1.215146519E2,3.017947674E0,-8.962317467E0,-8.356932998E-1
1.220146519E2,3.361317635E0,-9.373882294E0,-8.153542876E-1
1.225146519E2,3.597010612E0,-9.105886459E0,-1.500898004E0
1.230146519E2,3.118446112E0,-8.966505051E0,-8.518448472E-1
1.235146519E2,3.209373474E0,-8.973084450E0,-1.360319614E0
1.240146519E2,3.369094372E0,-9.799804688E0,-1.292124271E0
1.245146519E2,3.235096216E0,-9.657432556E0,-1.099501967E0
1.250146519E2,3.248256683E0,-9.040083885E0,-2.065604210E0
1.255146519E2,2.472383976E0,-1.115653515E1,-2.045265198E0
1.260146519E2,2.734398127E0,-8.861818314E0,-1.075573802E0
1.265146519E2,2.845664263E0,-1.108475113E1,-2.276770830E0
1.270146519E2,2.876172781E0,-8.483154297E0,-1.802991867E0
1.275146519E2,3.038884640E0,-1.031426239E1,-2.233101845E0
1.280146519E2,3.286541939E0,-9.336793900E0,-1.690529227E0
1.285146519E2,2.611765862E0,-9.170493126E0,-2.287538528E0
1.290146519E2,2.426322222E0,-8.953942299E0,-2.973680258E0
1.295146519E2,3.504288673E0,-9.521639824E0,-2.751745939E0
1.300146519E2,3.125026464E0,-9.271589279E0,-2.083550215E0
1.305146519E2,2.989831924E0,-8.846863747E0,-2.120040894E0
1.310146519E2,3.091526747E0,-9.108279228E0,-1.989632010E0
1.315146519E2,3.442075491E0,-9.936196327E0,-2.063809633E0
1.320146519E2,3.515654564E0,-9.247062683E0,-1.351346612E0
1.325146519E2,3.610171080E0,-9.379864693E0,-1.258624673E0
1.330146519E2,3.445664644E0,-8.918647766E0,-7.561319470E-1
1.335146519E2,3.686143398E0,-9.151350021E0,-5.898307562E-1
1.340146519E2,3.713660717E0,-9.337990761E0,-1.006780148E0
1.345146519E2,3.425325632E0,-9.202795982E0,-3.858426511E-1
1.350146519E2,3.403790236E0,-8.861220360E0,-1.848455518E-1
1.355146519E2,3.825525284E0,-9.306285858E0,-4.229314029E-1
1.360146519E2,3.874577999E0,-9.137591362E0,-1.161715388E0
1.365146519E2,2.762513638E0,-8.955139160E0,-9.332008362E-1
1.370146519E2,2.287538528E0,-8.786444664E0,-1.380060434E0
1.375146519E2,2.676970243E0,-8.794819832E0,-1.697109461E0
1.380146519E2,2.874378204E0,-9.351150513E0,-1.780260086E0
1.385146519E2,2.951546669E0,-9.421739578E0,-1.788634896E0
1.390146519E2,3.010170937E0,-9.232706070E0,-1.152144074E0
1.395146519E2,3.144168854E0,-9.065806389E0,-1.887338877E0
1.400146519E2,2.946761131E0,-8.784649849E0,-1.518844128E0
1.405146519E2,2.864806890E0,-9.349356651E0,-1.500898004E0
1.410146519E2,2.620738983E0,-9.044869423E0,-8.787640929E-1
1.415146519E2,2.560320139E0,-8.807381630E0,-1.200000525E0
1.420146519E2,3.169293642E0,-9.201599121E0,-1.062413216E0
1.425146519E2,3.138186932E0,-9.170493126E0,-8.673982024E-1
1.430146519E2,2.776870728E0,-9.280562401E0,-8.721838593E-1
1.435146519E2,3.408575773E0,-9.358927727E0,-1.064207911E0
1.440146519E2,3.101098061E0,-9.646066666E0,-8.841479421E-1
1.445146519E2,2.740978241E0,-9.602995872E0,-9.684949517E-1
1.450146519E2,2.583052158E0,-9.643074989E0,-1.041476011E0
1.455146519E2,2.703889608E0,-9.468997002E0,-4.677968323E-1
1.460146519E2,2.833101988E0,-9.905089378E0,-9.780662656E-1
1.465146519E2,2.585444927E0,-9.406784058E0,-1.084546804E0
1.470146519E2,3.141177893E0,-9.081958771E0,-9.314061999E-1
1.475146519E2,3.095116138E0,-9.528220177E0,-6.394818425E-1
1.480146519E2,3.897309780E0,-8.933603287E0,-2.620140910E-1
1.485146519E2,3.941577196E0,-9.477372169E0,-3.798605800E-1
1.490146519E2,3.817150354E0,-9.224929810E0,-5.228317380E-1
1.495146519E2,3.621536970E0,-9.120243073E0,-2.039881349E-1
1.500146519E2,4.166502476E0,-9.501300812E0,-9.750752151E-2
1.505146519E2,4.606781960E0,-9.020941734E0,-1.519442350E-1
1.510146519E2,4.454239368E0,-9.269794464E0,3.266202807E-1
1.515146519E2,4.579862595E0,-9.113064766E0,-1.710868180E-1
1.520146519E2,4.914857864E0,-9.349954605E0,6.137589812E-1
1.525146519E2,4.305285931E0,-9.569496155E0,-2.596212626E-1
1.530146519E2,3.774677753E0,-9.071788788E0,-7.094719410E-1
1.535146519E2,3.272184849E0,-9.285347939E0,-1.100698471E0
1.540146519E2,2.756531715E0,-8.915657043E0,-1.137787223E0
1.545146519E2,2.140978098E0,-9.596415520E0,-1.890329838E0
1.550146519E2,2.402393818E0,-9.628718376E0,-1.336391449E0
1.555146519E2,1.734198213E0,-9.485149384E0,-1.484746456E0
1.560146519E2,1.799402595E0,-9.643074989E0,-1.240678549E0
1.565146519E2,2.059622049E0,-9.587442398E0,-1.040279627E0
1.570146519E2,1.944168448E0,-9.903294563E0,-8.775677085E-1
1.575146519E2,1.687538147E0,-9.523433685E0,-1.089930773E0
1.580146519E2,1.748555183E0,-9.723235130E0,-1.135992527E0
1.585146519E2,1.979462504E0,-9.588638306E0,-4.498506486E-1
1.590146519E2,1.508674622E0,-9.687940598E0,-5.407779217E-1
1.595146519E2,1.255035520E0,-9.992427826E0,-7.501499057E-1
1.600146519E2,1.601994753E0,-9.731011391E0,-3.254238665E-1
1.605146519E2,1.885544300E0,-9.664012909E0,-1.465603828E0
1.610146519E2,2.348555326E0,-9.341579437E0,-1.043270707E0
1.615146519E2,3.061018467E0,-9.275776863E0,-8.297112584E-1
1.620146519E2,3.346362352E0,-9.223732948E0,2.632105052E-1
1.625146519E2,2.183450699E0,-9.299705505E0,-5.946164131E-1
1.630146519E2,2.638685226E0,-9.401998520E0,5.006981492E-1
1.635146519E2,3.029313564E0,-9.167501450E0,-5.138586760E-1
1.640146519E2,2.718246460E0,-9.098708153E0,-6.556333899E-1
1.645146519E2,3.078366280E0,-9.223134995E0,1.274178028E-1
1.650146519E2,3.198007345E0,-9.198010445E0,4.325026870E-1
1.655146519E2,3.486940861E0,-9.091529846E0,-1.328016520E-1
1.660146519E2,3.493520975E0,-9.161520004E0,3.080759048E-1
1.665146519E2,3.501297712E0,-9.314660072E0,2.021935135E-1
1.670146519E2,3.719642878E0,-8.928219795E0,-3.445664644E-1
1.675146519E2,3.692723513E0,-9.275776863E0,2.662015259E-1
1.680146519E2,3.640081406E0,-8.960522652E0,-2.853440940E-1
1.685146519E2,3.750151396E0,-9.148957253E0,-2.309073806E-1
1.690146519E2,3.821935892E0,-9.020941734E0,-4.624129832E-1
1.695146519E2,3.580859184E0,-9.204590797E0,1.722832322E-1
1.700146519E2,3.779463291E0,-8.878568649E0,-4.845465720E-1
1.705146519E2,4.142574310E0,-8.993423462E0,-2.093719877E-2
1.710146519E2,3.942175388E0,-8.893523216E0,-1.292124242E-1
1.715146519E2,4.726422787E0,-8.568099976E0,-6.556333899E-1
1.720146519E2,4.392025948E0,-8.681160927E0,-4.773681164E-1
1.725146519E2,4.811367989E0,-8.629714966E0,-3.858426511E-1
1.730146519E2,5.066802025E0,-8.502895355E0,-5.898307562E-1
1.735146519E2,4.953142643E0,-8.234300613E0,-4.701896608E-1
1.740146519E2,5.020142078E0,-8.453244209E0,-8.051848412E-1
1.745146519E2,4.679164886E0,-8.430512428E0,-5.994020700E-1
1.750146519E2,5.818148136E0,-8.317451477E0,-4.432703853E-1
1.755146519E2,5.154139996E0,-9.509077072E0,-8.727820516E-1
1.760146519E2,5.475974560E0,-8.376673698E0,-6.412764788E-1
1.765146519E2,6.066403389E0,-8.794819832E0,-1.022931710E-1
1.770146519E2,5.348556995E0,-8.997013092E0,-5.090730190E-1
1.775146519E2,4.619942188E0,-8.274380684E0,-1.056431174E0
1.780146519E2,5.608776093E0,-8.775676727E0,-9.391828626E-2
1.785146519E2,5.580062389E0,-8.801998138E0,-6.257231236E-1
1.790146519E2,4.652843475E0,-7.579265594E0,-3.481557071E-1
1.795146519E2,4.707878590E0,-8.318648338E0,-6.287141442E-1
1.800146519E2,4.404588223E0,-9.318847656E0,1.004985496E-1
1.805146519E2,4.671986103E0,-8.639286041E0,-4.271188378E-1
1.810146519E2,4.224528313E0,-8.982656479E0,-7.836494446E-1
1.815146519E2,4.127020836E0,-8.443074226E0,-8.841479421E-1
1.820146519E2,4.186243057E0,-8.816354752E0,-3.672982752E-1
1.825146519E2,4.622933388E0,-9.131011009E0,-3.553341627E-1
1.830146519E2,4.380660057E0,-8.904291153E0,-4.127618968E-1
1.835146519E2,4.442275047E0,-8.781659126E0,3.284149170E-1
1.840146519E2,4.664209366E0,-9.068798065E0,-1.304088384E-1
1.845146519E2,5.039284706E0,-8.645866394E0,-1.453639716E-1
1.850146519E2,4.746163845E0,-8.702097893E0,1.465603858E-1
1.855146519E2,4.241278172E0,-8.797212601E0,4.031906128E-1
1.860146519E2,4.070789337E0,-9.003593445E0,7.405785918E-1
1.865146519E2,3.893720627E0,-8.658429146E0,-2.518445849E-1
1.870146519E2,3.524029493E0,-9.543772697E0,6.065805554E-1
1.875146519E2,3.760320902E0,-9.199206352E0,-1.208375469E-1
1.880146519E2,3.415754318E0,-9.086744308E0,3.840480447E-1
1.885146519E2,3.245863914E0,-9.421140671E0,-7.776673418E-3
1.890146519E2,2.854039192E0,-9.466006279E0,2.554338276E-1
1.895146519E2,3.030509949E0,-9.462417603E0,3.092723191E-1
1.900146519E2,3.198007345E0,-9.236295700E0,-1.256231871E-2
1.905146519E2,3.617947817E0,-9.318847656E0,3.732803464E-1
1.910146519E2,2.054238319E0,-1.094955635E1,-1.051645517E0
1.915146519E2,3.248256683E0,-7.758727551E0,4.510470629E-1
1.920146519E2,3.903890133E0,-8.610571861E0,-7.896314859E-1
1.925146519E2,3.023331404E0,-9.229715347E0,-9.026923180E-1
1.930146519E2,2.711666346E0,-9.259027481E0,-5.826523304E-1
1.935146519E2,2.965305567E0,-9.205786705E0,-3.140579760E-1
1.940146519E2,2.933600664E0,-9.357730865E0,-4.815555513E-1
1.945146519E2,4.378865242E0,-7.534400463E0,-1.765903115E0
1.950146519E2,6.058627129E0,-6.792625427E0,-2.442473650E0
1.955146519E2,4.793421745E0,-8.449654579E0,-1.405783296E0
1.960146519E2,2.382055044E0,-9.646664619E0,-1.061216831E0
1.965146519E2,3.728017569E0,-8.915657043E0,-4.259224236E-1
1.970146519E2,3.375076294E0,-9.203991890E0,-4.516452849E-1
1.975146519E2,3.449253798E0,-9.017352104E0,-4.677968323E-1
1.980146519E2,2.447259426E0,-9.428917885E0,-1.523031592E0
1.985146519E2,3.219542980E0,-9.022137642E0,6.903293133E-1
1.990146519E2,4.554738045E0,-8.819944382E0,-1.179063320E0
1.995146519E2,8.499305725E0,-6.016752720E0,4.295116663E-1
2.000146519E2,6.511468410E0,-7.055237770E0,-4.002593994E0
2.005146519E2,6.631109715E0,-6.957131863E0,-2.830111027E0
2.010146519E2,6.658627033E0,-6.985247612E0,-1.657029629E0
2.015146519E2,6.463612080E0,-7.186244488E0,-2.073979139E0
2.020146519E2,6.600601196E0,-7.117451191E0,-2.021337032E0
2.025146519E2,6.449255466E0,-6.993622303E0,-1.874178290E0
2.030146519E2,5.935994625E0,-7.965108395E0,-2.575873613E0
2.035146519E2,6.123831272E0,-7.542177200E0,-2.523231506E0
2.040146519E2,7.103094101E0,-6.777669907E0,-1.527817249E0
2.045146519E2,6.447460651E0,-7.350750923E0,-2.310270309E0
2.050146519E2,6.291927338E0,-6.909275532E0,-1.862812400E0
2.055146519E2,5.377270699E0,-7.936394691E0,-2.480758905E0
2.060146519E2,5.715256691E0,-7.785048485E0,-1.969891191E0
2.065146519E2,4.281357765E0,-7.439883709E0,-4.238286972E0
2.070146519E2,5.804987907E0,-7.454240799E0,-2.279163599E0
2.075146519E2,5.757131100E0,-7.488338470E0,-2.123031855E0
2.080146519E2,5.497509956E0,-7.362117290E0,-1.989033818E0
2.085146519E2,5.198407173E0,-8.187042236E0,-2.618944407E0
2.090146519E2,5.112265587E0,-8.331808090E0,-2.115255117E0
2.095146519E2,5.656632900E0,-7.521239758E0,-1.744965911E0
2.100146519E2,5.205585480E0,-7.911868095E0,-1.948953986E0
2.105146519E2,6.320641041E0,-7.251449108E0,-1.107278705E0
2.110146519E2,4.935794830E0,-7.701299667E0,-1.687538147E0
2.115146519E2,4.386641979E0,-8.347960472E0,-2.484946251E0
2.120146519E2,4.642076015E0,-8.727820396E0,-2.176272154E0
2.125146519E2,5.447858810E0,-7.993822098E0,-1.611566067E0
2.130146519E2,5.217549801E0,-8.462217331E0,-1.936391711E0
2.135146519E2,5.916851997E0,-8.261219978E0,-2.056631088E0
2.140146519E2,4.887938499E0,-8.870791435E0,-2.263610125E0
2.145146519E2,4.901697159E0,-7.972885132E0,-2.262413740E0
2.150146519E2,5.009374142E0,-8.186444283E0,-2.054836512E0
2.155146519E2,4.784449100E0,-8.940781593E0,-1.995614052E0
2.160146519E2,4.779663086E0,-8.435895920E0,-1.867598057E0
2.165146519E2,5.340780258E0,-8.182256699E0,-1.612762451E0
2.170146519E2,5.434698582E0,-8.575876236E0,-1.847259045E0
2.175146519E2,4.965705395E0,-8.194819450E0,-1.587637782E0
2.180146519E2,5.179862976E0,-7.843672752E0,-1.349551916E0
2.185146519E2,5.134997368E0,-8.443074226E0,-1.285543919E0
2.190146519E2,4.573282242E0,-7.971090317E0,-1.579262972E0
2.195146519E2,4.870590687E0,-8.119445801E0,-1.255035520E0
2.200146519E2,4.234099865E0,-8.551948547E0,-2.032702923E0
2.205146519E2,4.625924587E0,-8.176873207E0,-1.725823283E0
2.210146519E2,4.135993958E0,-8.562715530E0,-1.846062660E0
2.215146519E2,4.076173306E0,-8.605786324E0,-1.482353687E0
2.220146519E2,4.643272400E0,-8.237890244E0,-1.529611826E0
2.225146519E2,4.543372154E0,-8.335397720E0,-1.353141189E0
2.230146519E2,4.052245140E0,-8.924032211E0,-1.601396561E0
2.235146519E2,4.365705013E0,-8.620741844E0,-1.518844128E0
2.240146519E2,4.777270317E0,-8.596813202E0,-8.566305041E-1
2.245146519E2,4.200600147E0,-8.346165657E0,-1.099501967E0
2.250146519E2,4.521238327E0,-8.493324280E0,-1.259821177E0
2.255146519E2,3.923032761E0,-8.930013657E0,-1.875972986E0
2.260146519E2,3.675375462E0,-8.633303642E0,-2.023131609E0
2.265146519E2,3.780659676E0,-8.626724243E0,-2.226521492E0
2.270146519E2,3.284149170E0,-9.062815666E0,-2.271386862E0
2.275146519E2,3.662813187E0,-8.516654015E0,-1.820339799E0
2.280146519E2,3.588037491E0,-8.776873589E0,-2.040479422E0
2.285146519E2,3.451646566E0,-9.046664238E0,-2.271386862E0
2.290146519E2,3.656233072E0,-9.277571678E0,-1.727617979E0
2.295146519E2,3.724428415E0,-8.510073662E0,-2.220539331E0
2.300146519E2,4.039084435E0,-8.931210518E0,-1.678565025E0
2.305146519E2,3.543172121E0,-8.699107170E0,-1.489532113E0
2.310146519E2,4.755734921E0,-8.165507317E0,-6.735795736E-1
2.315146519E2,3.274577856E0,-9.440283775E0,7.046862841E-1
2.320146519E2,4.109673023E0,-9.785448074E0,-1.780260086E0
2.325146519E2,3.786641836E0,-9.003593445E0,-1.217348576E0
2.330146519E2,3.510869026E0,-9.183652878E0,-3.272185028E-1
2.335146519E2,3.597608805E0,-9.143573761E0,-5.922235921E-2
2.340146519E2,4.587639332E0,-1.032084274E1,-8.039883971E-1
2.345146519E2,5.036293507E0,-7.253243446E0,6.143572330E-1
2.350146519E2,2.877369165E0,-9.722636223E0,4.501497746E0
2.355146519E2,3.731008768E0,-9.799804688E0,4.755735099E-1
2.360146519E2,6.380461693E0,-7.765905857E0,3.080759048E-1
2.365146519E2,5.899504185E0,-8.662017822E0,4.187439755E-2
2.370146519E2,5.785845280E0,-8.220541954E0,3.140579760E-1
2.375146519E2,5.755934715E0,-8.513663292E0,-3.589233849E-3
2.380146519E2,5.355136871E0,-8.438887596E0,1.914258152E-1
2.385146519E2,5.851647854E0,-8.028517723E0,8.374879137E-3
2.390146519E2,5.420939922E0,-8.005187988E0,-4.055834413E-1
2.395146519E2,5.149354458E0,-8.522037506E0,-1.471585929E-1
2.400146519E2,4.436293125E0,-7.707880020E0,6.855437160E-1
2.405146519E2,5.083551884E0,-8.529814720E0,3.367897868E-1
2.410146519E2,4.805984497E0,-8.287541389E0,2.440679073E-1
2.415146519E2,6.086144447E0,-7.942974567E0,-3.672982752E-1
2.420146519E2,8.722436905E0,-6.677171707E0,-3.320041299E-1
2.425146519E2,6.360122681E0,-7.663612843E0,-2.201396823E-1
2.430146519E2,6.236892223E0,-7.290332317E0,-6.717849374E-1
2.435146519E2,6.302694798E0,-7.770691395E0,-7.082754970E-1
2.440146519E2,5.825924873E0,-7.751548767E0,-2.967100143E-1
2.445146519E2,7.188039303E0,-6.926024914E0,-2.548356056E-1
2.450146519E2,6.465406895E0,-7.626523972E0,-3.672982752E-1
2.455146519E2,6.343971252E0,-7.605587006E0,-3.170489892E-2
2.460146519E2,6.392425537E0,-7.670193195E0,8.135596663E-2
2.465146519E2,4.552943230E0,-8.352147102E0,-4.516452849E-1
2.470146519E2,6.412764549E0,-7.995616913E0,7.674978375E-1
2.475146519E2,6.270989895E0,-7.658228874E0,1.497906923E0
2.480146519E2,5.688935757E0,-7.992027760E0,1.028913736E0
2.485146519E2,5.745765209E0,-8.082955360E0,5.569294691E-1
2.490146519E2,5.298905849E0,-8.585447311E0,4.528416991E-1
2.495146519E2,5.466403484E0,-8.133802414E0,-5.060819983E-1
2.500146519E2,4.990231514E0,-8.535796165E0,-9.553344250E-1
2.505146519E2,4.763511658E0,-8.682356834E0,-9.332008362E-1
2.510146519E2,4.426722050E0,-8.739784241E0,-8.327022791E-1
2.515146519E2,4.187439442E0,-9.342776299E0,-1.814955950E0
2.520146519E2,4.190430641E0,-8.593224525E0,-2.161915302E0
2.525146519E2,4.365705013E0,-8.586644173E0,-2.137388945E0
2.530146519E2,4.721637249E0,-8.572287560E0,-1.750349760E0
2.535146519E2,4.849653244E0,-7.928019524E0,-1.829911113E0
2.540146519E2,5.258227825E0,-8.200801849E0,-1.204187989E0
2.545146519E2,5.371288776E0,-8.075178146E0,-1.269990563E0
2.550146519E2,5.387440205E0,-8.258229256E0,-1.434497118E0
2.555146519E2,5.369493961E0,-8.162516594E0,-1.424327731E0
2.560146519E2,5.291727066E0,-8.301898003E0,-1.312463164E0
2.565146519E2,5.082355499E0,-7.992027760E0,-1.282552958E0
2.570146519E2,4.612165451E0,-8.416753769E0,-1.521835208E0
2.575146519E2,4.699503899E0,-8.031509399E0,-1.295115232E0
2.580146519E2,4.814359188E0,-8.376075745E0,-1.774278045E0
2.585146519E2,5.136193752E0,-8.658429146E0,-8.422735929E-1
2.590146519E2,5.923432350E0,-8.079365730E0,-3.936193287E-1
2.595146519E2,5.880361557E0,-7.561319351E0,-3.110669553E-1
2.600146519E2,5.275575638E0,-8.516654015E0,-1.264606714E0
2.605146519E2,5.325226784E0,-8.234899521E0,-6.951149702E-1
2.610146519E2,5.227719307E0,-8.193024635E0,-9.032905698E-1
2.615146519E2,5.681757450E0,-8.004590034E0,-7.082754970E-1
2.620146519E2,5.942574978E0,-7.406384468E0,-4.606183469E-1
2.625146519E2,5.341976643E0,-7.807182312E0,-8.967102766E-1
2.630146519E2,5.517848969E0,-7.710870743E0,-5.826523304E-1
2.635146519E2,5.516652584E0,-7.862815380E0,-1.259821177E0
2.640146519E2,4.902295589E0,-9.076574326E0,-1.070788145E0
2.645146519E2,5.825326920E0,-8.084151268E0,-3.702892959E-1
2.650146519E2,5.842076302E0,-7.955537319E0,-8.883354068E-1
2.655146519E2,5.578866005E0,-8.821739197E0,-9.553344250E-1
2.660146519E2,5.546562672E0,-7.768897057E0,-4.899304509E-1
2.665146519E2,5.564508915E0,-7.757531166E0,-1.064207911E0
2.670146519E2,5.951548100E0,-7.395018578E0,-1.204187989E0
2.675146519E2,5.772684574E0,-7.727022648E0,-8.470591903E-1
2.680146519E2,5.822335720E0,-8.199604988E0,-7.836494446E-1
2.685146519E2,5.974279881E0,-7.600800991E0,-5.234299302E-1
2.690146519E2,5.547759533E0,-8.631509781E0,-7.004988194E-1
2.695146519E2,4.581656933E0,-9.191430092E0,-1.116850019E0
2.700146519E2,5.848058701E0,-8.261817932E0,-1.171286702E0
2.705146519E2,5.654838085E0,-7.905886173E0,-4.995017350E-1
2.710146519E2,5.586044312E0,-7.840083599E0,-6.921239495E-1
2.715146519E2,5.740979671E0,-7.806583881E0,-9.427721500E-1
2.720146519E2,5.701498032E0,-7.921439171E0,-9.535398483E-1
2.725146519E2,5.852844238E0,-8.272585869E0,-7.734799385E-1
2.730146519E2,5.586044312E0,-7.737192154E0,-5.838487148E-1
2.735146519E2,5.613562107E0,-7.754539967E0,-1.152144074E0
2.740146519E2,5.626722336E0,-8.027321815E0,-7.112665176E-1
2.745146519E2,5.857629776E0,-8.027321815E0,-5.694918036E-1
2.750146519E2,5.795416355E0,-8.357531548E0,-1.275972724E0
2.755146519E2,5.691328526E0,-8.255238533E0,-6.999006271E-1
2.760146519E2,5.880361557E0,-7.669594765E0,-1.129412293E0
2.765146519E2,5.743970871E0,-7.734799385E0,-8.979067206E-1
2.770146519E2,5.436492920E0,-8.478966713E0,-1.167697430E0
2.775146519E2,5.739185333E0,-7.935796261E0,-8.087740541E-1
2.780146519E2,5.575276852E0,-7.951947689E0,-9.397810698E-1
2.785146519E2,5.472983360E0,-8.411369324E0,-5.838487148E-1
2.790146519E2,5.937789440E0,-7.313662529E0,-1.242473125E0
2.795146519E2,5.977271080E0,-7.875377655E0,-1.054038405E0
2.800146519E2,5.588437080E0,-7.648657799E0,-8.195417523E-1
2.805146519E2,5.471786976E0,-7.941180229E0,-1.226919770E0
2.810146519E2,5.402993679E0,-7.969295979E0,-1.169492126E0
2.815146519E2,5.889933109E0,-7.649255753E0,-8.231309652E-1
2.820146519E2,5.888138294E0,-7.993224144E0,-1.169492126E0
2.825146519E2,5.506483078E0,-8.679964066E0,-7.830511928E-1
2.830146519E2,5.107480049E0,-8.301898003E0,-9.589236975E-1
2.835146519E2,5.886343479E0,-8.232506752E0,-1.271785259E0
2.840146519E2,5.466403484E0,-7.648657799E0,-4.528416991E-1
2.845146519E2,5.198407173E0,-8.053044319E0,-1.902294010E-1
2.850146519E2,5.369493961E0,-8.291728973E0,-6.783652306E-1
2.855146519E2,5.138586521E0,-8.690732002E0,-9.014959335E-1
2.860146519E2,5.324628353E0,-8.397610664E0,-4.372883439E-1
2.865146519E2,5.356931686E0,-7.990831375E0,-7.417750359E-1
2.870146519E2,5.087141037E0,-8.361719131E0,-7.310073376E-1
2.875146519E2,5.097908497E0,-8.254041672E0,-8.596215248E-1
2.880146519E2,5.328217983E0,-8.338388443E0,-9.320043921E-1
2.885146519E2,5.700900078E0,-8.473583221E0,-4.755735099E-1
2.890146519E2,5.114060402E0,-8.133802414E0,-7.351947427E-1
2.895146519E2,5.301298618E0,-7.459624767E0,-1.351944804E-1
2.900146519E2,5.337789059E0,-7.526025295E0,-1.165902853E0
2.905146519E2,5.469992638E0,-7.258627415E0,-8.775677085E-1
2.910146519E2,5.141577721E0,-7.805387497E0,-5.629115105E-1
2.915146519E2,5.839683533E0,-7.977670670E0,-5.006981492E-1
2.920146519E2,5.377869129E0,-7.995018482E0,-6.430711150E-1
2.925146519E2,5.753541946E0,-8.356932640E0,-4.127618968E-1
2.930146519E2,5.801398277E0,-8.743373871E0,-9.254241586E-1
2.935146519E2,5.589633465E0,-8.296514511E0,-8.841479421E-1
2.940146519E2,5.442475319E0,-8.325227737E0,-1.085145116E0
2.945146519E2,5.455635548E0,-7.800601959E0,-9.792626500E-1
2.950146519E2,5.415555954E0,-7.789834023E0,-1.255633712E0
2.955146519E2,5.352146149E0,-8.221738815E0,-7.435696125E-1
2.960146519E2,5.541777134E0,-7.902894974E0,-9.553344250E-1
2.965146519E2,5.353940487E0,-7.999804497E0,-4.803591371E-1
2.970146519E2,5.111069202E0,-7.947760582E0,-9.523434043E-1
2.975146519E2,5.660222054E0,-7.577471256E0,-9.553344250E-1
2.980146519E2,5.662614822E0,-7.902894974E0,-1.320838094E0
2.985146519E2,5.291727066E0,-8.114660263E0,-1.078564763E0
2.990146519E2,5.302495003E0,-7.835297585E0,-6.490531564E-1
2.995146519E2,4.596014023E0,-8.481359482E0,-1.409970760E0
3.000146519E2,5.112265587E0,-7.896314621E0,-5.898307562E-1
3.005146519E2,5.259424210E0,-7.996813297E0,-1.001396298E0
3.010146519E2,5.265406132E0,-8.428717613E0,-1.346560955E0
3.015146519E2,5.270790100E0,-7.861618996E0,-1.151545882E0
3.020146519E2,5.147559643E0,-8.132007599E0,-1.091127157E0
3.025146519E2,5.380859852E0,-8.162516594E0,-1.148554921E0
3.030146519E2,5.279763222E0,-8.359326363E0,-1.483550072E0
3.035146519E2,5.040481091E0,-8.182256699E0,-1.207777262E0
3.040146519E2,5.200201988E0,-8.133802414E0,-1.317847013E0
3.045146519E2,5.200799942E0,-8.239685059E0,-8.817551732E-1
3.050146519E2,5.397011280E0,-7.730013371E0,-1.406979680E0
3.055146519E2,5.213362217E0,-8.404789925E0,-1.082752228E0
3.060146519E2,5.443073273E0,-7.883154392E0,-8.482556343E-1
3.065146519E2,5.104488850E0,-8.548956871E0,-1.207777262E0
3.070146519E2,5.321637630E0,-7.679764271E0,-1.219143152E0
3.075146519E2,5.270790100E0,-8.179863930E0,-8.817551732E-1
3.080146519E2,5.237290382E0,-8.487939835E0,-1.344766378E0
3.085146519E2,5.335994720E0,-8.179863930E0,-8.566305041E-1
3.090146519E2,4.913063049E0,-8.290532112E0,-1.253839016E0
3.095146519E2,5.215157032E0,-7.808976650E0,-7.764709592E-1
3.100146519E2,5.193621635E0,-8.255238533E0,-1.174277663E0
3.105146519E2,5.316852093E0,-7.974679470E0,-1.285543919E0
3.110146519E2,5.514857769E0,-8.404789925E0,-1.097109199E0
3.115146519E2,4.923232555E0,-8.247461319E0,-9.714859724E-1
3.120146519E2,5.399404526E0,-8.046463966E0,-6.496513486E-1
3.125146519E2,5.629713535E0,-7.913662910E0,-5.473581553E-1
3.130146519E2,5.338985443E0,-8.243872643E0,-5.850451589E-1
3.135146519E2,5.540580750E0,-8.052446365E0,-6.017948985E-1
3.140146519E2,5.632704735E0,-7.891529083E0,-5.676971674E-1
3.145146519E2,5.624927998E0,-7.895118237E0,-5.647061467E-1
3.150146519E2,5.621936798E0,-8.045866013E0,-6.251249313E-1
3.155146519E2,5.433502197E0,-7.884948730E0,-5.371887088E-1
3.160146519E2,5.398207664E0,-8.199604988E0,-9.607182741E-1
3.165146519E2,5.251049519E0,-8.392227173E0,-1.135394335E0
3.170146519E2,5.375475883E0,-8.146365166E0,-6.143572330E-1
3.175146519E2,5.284548759E0,-8.196015358E0,1.328016520E-1
3.180146519E2,5.542973518E0,-8.079963684E0,-1.310070455E-1
3.185146519E2,5.683551788E0,-6.906882763E0,-6.352944374E-1
3.190146519E2,4.880161762E0,-7.763513088E0,-7.591229677E-1
3.195146519E2,5.115854740E0,-8.560322762E0,-7.369893789E-1
3.200146519E2,4.521238327E0,-8.132605553E0,-1.482353687E0
3.205146519E2,5.112864017E0,-8.452646255E0,-1.280758262E0
3.210146519E2,5.091926575E0,-8.572287560E0,-1.447059512E0
3.215146519E2,4.475774765E0,-8.295317650E0,-1.578066587E0
3.220146519E2,5.191228867E0,-8.440083504E0,-1.349551916E0
3.225146519E2,5.042873859E0,-7.939385414E0,-1.161117196E0
3.230146519E2,4.609772682E0,-8.255238533E0,-1.764108539E0
3.235146519E2,4.222733974E0,-8.505288124E0,-2.265404940E0
3.240146519E2,4.975874901E0,-8.193024635E0,-2.059023857E0
3.245146519E2,5.026721954E0,-8.601000786E0,-1.700698733E0
3.250146519E2,4.994419098E0,-7.899903774E0,-1.585843205E0
3.255146519E2,5.390431404E0,-8.825926781E0,-1.121635556E0
3.260146519E2,4.797011375E0,-7.657032490E0,-2.015953064E0
3.265146519E2,5.444868088E0,-8.464012146E0,-1.655833244E0
3.270146519E2,5.272584915E0,-7.645666599E0,-1.161117196E0
3.275146519E2,5.242076397E0,-7.977670670E0,-7.112665176E-1
3.280146519E2,4.934000492E0,-7.503891945E0,-6.299105883E-1
3.285146519E2,4.328018188E0,-5.530411243E0,-8.261220455E-1
3.290146519E2,5.152943611E0,-7.789236069E0,-8.931210637E-1
3.295146519E2,5.525625706E0,-8.231309891E0,-1.430907965E0
3.300146519E2,5.913262844E0,-8.553742409E0,-1.233500123E0
3.305146519E2,5.218147755E0,-8.221738815E0,-1.288534999E0
3.310146519E2,5.377869129E0,-8.005187988E0,-1.467398524E0
3.315146519E2,5.388636589E0,-7.844869137E0,-6.669993401E-1
3.320146519E2,5.581857204E0,-8.043473244E0,-1.030110121E0
3.325146519E2,5.334797859E0,-8.188239098E0,-1.198205948E0
3.330146519E2,5.321637630E0,-8.072187424E0,-6.125625968E-1
3.335146519E2,5.452046394E0,-7.615158081E0,-1.304686546E0
3.340146519E2,5.238486767E0,-7.822735310E0,-1.606182218E0
3.345146519E2,5.047060966E0,-7.778468132E0,-1.228116274E0
3.350146519E2,5.142774105E0,-7.976474285E0,-1.283749342E0
3.355146519E2,4.841278553E0,-7.935796261E0,-1.473978758E0
3.360146519E2,4.918447018E0,-9.057432175E0,-1.348355532E0
3.365146519E2,5.404190063E0,-8.045866013E0,-1.202393413E0
3.370146519E2,5.288137913E0,-8.038687706E0,-1.614557028E0
3.375146519E2,5.358128071E0,-8.242675781E0,-1.363908887E0
3.380146519E2,4.867001057E0,-8.215756416E0,-1.664208174E0
3.385146519E2,5.272584915E0,-8.828319550E0,-1.372283816E0
3.390146519E2,5.370690346E0,-8.766105652E0,-1.451845169E0
3.395146519E2,5.035695076E0,-8.170292854E0,-1.665404558E0
3.400146519E2,5.162514687E0,-8.641678810E0,-1.735992789E0
3.405146519E2,5.107480049E0,-8.487939835E0,-1.724626899E0
3.410146519E2,5.055436134E0,-7.890332699E0,-1.405185103E0
3.415146519E2,5.039284706E0,-8.076375008E0,-1.405185103E0
3.420146519E2,5.045864582E0,-9.151350021E0,-1.741974831E0
3.425146519E2,5.254638672E0,-7.854440212E0,-1.592423439E0
3.430146519E2,5.509474277E0,-9.153144836E0,-1.396211982E0
3.435146519E2,5.140979290E0,-7.258029461E0,-1.601396561E0
3.440146519E2,7.887939930E0,-6.100501537E0,-4.797609448E-1
3.445146519E2,7.031907558E0,-6.850052834E0,-9.774680734E-1
3.450146519E2,6.212964058E0,-6.889534473E0,-1.307677627E0
3.455146519E2,6.181857109E0,-6.414559364E0,-1.049850941E0
3.460146519E2,5.428118229E0,-7.454240799E0,-1.603191137E0
3.465146519E2,6.119045734E0,-7.540980339E0,-1.501496196E0
3.470146519E2,6.320042610E0,-7.548757076E0,-1.377069473E0
3.475146519E2,6.018547058E0,-7.155735970E0,-1.606780410E0
3.480146519E2,5.892325878E0,-7.734799385E0,-1.652842283E0
3.485146519E2,5.873781204E0,-8.045866013E0,-1.600200176E0
3.490146519E2,5.825326920E0,-7.690532207E0,-1.356132269E0
3.495146519E2,5.612365723E0,-7.606184959E0,-1.529611826E0
3.500146519E2,5.605186939E0,-8.237890244E0,-1.722832322E0
3.505146519E2,5.846263885E0,-7.819744587E0,-1.381256819E0
3.510146519E2,5.784648895E0,-7.674380302E0,-1.185643673E0
3.515146519E2,5.672185898E0,-7.878368378E0,-1.161117196E0
3.520146519E2,5.583651543E0,-8.196015358E0,-1.607976794E0
3.525146519E2,5.313262463E0,-8.025527000E0,-1.467398524E0
3.530146519E2,5.566901684E0,-7.540382385E0,-1.795813441E0
3.535146519E2,5.408975601E0,-8.178668022E0,-1.957328916E0
3.540146519E2,5.489135265E0,-7.658827305E0,-1.737189293E0
3.545146519E2,5.502295494E0,-7.993224144E0,-1.496710539E0
3.550146519E2,5.412564754E0,-8.114660263E0,-1.609771490E0
3.555146519E2,5.626124382E0,-8.020741463E0,-1.509272933E0
3.560146519E2,5.771488190E0,-7.557730198E0,-1.237687469E0
3.565146519E2,5.225924492E0,-8.175676346E0,-2.117049932E0
3.570146519E2,5.452644825E0,-8.114660263E0,-1.797608018E0
3.575146519E2,5.233701229E0,-8.151150703E0,-1.621137381E0
3.580146519E2,5.423930645E0,-7.846663475E0,-1.891526341E0
3.585146519E2,5.112265587E0,-8.199604988E0,-1.774278045E0
3.590146519E2,5.131408215E0,-8.044670105E0,-1.892124534E0
3.595146519E2,4.954937458E0,-8.464012146E0,-1.690529227E0
3.600146519E2,5.373083115E0,-8.141578674E0,-1.776670814E0
3.605146519E2,5.130211830E0,-7.878368378E0,-1.802991867E0
3.610146519E2,5.161916733E0,-8.223533630E0,-1.755135417E0
3.615146519E2,4.967499733E0,-8.306085587E0,-1.663609982E0
3.620146519E2,4.685146809E0,-8.711668968E0,-1.852044702E0
3.625146519E2,4.853840828E0,-8.486145973E0,-1.836491346E0
3.630146519E2,4.839483738E0,-7.890332699E0,-1.397408366E0
3.635146519E2,5.134997368E0,-8.196015358E0,-1.877767563E0
3.640146519E2,4.713860512E0,-8.019545555E0,-1.603191137E0
3.645146519E2,4.783850670E0,-8.507680893E0,-1.671984792E0
3.650146519E2,4.889732838E0,-8.127820015E0,-1.338186026E0
3.655146519E2,5.090131760E0,-8.239685059E0,-1.383051515E0
3.660146519E2,4.672584534E0,-8.689535141E0,-1.917847395E0
3.665146519E2,5.120640278E0,-8.065009117E0,-1.374676585E0
3.670146519E2,4.279563427E0,-9.059226990E0,-1.899901152E0
3.675146519E2,4.270590305E0,-8.528019905E0,-1.791027784E0
3.680146519E2,4.155734539E0,-8.925228119E0,-2.377269268E0
3.685146519E2,4.256233215E0,-8.828319550E0,-1.954337835E0
3.690146519E2,4.344169617E0,-8.194221497E0,-1.670190215E0
3.695146519E2,4.560719967E0,-8.335397720E0,-1.738385677E0
3.700146519E2,4.058227062E0,-8.468797684E0,-1.678565025E0
3.705146519E2,4.589433670E0,-8.232506752E0,-1.652244091E0
3.710146519E2,4.449453831E0,-8.333004951E0,-1.734198213E0
3.715146519E2,4.194019794E0,-8.218747139E0,-1.694118381E0
3.720146519E2,4.523631096E0,-8.927022934E0,-1.796411633E0
3.725146519E2,4.546362877E0,-8.494520187E0,-1.124626637E0
3.730146519E2,4.844867706E0,-8.538787842E0,-1.232901812E0
3.735146519E2,4.736592293E0,-8.727222443E0,-9.140582681E-1
3.740146519E2,4.436293125E0,-8.886942863E0,-1.386042476E0
3.745146519E2,4.004388809E0,-8.612964630E0,-1.527817249E0
3.750146519E2,4.091726780E0,-9.180662155E0,-1.759921074E0
3.755146519E2,2.721835852E0,-9.194420815E0,-2.060818434E0
3.760146519E2,2.876172781E0,-9.295517921E0,-2.265404940E0
3.765146519E2,3.241676569E0,-9.877572060E0,-2.082952023E0
3.770146519E2,3.852444410E0,-8.172685623E0,-1.860419631E0
3.775146519E2,4.426722050E0,-8.132605553E0,-2.353341103E0
3.780146519E2,5.533402443E0,-8.410173416E0,-2.116451740E0
3.785146519E2,4.835296154E0,-8.673383713E0,-1.470389485E0
3.790146519E2,4.439882278E0,-8.717651367E0,-2.569891453E0
3.795146519E2,6.719046116E0,-6.287141323E0,-1.247856975E0
3.800146519E2,6.827321053E0,-6.747759819E0,-1.097707391E0
3.805146519E2,7.237092018E0,-6.639484406E0,-1.260419369E0
3.810146519E2,7.569096088E0,-6.494120598E0,-1.989033818E0
3.815146519E2,7.159325123E0,-5.683551788E0,-3.418745279E0
3.820146519E2,7.232904434E0,-5.995217323E0,-3.420539856E0
3.825146519E2,6.912266254E0,-5.103292465E0,-4.554738045E0
3.830146519E2,6.605985165E0,-5.562116146E0,-3.789034605E0
3.835146519E2,5.811567783E0,-5.444868088E0,-3.536591768E0
3.840146519E2,7.400402069E0,-5.531009674E0,-3.828516245E0
3.845146519E2,5.673980713E0,-5.979065418E0,-6.906882763E0
3.850146519E2,5.041079044E0,-6.046064377E0,-6.071189404E0
3.855146519E2,5.063212872E0,-5.935994625E0,-5.798407555E0
3.860146519E2,4.340580463E0,-5.720042706E0,-6.236892223E0
3.865146519E2,8.038687706E0,-5.744568825E0,-3.689732552E0
3.870146519E2,7.087540627E0,-6.151348591E0,-2.344966173E0
3.875146519E2,5.475974560E0,-7.895118237E0,-8.769695163E-1
3.880146519E2,5.502295494E0,-8.172685623E0,-6.257231236E-1
3.885146519E2,5.330012321E0,-8.567501068E0,-2.069791555E-1
3.890146519E2,4.595416069E0,-8.582456589E0,-1.590030670E0
3.895146519E2,5.074578762E0,-8.220541954E0,-2.072184324E0
3.900146519E2,4.916054249E0,-7.677371502E0,-2.209771633E0
3.905146519E2,4.755734921E0,-8.603393555E0,-2.679961443E0
3.910146519E2,4.520640373E0,-8.677571297E0,-2.485544443E0
3.915146519E2,3.955934048E0,-9.194420815E0,-3.380460262E0
3.920146519E2,3.718446493E0,-8.531609535E0,-3.286541939E0
3.925146519E2,4.348356724E0,-8.370093346E0,-2.756531715E0
3.930146519E2,4.395017147E0,-8.151748657E0,-2.284547329E0
3.935146519E2,4.281357765E0,-8.507082939E0,-2.893520832E0
3.940146519E2,3.552145243E0,-8.060821533E0,-3.373879910E0
3.945146519E2,4.323232174E0,-8.390432358E0,-3.138186932E0
3.950146519E2,4.316651821E0,-8.398807526E0,-3.525225878E0
3.955146519E2,3.960719585E0,-8.677571297E0,-3.702294827E0
3.960146519E2,4.116851330E0,-8.264809608E0,-3.404388428E0
3.965146519E2,4.142574310E0,-8.488538742E0,-3.696312666E0
3.970146519E2,4.050450325E0,-8.067401886E0,-3.116651535E0
3.975146519E2,3.975674868E0,-8.042875290E0,-3.051447153E0
3.980146519E2,3.466003656E0,-8.127222061E0,-3.405584812E0
3.985146519E2,3.648456335E0,-8.681160927E0,-3.431307554E0
3.990146519E2,3.889533281E0,-8.048258781E0,-2.932404041E0
3.995146519E2,4.615156651E0,-8.242675781E0,-2.743969440E0
4.000146519E2,4.339384079E0,-8.344370842E0,-3.183650494E0
4.005146519E2,4.112065792E0,-8.607581139E0,-2.863610506E0
4.010146519E2,4.310071945E0,-8.070392609E0,-2.766103029E0
4.015146519E2,4.886143684E0,-8.065009117E0,-2.769692183E0
4.020146519E2,5.077569485E0,-8.081160545E0,-2.347957134E0
4.025146519E2,4.660022259E0,-8.233104706E0,-2.297109842E0
4.030146519E2,4.607379913E0,-8.395816803E0,-2.269592285E0
4.035146519E2,4.458426952E0,-8.748159409E0,-2.405983210E0
4.040146519E2,4.851448059E0,-8.009973526E0,-2.156531334E0
4.045146519E2,4.626522541E0,-8.129614830E0,-2.400599241E0
4.050146519E2,5.018347263E0,-8.038089752E0,-2.391626120E0
4.055146519E2,4.445864677E0,-8.347960472E0,-2.673979282E0
4.060146519E2,4.447061062E0,-8.614161491E0,-2.502892494E0
4.065146519E2,4.346562386E0,-8.943174362E0,-2.576471806E0
4.070146519E2,4.686941147E0,-8.082955360E0,-2.140978098E0
4.075146519E2,5.151148796E0,-8.249256134E0,-3.279961586E0
4.080146519E2,4.581656933E0,-8.641080856E0,-2.933600664E0
4.085146519E2,4.219144344E0,-8.561519623E0,-2.743371248E0
4.090146519E2,4.076173306E0,-7.854440212E0,-2.730808735E0
4.095146519E2,4.856233597E0,-7.411767960E0,-2.242672920E0
4.100146519E2,4.345366001E0,-7.454240799E0,-2.761317253E0
4.105146519E2,4.176073551E0,-8.146365166E0,-3.058027267E0
4.110146519E2,4.399802685E0,-8.360522270E0,-2.785245657E0
4.115146519E2,4.313661098E0,-8.668598175E0,-2.568096876E0
4.120146519E2,4.415954113E0,-9.071788788E0,-2.673381090E0
4.125146519E2,4.463810444E0,-8.237890244E0,-2.329412937E0
4.130146519E2,4.346562386E0,-7.756334782E0,-2.470589399E0
4.135146519E2,4.629513741E0,-8.242077827E0,-2.421536446E0
4.140146519E2,4.492524624E0,-8.400003433E0,-2.480758905E0
4.145146519E2,4.241876125E0,-8.806783676E0,-3.013760090E0
4.150146519E2,4.224528313E0,-8.264809608E0,-2.584248543E0
4.155146519E2,5.013561726E0,-8.244470596E0,-2.534597397E0
4.160146519E2,3.728017569E0,-8.758927345E0,-3.107080221E0
4.165146519E2,3.846462488E0,-8.096115112E0,-2.756531715E0
4.170146519E2,4.441078663E0,-8.119445801E0,-2.748754978E0
4.175146519E2,4.336990833E0,-8.383254051E0,-2.642872572E0
4.180146519E2,4.097708702E0,-8.560322762E0,-2.867797852E0
4.185146519E2,4.348955154E0,-8.283951759E0,-2.536391973E0
4.190146519E2,4.123431683E0,-8.487939835E0,-2.549552441E0
4.195146519E2,4.264009953E0,-8.448458672E0,-2.963510752E0
4.200146519E2,3.766302824E0,-8.732605934E0,-3.061616659E0
4.205146519E2,4.176671982E0,-8.121239662E0,-2.559123755E0
4.210146519E2,3.961317778E0,-8.452646255E0,-2.860021353E0
4.215146519E2,5.071587563E0,-8.234300613E0,-2.222334146E0
4.220146519E2,4.308875561E0,-8.656036377E0,-2.705684185E0
4.225146519E2,4.849653244E0,-8.033902168E0,-2.180459738E0
4.230146519E2,5.055436134E0,-8.292326927E0,-2.172683001E0
4.235146519E2,5.010570526E0,-7.974679470E0,-2.123630047E0
4.240146519E2,5.482554913E0,-8.258229256E0,-1.643270969E0
4.245146519E2,5.346762180E0,-7.667799950E0,-1.433898926E0
4.250146519E2,5.705685616E0,-8.414958954E0,-1.550549030E0
4.255146519E2,4.913661480E0,-8.511868477E0,-1.499701619E0
4.260146519E2,5.714060307E0,-7.843672752E0,-1.218544960E0
4.265146519E2,4.887340069E0,-8.949156761E0,-1.374676585E0
4.270146519E2,5.382654667E0,-8.218747139E0,-1.322034478E0
4.275146519E2,5.026124001E0,-7.909475327E0,-7.878368497E-1
4.280146519E2,5.529214859E0,-8.270791054E0,-9.349954724E-1
4.285146519E2,5.157131195E0,-8.337790489E0,-1.046859860E0
4.290146519E2,5.748756409E0,-7.719245911E0,-1.073180914E0
4.295146519E2,5.516652584E0,-8.017750740E0,-1.546959877E0
4.300146519E2,5.397011280E0,-7.944170952E0,-8.249256015E-1
4.305146519E2,5.552545071E0,-8.042875290E0,-9.655039310E-1
4.310146519E2,5.397011280E0,-8.132605553E0,-1.761117458E0
4.315146519E2,5.337789059E0,-8.337790489E0,-2.127817631E0
4.320146519E2,4.632504463E0,-7.770691395E0,-2.834298372E0
4.325146519E2,4.734199524E0,-8.159524918E0,-3.578466177E0
4.330146519E2,5.069792747E0,-7.932805061E0,-3.150151014E0
4.335146519E2,4.453640938E0,-7.624729156E0,-2.847458839E0
4.340146519E2,4.568496704E0,-8.078168869E0,-3.276970625E0
4.345146519E2,4.455435753E0,-7.829315662E0,-3.538386583E0
4.350146519E2,4.300500393E0,-8.349156380E0,-3.853640795E0
4.355146519E2,4.651647091E0,-8.338388443E0,-3.226721287E0
4.360146519E2,4.466801643E0,-8.122436523E0,-3.765106440E0
4.365146519E2,4.664209366E0,-8.355736732E0,-3.359523058E0
4.370146519E2,4.712664127E0,-7.925028801E0,-3.667598963E0
4.375146519E2,4.880161762E0,-8.146963120E0,-2.977867842E0
4.380146519E2,4.865804672E0,-8.184649467E0,-2.649452925E0
4.385146519E2,5.407779217E0,-7.509873867E0,-2.471187592E0
4.390146519E2,4.590630054E0,-7.820940971E0,-2.446661234E0
4.395146519E2,4.152145386E0,-7.981259823E0,-2.523829699E0
4.400146519E2,5.023731232E0,-8.410173416E0,-3.494717360E0
4.405146519E2,4.165306091E0,-7.433303356E0,-3.061616659E0
4.410146519E2,4.477569580E0,-8.413164139E0,-3.338585854E0
4.415146519E2,4.634299278E0,-7.887939930E0,-3.372683525E0
4.420146519E2,4.482953072E0,-8.122436523E0,-3.208176851E0
4.425146519E2,4.386641979E0,-8.343173981E0,-3.097508907E0
4.430146519E2,4.238885403E0,-8.177471161E0,-3.275176048E0
4.435146519E2,4.327419758E0,-8.161319733E0,-2.794816732E0
4.440146519E2,4.243072987E0,-7.777870178E0,-2.663809776E0
4.445146519E2,4.386641979E0,-8.266005516E0,-3.355933666E0
4.450146519E2,3.696312666E0,-8.556734085E0,-3.047259569E0
4.455146519E2,4.474578381E0,-8.387441635E0,-3.380460262E0
4.460146519E2,4.516452789E0,-7.749155998E0,-2.904886723E0
4.465146519E2,4.423730850E0,-8.075178146E0,-3.189034462E0
4.470146519E2,4.183850288E0,-8.299505234E0,-3.182454109E0
4.475146519E2,4.231706619E0,-7.737192154E0,-3.153740168E0
4.480146519E2,4.032504559E0,-8.105687141E0,-3.070589542E0
4.485146519E2,4.272384644E0,-7.851449490E0,-2.946162939E0
4.490146519E2,4.162314892E0,-7.626523972E0,-2.879761934E0
4.495146519E2,3.774677753E0,-8.209176064E0,-3.388236761E0
4.500146519E2,3.743571043E0,-7.993822098E0,-3.834498405E0
4.505146519E2,3.644867182E0,-8.140382767E0,-3.849453449E0
4.510146519E2,3.367299557E0,-8.545966148E0,-4.034298897E0
4.515146519E2,3.256033421E0,-8.845666885E0,-3.568296671E0
4.520146519E2,3.223730326E0,-8.469395638E0,-3.899104595E0
4.525146519E2,2.616551638E0,-8.783453941E0,-4.047459602E0
4.530146519E2,2.761317253E0,-9.041878700E0,-3.804588079E0
4.535146519E2,2.646461725E0,-8.644071579E0,-3.689732552E0
4.540146519E2,2.571686029E0,-8.606385231E0,-3.581457376E0
4.545146519E2,3.020938635E0,-8.767302513E0,-3.281756163E0
4.550146519E2,3.119044304E0,-8.723034859E0,-3.461217880E0
4.555146519E2,4.016951084E0,-8.015955925E0,-3.010170937E0
4.560146519E2,5.827719688E0,-6.999604225E0,-2.563311338E0
4.565146519E2,4.716851711E0,-7.921439171E0,-2.474178553E0
4.570146519E2,5.508277893E0,-7.604390144E0,-2.324627161E0
4.575146519E2,4.974080086E0,-7.623532772E0,-1.765903115E0
4.580146519E2,4.469792843E0,-8.397610664E0,-2.087737799E0
4.585146519E2,5.104488850E0,-8.787641525E0,-2.448455811E0
4.590146519E2,4.981856823E0,-8.510671616E0,-2.182254314E0
4.595146519E2,4.393222332E0,-8.074580193E0,-2.109273195E0
4.600146519E2,4.342374802E0,-8.296514511E0,-1.855633974E0
4.605146519E2,5.514857769E0,-6.449853420E0,-1.231705427E0
4.610146519E2,5.304289818E0,-8.915657043E0,-2.666800737E0
4.615146519E2,4.683950424E0,-9.034101486E0,-3.018545866E0
4.620146519E2,3.340380430E0,-8.033902168E0,-3.460021496E0
4.625146519E2,2.890529871E0,-8.923434258E0,-3.413959742E0
4.630146519E2,4.334000111E0,-9.111868858E0,-3.563511133E0
4.635146519E2,3.795016766E0,-7.489534855E0,-2.082952023E0
4.640146519E2,4.233501434E0,-8.566305161E0,-1.647458434E0
4.645146519E2,4.880161762E0,-7.929814339E0,-1.903490424E0
4.650146519E2,4.478167534E0,-7.947162151E0,-2.121835470E0
4.655146519E2,5.118845940E0,-8.376673698E0,-3.439682484E0
4.660146519E2,4.307080746E0,-8.124829292E0,-3.303291559E0
4.665146519E2,3.229114056E0,-8.312665939E0,-3.200400352E0
4.670146519E2,3.934996843E0,-7.873582840E0,-4.133601189E0
4.675146519E2,3.620938778E0,-8.258229256E0,-4.000799656E0
4.680146519E2,3.408575773E0,-6.907480717E0,-3.061616659E0
4.685146519E2,4.583451748E0,-7.947760582E0,-2.919243574E0
4.690146519E2,4.519443989E0,-8.646464348E0,-3.178864956E0
4.695146519E2,3.357728481E0,-8.706883430E0,-2.528615236E0
4.700146519E2,3.053241730E0,-8.562715530E0,-2.311466694E0
4.705146519E2,4.029513359E0,-8.716454506E0,-2.303689957E0
4.710146519E2,3.686741590E0,-8.904291153E0,-2.252842426E0
4.715146519E2,3.597010612E0,-8.261817932E0,-2.303689957E0
4.720146519E2,3.921238184E0,-8.876175880E0,-2.462812662E0
4.725146519E2,4.072584152E0,-8.657232285E0,-2.681756020E0
4.730146519E2,3.927818298E0,-8.344370842E0,-2.368894339E0
4.735146519E2,3.409173965E0,-8.840881348E0,-2.480160713E0
4.740146519E2,3.574877024E0,-9.047860146E0,-2.707478762E0
4.745146519E2,4.133002758E0,-8.377870560E0,-2.516052961E0
4.750146519E2,3.806382656E0,-8.912666321E0,-2.676970243E0
4.755146519E2,4.107280254E0,-8.459226608E0,-3.528217077E0
4.760146519E2,3.511467218E0,-9.092725754E0,-1.654636860E0
4.765146519E2,7.764709592E-1,-1.001934624E1,-3.073580742E0
4.770146519E2,2.305484533E0,-9.086744308E0,-2.155334949E0
4.775146519E2,1.357328653E0,-9.239286423E0,-2.220539331E0
4.780146519E2,2.793620527E-1,-9.559925079E0,-2.084746838E0
4.785146519E2,-2.333002090E-1,-9.593423843E0,-1.479960799E0
4.790146519E2,1.836491376E-1,-9.710074425E0,-1.131206870E0
4.795146519E2,7.956135273E-2,-9.612566948E0,-1.237687469E0
4.800146519E2,5.563312769E-2,-9.277571678E0,2.931207716E-1
4.805146519E2,6.999006271E-1,-1.015633583E1,1.435693540E-2
4.810146519E2,7.686942816E-1,-1.056670475E1,9.780662656E-1
4.815146519E2,-2.985046208E-1,-1.116610718E1,1.908276081E0
4.820146519E2,-1.031904817E0,-1.054457092E1,2.219342947E0
4.825146519E2,-5.587241054E-1,-9.161520004E0,1.054038405E0
4.830146519E2,-7.148557901E-1,-9.475577354E0,3.475574851E-1
4.835146519E2,-4.241278172E-1,-1.028315544E1,-2.572284341E-1
4.840146519E2,8.165507317E-1,-9.613164902E0,-1.591227055E-1
4.845146519E2,2.127817631E0,-9.371489525E0,-8.075776696E-1
4.850146519E2,5.359922647E-1,-9.762716293E0,-9.044869542E-1
4.855146519E2,1.780260086E0,-9.140582085E0,-3.309871912E0
4.860146519E2,9.744769931E-1,-9.949356079E0,-1.965703845E0
4.865146519E2,1.526620865E0,-1.014257717E1,-7.166503668E-1
4.870146519E2,1.289133191E0,-9.427721024E0,8.315058947E-1
4.875146519E2,2.798406124E0,-9.227920532E0,-4.612165689E-1
4.880146519E2,7.494320393E0,-9.330213547E0,-9.409775138E-1
4.885146519E2,6.131608009E0,-6.056832314E0,4.103092670E0
4.890146519E2,1.017787075E1,6.221338734E-2,3.592225075E0
4.895146519E2,7.977670670E0,-2.739782035E-1,1.737189293E0
4.900146519E2,5.179264545E0,-9.586843491E0,2.026122570E0
4.905146519E2,6.001199245E0,-9.871589661E0,4.701896608E-1
4.910146519E2,4.819144726E0,-1.013001442E1,1.853241086E0
4.915146519E2,6.236892223E0,-6.136393547E0,4.554139614E0
4.920146519E2,7.605587006E0,-6.254838467E0,3.571886063E0
4.925146519E2,8.164310455E0,-6.959524632E0,2.947957516E0
4.930146519E2,7.740182877E0,-4.622933388E0,6.093322754E0
4.935146519E2,9.783055305E0,-4.303491592E0,2.444268227E0
4.940146519E2,9.542576790E0,-4.568496704E0,-3.074777126E-1
4.945146519E2,7.476972580E0,-5.181059361E0,7.896314859E-1
4.950146519E2,7.734799385E0,-4.055236340E0,2.648256540E0
4.955146519E2,9.020941734E0,-6.503692150E0,-1.520040631E0
4.960146519E2,1.194855976E1,-1.054038405E0,1.159920812E0
4.965146519E2,7.612765312E0,-2.708675146E0,7.734799385E-1
4.970146519E2,1.072343445E1,-2.367099762E0,-3.379862010E-1
4.975146519E2,9.628718376E0,1.274178028E0,-2.484946251E0
4.980146519E2,1.057328510E1,1.655833244E0,2.691925466E-1
4.985146519E2,1.013479996E1,1.706680775E0,2.327020019E-1
4.990146519E2,9.357730865E0,1.692921996E0,3.720839322E-1
4.995146519E2,9.947562218E0,6.783652306E-1,-1.066002488E0
5.000146519E2,1.197667599E1,7.094719410E-1,5.581258535E-1
5.005146519E2,9.970293999E0,-5.808576941E-1,-1.624128342E0
5.010146519E2,9.991230965E0,-5.377869010E-1,-1.400399446E0
5.015146519E2,9.847063065E0,-1.741974831E0,-1.296909928E0
5.020146519E2,9.672985077E0,-2.346760750E0,-2.742174864E0
5.025146519E2,8.122436523E0,-4.281956196E0,-4.693521500E0
5.030146519E2,9.035298347E0,-1.898106575E0,-2.798406124E0
5.035146519E2,1.023649502E1,-1.052842021E0,-2.946162939E0
5.040146519E2,9.975079536E0,-8.518448472E-1,4.247260094E-1
5.045146519E2,1.029511929E1,-7.866404653E-1,-3.948157281E-2
5.050146519E2,1.025922680E1,-5.341976285E-1,-1.262213886E-1
5.055146519E2,9.717850685E0,-7.387840152E-1,4.127619043E-2
5.060146519E2,1.044826031E1,-1.146760225E0,-5.084748194E-2
5.065146519E2,9.780662537E0,-5.694918036E-1,-5.665007830E-1
5.070146519E2,9.967302322E0,-1.296909928E0,-5.407779217E-1
5.075146519E2,1.033579731E1,-8.344969153E-1,-4.707878530E-1
5.080146519E2,9.256634712E0,-1.056431174E0,-6.729813814E-1
5.085146519E2,9.763913155E0,-6.526423693E-1,-8.291130662E-1
5.090146519E2,9.196215630E0,-7.896314859E-1,-9.966106415E-1
5.095146519E2,8.467600822E0,-7.980063558E-1,-1.234696507E0
5.100146519E2,9.470791817E0,-8.195417523E-1,-1.060618639E0
5.105146519E2,1.055892849E1,-5.569294691E-1,-6.664010882E-1
5.110146519E2,8.696713448E0,-6.873382926E-1,-1.256830096E0
5.115146519E2,9.952945709E0,8.614161611E-2,-1.313061476E0
5.120146519E2,8.947361946E0,-1.091127157E0,-1.124626637E0
5.125146519E2,1.071386337E1,-8.757730722E-1,8.261220455E-1
5.130146519E2,9.832706451E0,-3.284149170E-1,1.513460279E-1
5.135146519E2,9.759127617E0,-1.788634956E-1,-1.351944804E-1
5.140146519E2,9.751948357E0,-1.378265858E0,-7.196413875E-1
5.145146519E2,1.029392338E1,-4.701896608E-1,-2.374876440E-1
5.150146519E2,9.060422897E0,-4.821537733E-1,-1.250848055E0
5.155146519E2,9.506086349E0,-5.204389095E-1,-5.533402562E-1
5.160146519E2,9.590433121E0,-2.584248483E-1,-1.150349498E0
5.165146519E2,9.979267120E0,-2.715853751E-1,-9.409775138E-1
5.170146519E2,1.037049294E1,-3.433700502E-1,-5.676971674E-1
5.175146519E2,9.445667267E0,-4.145565331E-1,-8.548358679E-1
5.180146519E2,1.001276588E1,-3.846462369E-1,-1.174277663E0
5.185146519E2,1.001994514E1,-2.679961324E-1,-1.161117196E0
5.190146519E2,9.858428955E0,-5.455635786E-1,-4.289134443E-1
5.195146519E2,9.329017639E0,-5.150550604E-1,-7.322037220E-1
5.200146519E2,9.812367439E0,-6.951149702E-1,-4.223332107E-1
5.205146519E2,9.887143135E0,-5.084748268E-1,-6.095715761E-1
5.210146519E2,1.025384331E1,-5.904290080E-1,-6.257231236E-1
5.215146519E2,1.010369396E1,-6.490531564E-1,-1.052841991E-1
5.220146519E2,9.869196892E0,-8.745766878E-1,-1.145563841E0
5.225146519E2,9.720842361E0,-5.676971674E-1,-2.165504545E-1
5.230146519E2,8.749954224E0,-4.007977843E-1,-1.786242127E0
5.235146519E2,9.658628464E0,-6.735795736E-1,-2.524427772E-1
5.240146519E2,1.000798035E1,-6.795616150E-1,2.279163599E-1
5.245146519E2,9.160921097E0,-4.612165689E-1,-1.869392633E0
5.250146519E2,9.608379364E0,-3.092723191E-1,-1.884347796E-1
5.255146519E2,1.051525879E1,-6.490531564E-1,9.110672474E-1
5.260146519E2,1.070249748E1,-4.941178858E-1,1.325623751E0
5.265146519E2,9.474381447E0,-6.299105883E-1,-2.285145670E-1
5.270146519E2,9.828518867E0,-4.749752879E-1,-1.579262912E-1
5.275146519E2,1.088554859E1,-7.160521746E-1,1.211964726E0
5.280146519E2,9.785448074E0,-5.234299302E-1,1.399801224E-1
5.285146519E2,1.009172916E1,-4.336991012E-1,-9.732806087E-1
5.290146519E2,1.027178955E1,-9.523434043E-1,-3.960121572E-1
5.295146519E2,1.048714352E1,-1.255633712E0,-2.437089920E0
5.300146519E2,9.472586632E0,-6.879364848E-1,-2.337189436E0
5.305146519E2,1.043091202E1,-1.018146038E0,-7.387840152E-1
5.310146519E2,9.775876999E0,-8.171489239E-1,-1.655833244E0
5.315146519E2,9.151947975E0,-8.027920127E-1,-1.635494232E0
5.320146519E2,1.354038525E1,-1.356132269E0,1.710868180E-1
5.325146519E2,9.017950058E0,-9.678967595E-1,-1.509272933E0
5.330146519E2,1.102792168E1,-5.084748268E-1,-1.689332843E0
5.335146519E2,9.153144836E0,-6.951149702E-1,-9.984052777E-1
5.340146519E2,9.778867722E0,-5.874379873E-1,-1.788634956E-1
5.345146519E2,1.053978539E1,-6.233302951E-1,1.609173268E-1
5.350146519E2,9.033503532E0,-6.185446382E-1,-2.273181453E-2
5.355146519E2,9.517452240E0,-7.740781307E-1,8.536394835E-1
5.360146519E2,9.403793335E0,-6.592226624E-1,4.965107143E-2
5.365146519E2,9.419944763E0,-5.419743061E-1,-4.163511395E-1
5.370146519E2,1.085862923E1,-6.412764788E-1,9.822536707E-1
5.375146519E2,9.656235695E0,-5.994020700E-1,-2.787638307E-1
5.380146519E2,9.647860527E0,-6.233302951E-1,-1.159322619E0
5.385146519E2,9.558728218E0,-7.477570772E-1,-1.022931710E-1
5.390146519E2,9.777072906E0,-7.142575383E-1,-1.082752272E-1
5.395146519E2,9.783055305E0,-7.208378315E-1,-1.003789067E0
5.400146519E2,9.762716293E0,-8.440681696E-1,4.941178858E-1
5.405146519E2,1.036451149E1,-7.591229677E-1,-1.932204217E-1
5.410146519E2,9.247062683E0,-8.506484628E-1,-1.052841991E-1
5.415146519E2,1.036271667E1,-9.942178130E-1,4.534398913E-1
5.420146519E2,9.285347939E0,-1.056431174E0,-2.620140910E-1
5.425146519E2,1.002951622E1,-1.001994491E0,-1.073180914E0
5.430146519E2,9.288937569E0,-1.057627559E0,-9.092725813E-2
5.435146519E2,9.646664619E0,-1.007976532E0,-2.937189937E-1
5.440146519E2,1.014078236E1,-8.961120844E-1,1.591227055E-1
5.445146519E2,1.042612648E1,-1.262213945E0,9.451649338E-2
5.450146519E2,1.042134094E1,-1.161117196E0,3.828516230E-2
5.455146519E2,9.499505997E0,-9.349954724E-1,-7.112665176E-1
5.460146519E2,1.013300610E1,-8.644071817E-1,8.596215248E-1
5.465146519E2,9.475577354E0,-1.051047325E0,-4.271188378E-1
5.470146519E2,9.943374634E0,-9.631111026E-1,-6.873382926E-1
5.475146519E2,1.033340454E1,-9.774680734E-1,4.342973232E-1
5.480146519E2,9.812367439E0,-8.823533654E-1,-6.029912829E-1
5.485146519E2,1.026221848E1,-9.822536707E-1,-8.051848412E-1
5.490146519E2,9.880562782E0,-1.027119160E0,5.300102234E-1
5.495146519E2,9.455238342E0,-7.884350419E-1,-7.082754970E-1
5.500146519E2,9.989436150E0,-1.068395257E0,-7.645068169E-1
5.505146519E2,9.535996437E0,-8.518448472E-1,-8.913264424E-2
5.510146519E2,9.942776680E0,-1.079761267E0,7.537391037E-2
5.515146519E2,1.008335495E1,-8.817551732E-1,-1.615155339E-1
5.520146519E2,1.049850941E1,-1.064207911E0,7.944171429E-1
5.525146519E2,8.947959900E0,-6.777670383E-1,-9.266205430E-1
5.530146519E2,1.000977516E1,-9.296116233E-1,-6.424728632E-1
5.535146519E2,9.510871887E0,-9.936196208E-1,2.602194548E-1
5.540146519E2,1.044227791E1,-9.487541914E-1,-2.596212626E-1
5.545146519E2,9.972088814E0,-1.010967612E0,-5.599204898E-1
5.550146519E2,9.531808853E0,-8.440681696E-1,-5.407779217E-1
5.555146519E2,9.406784058E0,-9.894321561E-1,-3.032902777E-1
5.560146519E2,9.512666702E0,-8.213363886E-1,-1.161117196E0
5.565146519E2,9.381061554E0,-9.523434043E-1,-4.797609448E-1
5.570146519E2,1.010369396E1,-1.016351461E0,-2.991028363E-3
5.575146519E2,1.006899738E1,-8.889335990E-1,-8.889335990E-1
5.580146519E2,9.187242508E0,-9.158528447E-1,-4.007977843E-1
5.585146519E2,1.022871876E1,-9.074779749E-1,-5.395814776E-1
5.590146519E2,9.203991890E0,-1.008574724E0,-4.055834413E-1
5.595146519E2,9.955338478E0,-9.655039310E-1,-8.494520187E-2
5.600146519E2,9.432506561E0,-8.985049129E-1,-6.047859192E-1
5.605146519E2,1.014676476E1,-1.092921734E0,6.496513486E-1
5.610146519E2,9.416953087E0,-8.087740541E-1,-8.805587292E-1
5.615146519E2,1.009412193E1,-1.033699393E0,6.544370055E-1
5.620146519E2,1.033819008E1,-1.038485050E0,4.749752879E-1
5.625146519E2,9.627521515E0,-8.344969153E-1,-2.476571500E-1
5.630146519E2,1.062532902E1,-1.022931695E0,2.901297510E-1
5.635146519E2,8.997013092E0,-9.188438654E-1,-2.039881349E-1
5.640146519E2,9.438488960E0,-8.578268886E-1,-5.180460811E-1
5.645146519E2,9.773484230E0,-9.218349457E-1,-7.597211599E-1
5.650146519E2,9.976275444E0,-9.696913958E-1,-8.015955985E-2
5.655146519E2,9.123234749E0,-8.518448472E-1,-3.744767308E-1
5.660146519E2,9.491728783E0,-9.409775138E-1,3.140579760E-1
5.665146519E2,9.371489525E0,-1.013360381E0,-4.426721856E-2
5.670146519E2,9.904491425E0,-1.028913736E0,2.548356056E-1
5.675146519E2,9.739984512E0,-7.645068169E-1,-7.722834945E-1
5.680146519E2,8.703892708E0,-1.037288666E0,-3.254238665E-1
5.685146519E2,1.029870892E1,-1.068395257E0,-1.800599098E-1
5.690146519E2,9.810572624E0,-1.336391449E0,6.329016089E-1
5.695146519E2,9.488738060E0,-1.292124271E0,-5.246263742E-1
5.700146519E2,1.008814049E1,-1.256830096E0,1.591227055E-1
5.705146519E2,1.083350468E1,-1.392622828E0,8.374879360E-1
5.710146519E2,8.966505051E0,-8.165507317E-1,-1.121037364E0
5.715146519E2,9.727422714E0,-1.027717352E0,-5.587241054E-1
5.720146519E2,9.425926208E0,-8.566305041E-1,-1.615155302E-2
5.725146519E2,9.906285286E0,-7.770691514E-1,-8.135597110E-1
5.730146519E2,9.590433121E0,-9.200403094E-1,-3.511467278E-1
5.735146519E2,9.279366493E0,-8.003991842E-1,-8.386843204E-1
5.740146519E2,1.009292603E1,-1.022333503E0,2.512463741E-2
5.745146519E2,9.390632629E0,-9.074779749E-1,-2.955136001E-1
5.750146519E2,9.693922997E0,-9.589236975E-1,1.567298770E-1
5.755146519E2,9.272786140E0,-9.475577474E-1,-1.016949639E-1
5.760146519E2,1.165184975E1,-9.990034699E-1,1.129412293E0
5.765146519E2,8.081160545E0,-8.087740541E-1,-5.790630579E-1
5.770146519E2,9.305088997E0,-9.296116233E-1,-3.912265003E-1
5.775146519E2,9.229715347E0,-8.853443861E-1,-7.142575383E-1
5.780146519E2,1.064028454E1,-9.391828775E-1,-1.884347796E-1
5.785146519E2,9.012566566E0,-8.488538265E-1,-3.798605800E-1
5.790146519E2,1.039561844E1,-9.056833982E-1,1.974078715E-1
5.795146519E2,9.363713264E0,-8.901300430E-1,-7.674978375E-1
5.800146519E2,1.013779163E1,-1.317847013E0,9.870393574E-2
5.805146519E2,1.152682495E1,-1.060618639E0,6.412764788E-1
5.810146519E2,9.734002113E0,-8.775677085E-1,-4.480560422E-1
5.815146519E2,8.852247238E0,-8.530412912E-1,3.649054468E-2
5.820146519E2,9.341579437E0,-1.105484009E0,-5.563312769E-2
5.825146519E2,8.590232849E0,-8.530412912E-1,-1.168893814E0
5.830146519E2,1.045842934E1,-9.888339639E-1,1.627119333E-1
5.835146519E2,9.363713264E0,-8.871390224E-1,-9.296116233E-1
5.840146519E2,9.472586632E0,-7.627122402E-1,-7.070791125E-1
5.845146519E2,1.013599682E1,-8.488538265E-1,4.007977992E-2
5.850146519E2,9.343374252E0,-7.974081635E-1,-6.143572330E-1
5.855146519E2,1.035314560E1,-9.248259664E-1,-1.788634956E-1
5.860146519E2,9.476774216E0,-8.392825127E-1,-5.934200287E-1
5.865146519E2,9.629914284E0,-9.026923180E-1,-1.201196909E0
5.870146519E2,9.390632629E0,-9.332008362E-1,2.739782035E-1
5.875146519E2,1.021555805E1,-1.173679471E0,4.965107143E-2
5.880146519E2,9.832706451E0,-1.272981644E0,-5.676971674E-1
5.885146519E2,9.535996437E0,-1.121037364E0,-4.528416991E-1
5.890146519E2,1.073539925E1,-1.345962763E0,4.145565331E-1
5.895146519E2,9.737591743E0,-1.082752228E0,-3.655036688E-1
5.900146519E2,9.483952522E0,-9.302098155E-1,-2.183450609E-1
5.905146519E2,1.002951622E1,-9.918249846E-1,3.655036688E-1
5.910146519E2,9.716055870E0,-9.391828775E-1,-2.009970993E-1
5.915146519E2,9.780064583E0,-7.256234884E-1,3.601198196E-1
5.920146519E2,9.914062500E0,-8.500502706E-1,2.644068897E-1
5.925146519E2,9.067601204E0,-8.327022791E-1,-5.282155871E-1
5.930146519E2,1.055533886E1,-9.128618240E-1,7.465606928E-1
5.935146519E2,9.419944763E0,-8.021938205E-1,-7.782655358E-1
5.940146519E2,1.040399265E1,-9.990034699E-1,2.213360965E-1
5.945146519E2,9.759127617E0,-9.726824164E-1,3.230310604E-2
5.950146519E2,1.000798035E1,-1.025922656E0,2.787638307E-1
5.955146519E2,9.842277527E0,-9.798609018E-1,-4.624129832E-1
5.960146519E2,9.649057388E0,-1.252044439E0,3.194418252E-1
5.965146519E2,9.676574707E0,-1.110269666E0,-5.952146053E-1
5.970146519E2,9.159725189E0,-1.293918848E0,-2.213360928E-2
5.975146519E2,9.718449593E0,-1.176072359E0,1.663011760E-1
5.980146519E2,1.002293587E1,-1.242473125E0,3.140579760E-1
5.985146519E2,1.028136063E1,-1.240678549E0,-2.949153781E-1
5.990146519E2,9.492925644E0,-1.191625714E0,2.093719877E-2
5.995146519E2,1.011805058E1,-1.253839016E0,2.374876440E-1
6.000146519E2,8.898308754E0,-1.263410330E0,-2.285145670E-1
6.005146519E2,9.879366875E0,-1.167697430E0,-1.531406492E-1
6.010146519E2,9.304491043E0,-1.283749342E0,-3.367897868E-1
6.015146519E2,9.716055870E0,-1.094716311E0,-2.470589429E-1
6.020146519E2,9.751948357E0,-1.354337573E0,-3.254238665E-1
6.025146519E2,9.528220177E0,-1.389631748E0,8.135596663E-2
6.030146519E2,1.007019424E1,-1.462612867E0,-5.198407173E-1
6.035146519E2,9.129815102E0,-1.512263894E0,-3.463610709E-1
6.040146519E2,9.710074425E0,-1.518844128E0,-2.997010350E-1
6.045146519E2,1.032861900E1,-1.394417405E0,1.501496136E-1
6.050146519E2,9.220742226E0,-1.727617979E0,-4.480560422E-1
6.055146519E2,9.745368004E0,-1.754537225E0,-2.805584669E-1
6.060146519E2,9.408578873E0,-1.941177368E0,4.187439755E-2
6.065146519E2,9.664012909E0,-1.984846354E0,-4.402793646E-1
6.070146519E2,1.004626560E1,-2.279761791E0,4.582255483E-1
6.075146519E2,9.668199539E0,-2.030908108E0,-3.714857101E-1
6.080146519E2,9.401998520E0,-2.508874655E0,-6.664010882E-1
6.085146519E2,9.485149384E0,-2.839084148E0,5.760720372E-1
6.090146519E2,9.848857880E0,-2.562114954E0,6.059823632E-1
6.095146519E2,9.748359680E0,-2.378465652E0,2.452643216E-1
6.100146519E2,9.802198410E0,-2.224128723E0,-1.555334684E-2
6.105146519E2,8.792427063E0,-2.336591244E0,-1.310070455E-1
6.110146519E2,1.008694363E1,-2.408974171E0,5.635097623E-1
6.115146519E2,9.486943245E0,-2.404188633E0,2.165504545E-1
6.120146519E2,8.992227554E0,-2.441875458E0,-1.950150430E-1
6.125146519E2,1.036451149E1,-2.683550596E0,2.279163599E-1
6.130146519E2,9.950552940E0,-2.804388046E0,5.407779217E-1
6.135146519E2,8.574081421E0,-3.373879910E0,-8.135596663E-2
6.140146519E2,9.105288506E0,-3.664607763E0,3.080759048E-1
6.145146519E2,9.359525681E0,-3.856033802E0,1.806581169E-1
6.150146519E2,8.674580574E0,-4.173082829E0,7.956135273E-2
6.155146519E2,9.010173798E0,-3.906282902E0,1.328016520E-1
6.160146519E2,9.429515839E0,-3.848855257E0,3.720839322E-1
6.165146519E2,9.630513191E0,-3.145963669E0,4.725824594E-1
6.170146519E2,9.507881165E0,-2.358126640E0,-4.175475538E-1
6.175146519E2,9.196215630E0,-2.574677229E0,1.184447184E-1
6.180146519E2,1.023170948E1,-1.860419631E0,5.473581553E-1
6.185146519E2,9.501300812E0,-5.629115105E-1,6.777670383E-1
6.190146519E2,9.818947792E0,3.230310604E-2,5.252245665E-1
6.195146519E2,9.558728218E0,8.973085135E-2,5.216353536E-1
6.200146519E2,9.714859962E0,5.790630579E-1,7.896314859E-1
6.205146519E2,9.678369522E0,7.477570772E-1,4.707878530E-1
6.210146519E2,9.876375198E0,5.587241054E-1,7.974081635E-1
6.215146519E2,1.003908730E1,5.455635786E-1,5.587241054E-1
6.220146519E2,9.978070259E0,7.525427341E-1,2.404786795E-1
6.225146519E2,9.684351921E0,7.357929647E-2,-4.707878530E-1
6.230146519E2,9.804591179E0,-3.092723191E-1,-1.133001566E0
6.235146519E2,9.516854286E0,-5.264209956E-2,-1.521835208E0
6.240146519E2,9.695717812E0,-4.965107143E-2,-2.330609322E0
6.245146519E2,9.741779327E0,-1.758724600E-1,-2.030908108E0
6.250146519E2,9.122636795E0,1.435693651E-1,-3.449253798E0
6.255146519E2,1.046500969E1,4.001995921E-1,-1.735992789E0
6.260146519E2,9.872786522E0,1.818545163E-1,-2.126621008E0
6.265146519E2,9.169296265E0,1.627119333E-1,-1.962114573E0
6.270146519E2,1.035972595E1,2.075773627E-1,-1.927418590E0
6.275146519E2,9.515657425E0,3.128615618E-1,-1.386640668E0
6.280146519E2,1.005823040E1,-1.932204217E-1,-7.256234884E-1
6.285146519E2,1.034656525E1,2.662015259E-1,-7.531409264E-1
6.290146519E2,1.008156013E1,-7.776673418E-3,9.571290575E-3
6.295146519E2,1.044108200E1,3.649054468E-2,3.936193287E-1
6.300146519E2,1.017308521E1,3.170489892E-2,8.506484628E-1
6.305146519E2,9.319445610E0,1.513460279E-1,2.094916344E0
6.310146519E2,1.093699455E1,1.016949639E-1,2.531606436E0
6.315146519E2,9.677771568E0,2.662015259E-1,2.635694027E0
6.320146519E2,9.139386177E0,-4.199403822E-1,-3.972085714E-1
6.325146519E2,9.866206169E0,-1.375873089E-1,6.257231236E-1
6.330146519E2,9.971489906E0,-3.050848842E-1,1.148554921E0
6.335146519E2,1.057627583E1,-5.563312769E-2,2.214557409E0
6.340146519E2,9.032307625E0,-2.967100143E-1,1.698904037E0
6.345146519E2,1.078684425E1,-9.750752151E-2,2.291127682E0
6.350146519E2,9.617950439E0,-2.201396823E-1,1.703689694E0
6.355146519E2,1.000798035E1,-1.926222295E-1,2.332403898E0
6.360146519E2,9.456435204E0,-5.198407173E-1,1.874776483E0
6.365146519E2,9.515059471E0,-7.435696125E-1,3.445664644E0
6.370146519E2,8.971290588E0,-1.006780148E0,3.093321562E0
6.375146519E2,9.016156197E0,-1.962114573E-1,4.100101471E0
6.380146519E2,8.826524734E0,-5.300102234E-1,4.141377926E0
6.385146519E2,9.064012527E0,-3.385843933E-1,4.289134502E0
6.390146519E2,8.821739197E0,-5.246263742E-1,4.846662045E0
6.395146519E2,8.505288124E0,-5.563312769E-1,5.841478348E0
6.400146519E2,8.344370842E0,-3.840480447E-1,5.889933109E0
6.405146519E2,8.743373871E0,-2.662015259E-1,5.991627693E0
6.410146519E2,8.786444664E0,-3.858426511E-1,6.302694798E0
6.415146519E2,8.030312538E0,-1.567298770E-1,4.900500774E0
6.420146519E2,8.500502586E0,3.050848842E-2,4.390231133E0
6.425146519E2,8.065009117E0,-1.112662554E-1,5.282155991E0
6.430146519E2,8.347960472E0,7.298108935E-2,4.554139614E0
6.435146519E2,8.465806961E0,2.201396823E-1,4.487140656E0
6.440146519E2,8.438887596E0,-5.383851007E-2,5.972485542E0
6.445146519E2,8.898308754E0,1.118644550E-1,4.533800602E0
6.450146519E2,7.921439171E0,3.708875179E-2,4.323232174E0
6.455146519E2,9.230313301E0,8.614161611E-2,5.299503803E0
6.460146519E2,8.922237396E0,1.034895778E-1,3.257229805E0
6.465146519E2,9.089735031E0,1.435693651E-1,4.100101471E0
6.470146519E2,9.188439369E0,2.171486616E-1,2.513660192E0
6.475146519E2,9.766305923E0,5.862415582E-2,3.841078520E0
6.480146519E2,8.898308754E0,3.649054468E-2,2.941377163E0
6.485146519E2,9.957731247E0,-1.351944804E-1,2.937189817E0
6.490146519E2,9.687940598E0,-1.118046403E0,2.810968399E0
6.495146519E2,9.786644936E0,-9.110672474E-1,2.702693224E0
6.500146519E2,9.507881165E0,-9.397810698E-1,2.947957516E0
6.505146519E2,9.279366493E0,-1.007976532E0,2.679961443E0
6.510146519E2,8.846863747E0,-9.200403094E-1,2.790031195E0
6.515146519E2,9.457631111E0,-8.961120844E-1,3.257229805E0
6.520146519E2,9.389435768E0,-9.667003751E-1,3.129812002E0
6.525146519E2,9.589237213E0,-9.188438654E-1,3.212364435E0
6.530146519E2,8.993423462E0,-1.665404558E0,2.854039192E0
6.535146519E2,8.961718559E0,-2.291127682E0,2.986242771E0
6.540146519E2,8.861220360E0,-2.494517565E0,2.802593470E0
6.545146519E2,9.311669350E0,-2.161317110E0,3.282952785E0
6.550146519E2,9.314660072E0,-2.775674343E0,3.537788391E0
6.555146519E2,9.091529846E0,-2.633301258E0,3.176471949E0
6.560146519E2,9.410373688E0,-2.225325108E0,2.745764017E0
6.565146519E2,9.427721024E0,-2.308475733E0,2.947957516E0
6.570146519E2,9.061020851E0,-1.691127419E0,2.640479803E0
6.575146519E2,9.191430092E0,-2.493321180E0,3.016152859E0
6.580146519E2,9.676574707E0,-2.240878344E0,3.242872953E0
6.585146519E2,9.303294182E0,-2.092523336E0,3.480360508E0
6.590146519E2,8.927022934E0,-2.121835470E0,2.928814888E0
6.595146519E2,9.223134995E0,-2.094317913E0,3.223730326E0
6.600146519E2,8.801998138E0,-1.609771490E0,3.434298754E0
6.605146519E2,8.428717613E0,-1.551745534E0,3.550948858E0
6.610146519E2,9.341579437E0,-1.566102386E0,4.316651821E0
6.615146519E2,8.645866394E0,-1.490130305E0,3.948157310E0
6.620146519E2,9.337990761E0,-1.441675663E0,3.867997885E0
6.625146519E2,8.419146538E0,-2.374876440E-1,3.714857101E0
6.630146519E2,8.950352669E0,-4.767699242E-1,3.738785267E0
6.635146519E2,8.678169250E0,-5.760720372E-1,3.736392498E0
6.640146519E2,9.582656860E0,-5.694918036E-1,4.283152580E0
6.645146519E2,8.778069496E0,-5.419743061E-1,4.174279213E0
6.650146519E2,9.094520569E0,-6.191428304E-1,3.944568157E0
6.655146519E2,8.863015175E0,-6.155536175E-1,3.774677753E0
6.660146519E2,9.093922615E0,-4.941178858E-1,4.037888050E0
6.665146519E2,8.724231720E0,-6.376872063E-1,3.720241070E0
6.670146519E2,8.852247238E0,-5.054838061E-1,3.992424488E0
6.675146519E2,8.759525299E0,-6.490531564E-1,3.690928936E0
6.680146519E2,9.221938133E0,-6.634100676E-1,3.784249067E0
6.685146519E2,9.402596474E0,-5.491527915E-1,4.130012035E0
6.690146519E2,8.367102623E0,-5.676971674E-1,3.128017426E0
6.695146519E2,9.711869240E0,-6.669993401E-1,4.344169617E0
6.700146519E2,8.495717049E0,-5.204389095E-1,3.448655605E0
6.705146519E2,8.735597610E0,-5.347958803E-1,3.661018610E0
6.710146519E2,8.709874153E0,-6.221339107E-1,3.410370588E0
6.715146519E2,9.687940598E0,-6.239284873E-1,4.246063709E0
6.720146519E2,8.301898003E0,-5.108676553E-1,3.249453068E0
6.725146519E2,9.419944763E0,-6.634100676E-1,3.988237143E0
6.730146519E2,8.935996056E0,-6.687939167E-1,3.664009571E0
6.735146519E2,9.463015556E0,-5.802595019E-1,4.128217220E0
6.740146519E2,8.152944565E0,-5.371887088E-1,3.241676569E0
6.745146519E2,9.541379929E0,-5.754738450E-1,3.800998688E0
6.750146519E2,8.492725372E0,-4.151547253E-1,3.583251953E0
6.755146519E2,8.988637924E0,-4.677968323E-1,3.798605919E0
6.760146519E2,8.517251968E0,-5.742774606E-1,3.494717360E0
6.765146519E2,9.597013474E0,-5.904290080E-1,4.130012035E0
6.770146519E2,8.492725372E0,-5.132604837E-1,3.559323788E0
6.775146519E2,9.363713264E0,-5.820540786E-1,3.788436413E0
6.780146519E2,9.383454323E0,-2.679961324E-1,3.750151396E0
6.785146519E2,8.722436905E0,-1.854437590E-1,3.521038532E0
6.790146519E2,8.801998138E0,1.066002488E0,3.821935892E0
6.795146519E2,9.279366493E0,1.030708313E0,3.516252756E0
6.800146519E2,9.230313301E0,8.817551732E-1,3.807579041E0
6.805146519E2,8.944371223E0,7.692924738E-1,3.534797192E0
6.810146519E2,9.322437286E0,1.054038405E0,3.876372576E0
6.815146519E2,9.506086349E0,5.970092416E-1,3.159722328E0
6.820146519E2,9.287142754E0,-2.261217386E-1,3.238087177E0
6.825146519E2,1.001515961E1,-2.057827413E-1,2.746960402E0
6.830146519E2,9.760921478E0,-2.751746029E-2,1.822134495E0
6.835146519E2,9.625727654E0,-8.374879137E-3,1.856830359E0
6.840146519E2,1.007079220E1,4.546363056E-1,6.921239495E-1
6.845146519E2,9.644869804E0,1.115055323E0,6.376872063E-1
6.850146519E2,9.354142189E0,5.742774606E-1,1.989632010E0
6.855146519E2,8.790034294E0,1.247856975E0,2.754737139E0
6.860146519E2,1.047876835E1,4.289134443E-1,2.889333248E0
6.865146519E2,9.057432175E0,9.439685345E-1,3.477369547E0
6.870146519E2,7.768298626E0,8.913264275E-1,5.214558601E0
6.875146519E2,9.081359863E0,1.116850019E0,4.849653244E0
6.880146519E2,7.720442295E0,8.745766878E-1,5.148158073E0
6.885146519E2,7.808378696E0,1.036690354E0,5.697908878E0
6.890146519E2,8.723034859E0,7.513462901E-1,5.464010715E0
6.895146519E2,8.196015358E0,7.322037220E-1,6.524629116E0
6.900146519E2,8.247461319E0,6.520441771E-1,6.641279221E0
6.905146519E2,8.339585304E0,8.183453679E-1,6.859025955E0
6.910146519E2,7.582256794E0,9.637092948E-1,5.246861935E0
6.915146519E2,9.003593445E0,1.276570916E0,5.787639618E0
6.920146519E2,8.535796165E0,7.100701332E-1,4.648656368E0
6.925146519E2,8.534002304E0,5.874379873E-1,5.913861275E0
6.930146519E2,6.803392887E0,2.883351147E-1,-1.884347796E-1
6.935146519E2,7.385447025E0,6.843472719E-1,4.006781578E0
6.940146519E2,8.009973526E0,8.937192559E-1,6.238687038E0
6.945146519E2,7.247261524E0,1.322034448E-1,4.307080746E0
6.950146519E2,8.239685059E0,-1.758724600E-1,5.063212872E0
6.955146519E2,7.751548767E0,-8.913264424E-2,5.188836098E0
6.960146519E2,8.582456589E0,-1.088734269E-1,6.557530403E0
6.965146519E2,6.547959328E0,1.184447184E-1,5.770291805E0
6.970146519E2,9.492925644E0,2.033899166E-2,6.466603279E0
6.975146519E2,7.853243828E0,4.965107143E-2,5.208576679E0
6.980146519E2,7.454838753E0,-1.615155339E-1,5.974279881E0
6.985146519E2,8.169096947E0,1.136590727E-2,5.422136307E0
6.990146519E2,9.167501450E0,-1.818545163E-1,8.201399803E0
6.995146519E2,7.567899704E0,-7.130611539E-1,5.730212212E0
7.000146519E2,7.074978352E0,-1.036690354E0,4.808377266E0
7.005146519E2,8.073383331E0,-7.531409264E-1,6.068198204E0
7.010146519E2,8.232506752E0,3.469592705E-2,5.140979290E0
7.015146519E2,7.963313580E0,3.984049559E-1,5.809773445E0
7.020146519E2,7.583453178E0,3.511467278E-1,6.845267296E0
7.025146519E2,8.118248940E0,2.410768867E-1,7.103692055E0
7.030146519E2,8.067401886E0,5.443671346E-1,6.701099873E0
7.035146519E2,7.661818027E0,2.763710022E-1,4.412364960E0
7.040146519E2,8.478966713E0,5.264210105E-1,6.152545452E0
7.045146519E2,8.224729538E0,6.939185858E-1,5.830112457E0
7.050146519E2,8.092526436E0,7.304090858E-1,4.613361835E0
7.055146519E2,7.181458950E0,1.447657645E-1,4.300500393E0
7.060146519E2,8.706883430E0,3.984049559E-1,3.604787350E0
7.065146519E2,8.455039024E0,4.666004330E-2,5.894718647E0
7.070146519E2,8.478966713E0,9.690931439E-2,6.176473618E0
7.075146519E2,8.492725372E0,1.549352705E-1,5.873183250E0
7.080146519E2,8.339585304E0,1.734796353E-2,4.535595417E0
7.085146519E2,7.808976650E0,2.135594189E-1,4.886143684E0
7.090146519E2,8.015955925E0,2.853440940E-1,5.524429321E0
7.095146519E2,7.337590694E0,-1.758724600E-1,6.248258114E0
7.100146519E2,7.355536938E0,-2.033899166E-2,4.859224796E0
7.105146519E2,8.421539307E0,-2.955136001E-1,5.937191010E0
7.110146519E2,9.608379364E0,1.722832322E-1,3.978067636E0
7.115146519E2,7.856832981E0,2.956332445E0,6.689135551E0
7.120146519E2,3.480958700E0,5.415555954E0,6.803991318E0
7.127604393E2,1.933400750E0,5.761917114E0,8.082955360E0
7.132604393E2,2.981456995E0,5.618347645E0,8.628518105E0
7.137604393E2,2.163111687E0,5.369493961E0,7.154539585E0
7.142604393E2,2.459821701E0,6.250052929E0,7.800601959E0
7.147604393E2,1.990828395E0,6.575476646E0,7.412964344E0
7.152604393E2,2.258824587E0,6.685546398E0,6.733402729E0
7.157604393E2,2.225325108E0,6.522834301E0,6.781259537E0
7.162604393E2,3.048455954E0,6.709474564E0,4.953142643E0
7.167604393E2,7.365108013E0,5.158925533E0,6.326622963E0
7.172604393E2,8.360522270E0,3.775874138E0,4.086941242E0
7.177604393E2,6.513263226E0,2.081755638E0,4.101297855E0
7.182604393E2,7.929814339E0,2.612962246E0,5.685346603E0
7.187604393E2,7.508677483E0,2.737389088E0,5.474778175E0
7.192604393E2,7.427321434E0,3.072384357E0,6.738188744E0
7.197604393E2,7.551748276E0,2.914458036E0,5.369493961E0
7.202604393E2,7.695317745E0,2.407179594E0,4.862215519E0
7.207604393E2,8.633303642E0,2.823530674E0,4.144368649E0
7.212604393E2,8.260024071E0,2.129612207E0,4.991427898E0
7.217604393E2,8.398807526E0,2.584248543E0,4.689932346E0
7.222604393E2,8.729017258E0,1.761117458E0,5.369493961E0
7.227604393E2,7.599604607E0,2.761317253E0,5.364708424E0
7.232604393E2,7.714460373E0,2.201396942E0,5.273781300E0
7.237604393E2,8.068597794E0,1.890329838E0,4.302295208E0
7.242604393E2,8.140382767E0,1.919043779E0,4.800002098E0
7.247604393E2,7.795815945E0,1.009771109E0,-4.929214716E-1
7.252604393E2,8.886942863E0,1.919043779E0,5.154139996E0
7.257604393E2,8.824729919E0,2.378465652E0,6.561119556E0
7.262604393E2,8.427521706E0,1.765903115E0,5.809773445E0
7.267604393E2,8.322237015E0,9.140582681E-1,5.474778175E0
7.272604393E2,8.695517540E0,-1.914258152E-1,5.450850010E0
7.277604393E2,7.307680130E0,5.694918036E-1,5.785845280E0
7.282604393E2,8.221738815E0,1.292124271E0,4.814359188E0
7.287604393E2,8.298309326E0,1.426122308E0,4.139583111E0
7.292604393E2,8.551948547E0,-2.823530734E-1,4.244867325E0
7.297604393E2,8.461020470E0,4.307080805E-2,3.330809116E0
7.302604393E2,9.432506561E0,5.886343718E-1,3.507878065E0
7.307604393E2,9.092725754E0,4.307080805E-1,3.756731510E0
7.312604393E2,8.571090698E0,3.062812984E-1,4.211368084E0
7.317604393E2,9.456435204E0,8.757730722E-1,3.550948858E0
7.322604393E2,8.532805443E0,7.034898400E-1,4.579862595E0
7.327604393E2,8.906085968E0,6.604190469E-1,3.756731510E0
7.332604393E2,8.896514893E0,1.196411327E-1,4.450650215E0
7.337604393E2,8.791230202E0,2.057827413E-1,5.379065514E0
7.342604393E2,8.446663857E0,-2.201396823E-1,4.000799656E0
7.347604393E2,9.413364410E0,-1.004985496E-1,3.876372576E0
7.352604393E2,9.915857315E0,-3.302095234E-1,3.182454109E0
7.357604393E2,8.776873589E0,2.392822690E-2,4.053441525E0
7.362604393E2,7.996813297E0,-2.297109663E-1,6.498906136E0
7.367604393E2,8.250452042E0,-3.876372576E-1,3.594019651E0
7.372604393E2,9.188439369E0,-8.231309652E-1,5.067998409E0
7.377604393E2,9.064012527E0,-7.178468108E-1,3.282952785E0
7.382604393E2,8.767302513E0,-8.662018180E-1,5.134997368E0
7.387604393E2,9.461220741E0,-1.220339537E0,4.627718925E0
7.392604393E2,9.351150513E0,-1.373480201E0,4.340580463E0
7.397604393E2,8.805587769E0,-1.138983607E0,3.737588882E0
7.402604393E2,9.384650230E0,-1.105484009E0,4.737788677E0
7.407604393E2,8.953942299E0,1.057627559E0,4.977071285E0
7.412604393E2,8.226524353E0,5.742774606E-1,3.919443607E0
7.417604393E2,9.154939651E0,5.359922647E-1,5.106283665E0
7.422604393E2,8.336593628E0,6.508477330E-1,4.675575256E0
7.427604393E2,8.781659126E0,9.379864931E-1,2.871387243E0
7.432604393E2,9.327222824E0,2.632105052E-1,2.737389088E0
7.437604393E2,9.145368576E0,-1.914258115E-2,3.153740168E0
7.442604393E2,9.786644936E0,1.196411327E-1,4.005585194E0
7.447604393E2,8.901300430E0,9.571290575E-3,3.407379389E0
7.452604393E2,9.322437286E0,2.488535494E-1,3.785445452E0
7.457604393E2,9.829715729E0,-6.221338734E-2,3.646661758E0
7.462604393E2,8.633303642E0,1.866401732E-1,3.751945972E0
7.467604393E2,9.882357597E0,6.699903309E-2,3.828516245E0
7.472604393E2,8.465806961E0,1.627119333E-1,3.335594654E0
7.477604393E2,9.753145218E0,1.244267747E-1,4.029513359E0
7.482604393E2,8.341380119E0,7.657032460E-2,3.311666489E0
7.487604393E2,9.633503914E0,-4.785645287E-3,4.000799656E0
7.492604393E2,8.394021988E0,5.742774159E-2,3.483949661E0
7.497604393E2,9.533005714E0,-1.292124242E-1,3.862015724E0
7.502604393E2,8.633303642E0,7.178468257E-2,3.579662561E0
7.507604393E2,9.336793900E0,-1.196411327E-1,3.613162279E0
7.512604393E2,8.212167740E0,3.062812984E-1,3.541377544E0
7.517604393E2,9.355937004E0,7.992027402E-1,4.240081787E0
7.522604393E2,9.284152031E0,1.828116536E0,3.436093330E0
7.527604393E2,8.839086533E0,1.598405480E0,5.235496044E0
7.532604393E2,9.221938133E0,1.526620865E0,5.522634506E0
7.537604393E2,8.867800713E0,1.598405480E0,5.010570526E0
7.542604393E2,8.977870941E0,1.622333765E0,4.474578381E0
7.547604393E2,9.207581520E0,2.110469580E0,4.192225456E0
7.552604393E2,9.312865257E0,1.335195065E0,4.106083870E0
7.557604393E2,9.365508080E0,1.383051515E0,6.259624004E0
7.562604393E2,9.446864128E0,1.100698471E0,4.517649174E0
7.567604393E2,1.044706345E1,1.957328916E0,3.795016766E0
7.572604393E2,9.915857315E0,1.325623751E0,3.445664644E0
7.577604393E2,9.202795982E0,1.885544300E0,3.933800459E0
7.582604393E2,9.939785004E0,2.062613010E0,2.670390129E0
7.587604393E2,9.068798065E0,1.162911773E0,4.666004181E0
7.592604393E2,8.518448830E0,1.028913736E0,3.938585997E0
7.597604393E2,9.647860527E0,1.124626637E0,2.459821701E0
7.602604393E2,1.027478027E1,3.732803464E-1,7.369893789E-1
7.607604393E2,9.226723671E0,-3.493520916E-1,3.349951804E-1
7.612604393E2,1.092084217E1,-8.757730722E-1,-7.322037220E-1
7.617604393E2,8.915657043E0,-6.077769399E-1,-4.929214716E-1
7.622604393E2,9.973284721E0,-1.536192179E0,9.810572863E-1
7.627604393E2,8.982656479E0,-1.469193101E0,1.435693540E-2
7.632604393E2,9.901499748E0,-1.593619823E0,-8.853443861E-1
7.637604393E2,9.312865257E0,-1.153340459E0,-1.512263894E0
7.642604393E2,9.958928108E0,-1.244267821E0,-1.794616938E0
7.647604393E2,9.518648148E0,-2.268395901E0,-1.215553880E0
7.652604393E2,8.819944382E0,-1.746760488E0,8.135597110E-1
7.657604393E2,1.076770210E1,-1.818545222E0,2.737389088E0
7.662604393E2,1.022213840E1,-1.253839016E0,2.100898266E0
7.667604393E2,9.107083321E0,-1.780260086E0,2.182254314E0
7.672604393E2,9.064012527E0,-1.737189293E0,3.536591768E0
7.677604393E2,9.322437286E0,-1.560120344E0,-4.019941986E-1
7.682604393E2,1.030349445E1,-8.614161611E-1,-8.087740541E-1
7.687604393E2,1.044706345E1,-8.566305041E-1,6.364908218E-1
7.692604393E2,9.245866776E0,-1.402194023E0,-1.560120344E0
7.697604393E2,9.868000984E0,-3.828516304E-1,-9.475577474E-1
7.702604393E2,1.043270683E1,-9.619147182E-1,4.785645287E-3
7.707604393E2,9.470791817E0,-3.206382394E-1,-5.838487148E-1
7.712604393E2,9.686145782E0,-7.130611539E-1,1.545763373E0
7.717604393E2,9.279366493E0,-2.536391914E-1,5.264209956E-2
7.722604393E2,9.882357597E0,-1.071984529E0,4.067798555E-1
7.727604393E2,9.317651749E0,-5.168496966E-1,1.100698471E0
7.732604393E2,9.193224907E0,-1.430907965E0,7.034898400E-1
7.737604393E2,9.844072342E0,-1.493121386E0,5.694918036E-1
7.742604393E2,9.824930191E0,-1.253839016E0,1.517049551E0
7.747604393E2,1.010249710E1,-1.588834286E0,1.603191137E0
7.752604393E2,9.135796547E0,-1.440479279E0,9.236295223E-1
7.757604393E2,9.604789734E0,-1.339980721E0,-3.349951655E-2
7.762604393E2,1.030349445E1,-1.378265858E0,1.469193101E0
7.767604393E2,8.571090698E0,-1.081555843E0,-1.048056364E0
7.772604393E2,1.035135078E1,-7.417750359E-1,-3.828516304E-1
7.777604393E2,1.002114105E1,-9.332008362E-1,-3.254238665E-1
7.782604393E2,9.322437286E0,-1.368694544E0,-4.163511395E-1
7.787604393E2,9.547362328E0,-1.531406522E0,-8.183453679E-1
7.792604393E2,9.561718941E0,-1.397408366E0,-2.727817893E-1
7.797604393E2,1.023649502E1,-1.220339537E0,-9.714859724E-1
7.802604393E2,9.236295700E0,-1.359123230E0,-9.092726111E-1
7.807604393E2,1.060499001E1,-1.100698471E0,1.057627559E0
7.812604393E2,9.853643417E0,-1.043270707E0,-5.742774159E-2
7.817604393E2,9.355937004E0,-1.268195987E0,-2.153540403E-1
7.822604393E2,9.336793900E0,-1.311266780E0,-1.579262912E-1
7.827604393E2,8.906085968E0,-1.067198873E0,1.741974831E0
7.832604393E2,1.073898792E1,-2.110469580E0,1.330409408E0
7.837604393E2,9.805787086E0,-1.885544300E0,-4.785645306E-1
7.842604393E2,1.025085258E1,-2.115255117E0,1.301695466E0
7.847604393E2,9.379864693E0,-2.139183521E0,1.234696507E0
7.852604393E2,9.982855797E0,-2.120040894E0,6.699903607E-1
7.857604393E2,1.064327526E1,-1.674975872E0,1.225125194E0
7.862604393E2,1.013121128E1,-2.316252232E0,1.004985496E-1
7.867604393E2,9.614361763E0,-2.402393818E0,-1.612762451E0
7.872604393E2,9.121439934E0,-1.593619823E0,-1.928615093E0
7.877604393E2,9.686145782E0,-1.426122308E0,-1.952543259E0
7.882604393E2,8.705088615E0,-1.201196909E0,-2.589034081E0
7.887604393E2,9.107083321E0,-9.810572863E-1,-2.627319336E0
7.892604393E2,1.031785107E1,1.148554832E-1,-1.234696507E0
7.897604393E2,9.824930191E0,-4.881358147E-1,-1.205982566E0
7.902604393E2,9.269794464E0,-4.785645381E-2,-4.354937077E-1
7.907604393E2,1.040399265E1,1.627119333E-1,3.732803464E-1
7.912604393E2,9.437292099E0,-5.503492355E-1,1.483550072E-1
7.917604393E2,9.116654396E0,-2.009970993E-1,4.546363056E-1
7.922604393E2,8.489734650E0,-1.316052437E0,-5.982056856E-1
7.927604393E2,9.446864128E0,-1.024128079E0,5.264209956E-2
7.932604393E2,1.039920712E1,-1.517049551E0,5.359922647E-1
7.937604393E2,9.757930756E0,-1.158126116E0,1.435693651E-1
7.942604393E2,1.084905815E1,-2.201396942E0,1.182054400E0
7.947604393E2,9.245866776E0,-1.832902193E0,5.551348329E-1
7.952604393E2,9.997213364E0,-1.962114573E0,-7.226324677E-1
7.957604393E2,9.389435768E0,-2.110469580E0,4.594219327E-1
7.962604393E2,9.466006279E0,-2.110469580E0,1.914258152E-1
7.967604393E2,9.322437286E0,-1.981257200E0,2.392822690E-2
7.972604393E2,1.004506969E1,-2.636890650E0,7.992027402E-1
7.977604393E2,9.494720459E0,-2.766103029E0,3.493520916E-1
7.982604393E2,9.949356079E0,-3.359523058E0,3.254238665E-1
7.987604393E2,9.360722542E0,-2.785245657E0,3.876372576E-1
7.992604393E2,9.322437286E0,-2.627319336E0,9.092726111E-1
7.997604393E2,1.003071213E1,-2.622533560E0,8.614161611E-2
8.002604393E2,9.485149384E0,-6.652047038E-1,5.742774606E-1
8.007604393E2,1.019820976E1,-1.119840980E0,4.115654826E-1
8.012604393E2,9.154939651E0,-9.523434043E-1,5.407779217E-1
8.017604393E2,1.026520920E1,-1.229910851E0,3.158525825E-1
8.022604393E2,9.394221306E0,-8.566305041E-1,6.747759581E-1
8.027604393E2,1.018385315E1,-1.167697430E0,4.067798555E-1
8.032604393E2,9.284152031E0,-9.140582681E-1,6.747759581E-1
8.037604393E2,9.987641335E0,-1.167697430E0,3.876372576E-1
8.042604393E2,9.145368576E0,-8.805587292E-1,6.939185858E-1
8.047604393E2,1.038485050E1,-1.057627559E0,3.876372576E-1
8.052604393E2,9.355937004E0,-9.284151793E-1,3.589234054E-1
8.057604393E2,1.031785107E1,-9.762716293E-1,5.312066078E-1
8.062604393E2,9.595218658E0,-1.033699393E0,4.450650215E-1
8.067604393E2,1.026042366E1,-9.092726111E-1,3.828516304E-1
8.072604393E2,9.542576790E0,-1.048056364E0,4.067798555E-1
8.077604393E2,1.041356373E1,-9.523434043E-1,3.445664644E-1
8.082604393E2,9.360722542E0,-1.024128079E0,4.067798555E-1
8.087604393E2,1.068156052E1,-1.014556766E0,5.551348329E-1
8.092604393E2,9.260223389E0,-8.470591903E-1,3.924229145E-1
8.097604393E2,1.053320503E1,-1.009771109E0,4.354937077E-1
8.102604393E2,9.059226990E0,-8.949156404E-1,2.105683982E-1
8.107604393E2,1.057627583E1,-9.954141974E-1,3.972085714E-1
8.112604393E2,9.030512810E0,-9.427721500E-1,3.014956415E-1
8.117604393E2,1.047099209E1,-1.019342422E0,5.264210105E-1
8.122604393E2,9.044869423E0,-8.470591903E-1,4.977070987E-1
8.127604393E2,9.820143700E0,-5.168496966E-1,8.709874153E-1
8.132604393E2,9.815358162E0,8.614161611E-2,3.972085714E-1
8.137604393E2,1.001156998E1,4.019941986E-1,3.158525825E-1
8.142604393E2,1.031785107E1,0.000000000E0,4.402793646E-1
8.147604393E2,9.939785004E0,-4.833501875E-1,9.906286001E-1
8.152604393E2,1.009771156E1,-1.052842021E0,2.536391914E-1
8.157604393E2,9.609575272E0,-1.100698471E0,5.359922647E-1
8.162604393E2,9.973284721E0,-1.071984529E0,4.689932466E-1
8.167604393E2,9.734002113E0,-9.762716293E-1,2.967100143E-1
8.172604393E2,9.312865257E0,-1.033699393E0,7.657032460E-2
8.177604393E2,9.863214493E0,-4.115654826E-1,8.614161611E-1
8.182604393E2,9.576076508E0,3.349951655E-2,-1.244267747E-1
8.187604393E2,9.446864128E0,-1.435693540E-2,1.866401732E-1
8.192604393E2,1.000678444E1,2.919243574E-1,5.982056856E-1
8.197604393E2,1.037527943E1,1.244267747E-1,2.632105052E-1
8.202604393E2,9.628718376E0,-3.828516230E-2,-5.742774159E-2
8.207604393E2,9.868000984E0,-9.571290612E-1,-1.229910851E0
8.212604393E2,9.427721024E0,9.571290761E-2,-8.039883971E-1
8.217604393E2,9.643074989E0,7.178468257E-2,-1.258624673E0
8.222604393E2,9.600004196E0,-1.722832322E-1,-1.990828395E0
8.227604393E2,9.590433121E0,-1.052841991E-1,-3.555734396E0
8.232604393E2,9.399007797E0,1.914258115E-2,-2.440679073E0
8.237604393E2,1.036092186E1,3.445664644E-1,-2.349751949E0
8.242604393E2,9.906285286E0,1.435693540E-2,-1.282552958E0
8.247604393E2,1.005942631E1,1.004985496E-1,-1.622333765E0
8.252604393E2,9.571290970E0,-1.962114573E-1,-2.249253243E-1
8.257604393E2,9.863214493E0,-5.264209956E-2,2.488535494E-1
8.262604393E2,9.623932838E0,-4.881358147E-1,7.800601721E-1
8.267604393E2,9.853643417E0,-2.249253243E-1,6.269195080E-1
8.272604393E2,9.044869423E0,-3.493520916E-1,1.483550072E0
8.277604393E2,8.762516975E0,-1.435693651E-1,3.206382394E-1
8.282604393E2,9.087940216E0,-7.752745152E-1,5.694918036E-1
8.287604393E2,1.010249710E1,-8.470591903E-1,1.373480201E0
8.292604393E2,1.021735287E1,-1.162911773E0,4.642075896E-1
8.297604393E2,9.202795982E0,-1.210768223E0,1.627119333E-1
8.302604393E2,9.757930756E0,-1.124626637E0,-6.604190469E-1
8.307604393E2,1.023170948E1,-1.091127157E0,6.029912829E-1
8.312604393E2,8.705088615E0,-1.220339537E0,2.871387303E-1
8.317604393E2,1.016471100E1,-1.062413216E0,1.344766378E0
8.322604393E2,9.499505997E0,-1.162911773E0,9.379864931E-1
8.327604393E2,1.088255692E1,-8.805587292E-1,-4.689932466E-1
8.332604393E2,9.250652313E0,-1.153340459E0,1.000199914E0
8.337604393E2,9.442078590E0,-1.129412293E0,1.258624673E0
8.342604393E2,1.013121128E1,-1.009771109E0,1.272981644E0
8.347604393E2,9.863214493E0,-7.944171429E-1,3.110669553E-1
8.352604393E2,9.772287369E0,-1.067198873E0,-8.614161611E-2
8.357604393E2,1.042313576E1,-1.172483087E0,5.599204898E-1
8.362604393E2,8.518448830E0,-1.837687731E0,6.652047038E-1
8.367604393E2,1.015992451E1,-1.603191137E0,7.657032609E-1
8.372604393E2,9.221938133E0,-1.698904037E0,1.674975872E0
8.377604393E2,8.939585686E0,-1.095912814E0,2.005185366E0
8.382604393E2,9.901499748E0,-5.934200287E-1,9.571290612E-1
8.387604393E2,9.944570541E0,-1.536192179E0,1.713261008E0
8.392604393E2,9.571290970E0,-1.124626637E0,1.770688772E0
8.397604393E2,8.848658562E0,-1.191625714E0,8.183453679E-1
8.402604393E2,9.796216011E0,-1.210768223E0,1.866401732E-1
8.407604393E2,1.035613632E1,-1.000199914E0,-2.919243574E-1
8.412604393E2,9.604789734E0,-8.614161611E-1,-9.571290761E-2
8.417604393E2,9.470791817E0,-7.704889178E-1,-1.531406522E0
8.422604393E2,1.023649502E1,-8.853443861E-1,-1.670190215E0
8.427604393E2,9.968499184E0,6.556333899E-1,-8.614161611E-1
8.432604393E2,9.920642853E0,2.105683982E-1,5.455635786E-1
8.437604393E2,9.690931320E0,9.140582681E-1,2.617748022E0
8.442604393E2,9.834501266E0,5.312066078E-1,3.120240688E0
8.447604393E2,8.992227554E0,3.302095234E-1,1.521835208E0
8.452604393E2,9.748359680E0,2.201396823E-1,2.775674343E0
8.457604393E2,9.643074989E0,-2.440679073E-1,2.837887764E0
8.462604393E2,9.566504478E0,5.168496966E-1,5.264210105E-1
8.467604393E2,1.019342422E1,2.536391914E-1,4.354937077E-1
8.472604393E2,9.724431038E0,2.009970993E-1,6.221339107E-1
8.477604393E2,1.019820976E1,-1.244267747E-1,4.163511395E-1
8.482604393E2,9.786644936E0,-2.344966233E-1,4.498506486E-1
8.487604393E2,1.040877819E1,-1.287338614E0,9.571290761E-2
8.492604393E2,9.494720459E0,-9.044869542E-1,3.876372576E-1
8.497604393E2,9.556933403E0,-7.896314859E-1,3.158525825E-1
8.502604393E2,9.600004196E0,-9.714859724E-1,1.004985496E-1
8.507604393E2,9.911071777E0,-1.138983607E0,-3.397808075E-1
8.512604393E2,1.107876873E1,-1.660618901E0,8.997012973E-1
8.517604393E2,9.623932838E0,-2.167897224E0,4.785645287E-3
8.522604393E2,9.255437851E0,-1.646261930E0,-4.307080805E-2
8.527604393E2,8.671588898E0,-1.895115495E0,-2.871387303E-1
8.532604393E2,9.456435204E0,-1.842473388E0,9.332008362E-1
8.537604393E2,9.887143135E0,-1.167697430E0,1.813759565E0
8.542604393E2,8.963513374E0,-1.100698471E0,1.330409408E0
8.547604393E2,9.925428391E0,-9.140582681E-1,2.445464849E0
8.552604393E2,9.011369705E0,-2.967100143E-1,2.517249346E0
8.557604393E2,9.399007797E0,-6.747759581E-1,4.488935471E0
8.562604393E2,9.475577354E0,-2.871387079E-2,2.909672260E0
8.567604393E2,1.009771156E1,3.349951655E-2,3.479164124E0
8.572604393E2,9.920642853E0,-1.531406492E-1,3.268595695E0
8.577604393E2,9.638289452E0,3.014956415E-1,1.517049551E0
8.582604393E2,9.164510727E0,-2.392822653E-1,1.545763373E0
8.587604393E2,9.092725754E0,6.221338734E-2,1.454836130E0
8.592604393E2,1.024606609E1,-5.407779217E-1,5.838487148E-1
8.597604393E2,9.848857880E0,-6.604190469E-1,9.092726111E-1
8.602604393E2,9.604789734E0,-1.818545163E-1,1.186840057E0
8.607604393E2,9.815358162E0,5.216353536E-1,9.475577474E-1
8.612604393E2,9.934999466E0,4.307080805E-1,2.297109663E-1
8.617604393E2,9.561718941E0,-2.297109663E-1,7.992027402E-1
8.622604393E2,9.772287369E0,-4.307080805E-2,2.244467735E0
8.627604393E2,9.260223389E0,5.359922647E-1,6.699903607E-1
8.632604393E2,9.743574142E0,-6.891329288E-1,-1.004985496E-1
8.637604393E2,9.930213928E0,9.571290761E-2,1.885544300E0
8.642604393E2,9.652647018E0,-5.072783828E-1,1.287338614E0
8.647604393E2,9.729216576E0,-2.967100143E-1,1.215553880E0
8.652604393E2,1.007378292E1,-1.076770186E0,1.928615093E0
8.657604393E2,9.188439369E0,-5.407779217E-1,2.565105915E0
8.662604393E2,9.925428391E0,-4.450650215E-1,1.545763373E0
8.667604393E2,9.853643417E0,-8.805587292E-1,2.225325108E0
8.672604393E2,9.260223389E0,-6.652047038E-1,9.427721500E-1
8.677604393E2,8.886942863E0,-2.488535494E-1,8.709874153E-1
8.682604393E2,1.048534870E1,-1.339980662E-1,1.162911773E0
8.687604393E2,9.269794464E0,-6.747759581E-1,1.895115495E0
8.692604393E2,1.014556789E1,-5.982056856E-1,2.316252232E0
8.697604393E2,8.628518105E0,-1.019342422E0,1.129412293E0
8.702604393E2,1.019820976E1,-7.178468108E-1,1.995614052E0
8.707604393E2,8.628518105E0,-8.327022791E-1,7.130611539E-1
8.712604393E2,9.379864693E0,-1.038485050E0,1.502692580E0
8.717604393E2,9.542576790E0,-9.571290612E-1,1.579262972E0
8.722604393E2,1.038485050E1,-6.843472719E-1,2.268395901E0
8.727604393E2,8.891729355E0,-1.512263894E0,1.182054400E0
8.732604393E2,9.298508644E0,-1.421336651E0,2.143969059E0
8.737604393E2,1.036570740E1,-1.617548108E0,2.440679073E0
8.742604393E2,9.671789169E0,-1.852044702E0,2.067398787E0
8.747604393E2,8.585447311E0,-1.828116536E0,2.421536446E0
8.752604393E2,9.738788605E0,-1.727617979E0,2.038684845E0
8.757604393E2,9.992427826E0,-1.765903115E0,2.163111687E0
8.762604393E2,8.585447311E0,-1.368694544E0,1.722832322E0
8.767604393E2,9.198010445E0,-1.215553880E0,2.354537487E0
8.772604393E2,9.556933403E0,-9.667003751E-1,1.531406522E0
8.777604393E2,8.666803360E0,-6.460621357E-1,3.795016766E0
8.782604393E2,8.595019341E0,-8.135597110E-1,4.297509670E0
8.787604393E2,9.422935486E0,-2.009970993E-1,4.086941242E0
8.792604393E2,8.489734650E0,1.052841991E-1,4.120440483E0
8.797604393E2,9.542576790E0,1.052841991E-1,4.063013077E0
8.802604393E2,9.604789734E0,-1.339980662E-1,4.517649174E0
8.807604393E2,8.829515457E0,-4.594219327E-1,4.723432064E0
8.812604393E2,8.097311974E0,-1.052841991E-1,3.684946775E0
8.817604393E2,8.681160927E0,-5.742774159E-2,6.623332977E0
8.822604393E2,9.183652878E0,1.148554832E-1,6.230910301E0
8.827604393E2,9.073583603E0,-1.722832322E-1,4.517649174E0
8.832604393E2,9.068798065E0,4.737788737E-1,2.000399828E0
8.837604393E2,9.820143700E0,-1.818545163E-1,2.335394859E0
8.842604393E2,9.169296265E0,2.009970993E-1,1.569691658E0
8.847604393E2,9.777072906E0,2.440679073E-1,1.708475351E0
8.852604393E2,9.896714211E0,6.795616150E-1,1.488335729E0
8.857604393E2,9.657432556E0,1.627119333E-1,9.284151793E-1
8.862604393E2,9.355937004E0,3.110669553E-1,1.330409408E0
8.867604393E2,9.609575272E0,-1.339980662E-1,1.368694544E0
8.872604393E2,1.002592659E1,-2.871387303E-1,2.182254314E0
8.877604393E2,9.336793900E0,2.392822653E-1,2.143969059E0
8.882604393E2,9.647860527E0,4.211367965E-1,1.866401672E0
8.887604393E2,9.475577354E0,3.637090325E-1,1.138983607E0
8.892604393E2,9.676574707E0,2.009970993E-1,2.120040894E0
8.897604393E2,9.887143135E0,3.732803464E-1,2.947957516E0
8.902604393E2,1.003549862E1,1.435693651E-1,2.163111687E0
8.907604393E2,9.930213928E0,-4.737788737E-1,1.962114573E0
8.912604393E2,9.973284721E0,2.057827413E-1,1.598405480E0
8.917604393E2,9.418149948E0,4.929214716E-1,1.048056364E0
8.922604393E2,9.633503914E0,-3.062812984E-1,1.995614052E0
8.927604393E2,1.003071213E1,1.770688742E-1,1.081555843E0
8.932604393E2,9.312865257E0,-1.148554832E-1,1.196411327E-1
8.937604393E2,9.643074989E0,-9.523434043E-1,6.364908218E-1
8.942604393E2,1.155733299E1,-8.327022791E-1,2.579462767E0
8.947604393E2,9.284152031E0,-5.790630579E-1,2.321038008E0
8.952604393E2,8.982656479E0,-6.364908218E-1,1.497906923E0
8.957604393E2,1.163390350E1,5.264209956E-2,1.268195987E0
8.962604393E2,1.002114105E1,-8.231309652E-1,1.622333765E0
8.967604393E2,1.063370419E1,-1.201196909E0,1.268195987E0
8.972604393E2,1.021735287E1,-3.637090325E-1,1.493121386E0
8.977604393E2,9.767501831E0,-1.579262912E-1,2.258824587E0
8.982604393E2,8.891729355E0,-3.062812984E-1,2.632104874E0
8.987604393E2,9.686145782E0,-7.800601721E-1,2.746960402E0
8.992604393E2,8.671588898E0,-7.082754970E-1,2.938386202E0
8.997604393E2,9.131011009E0,-7.417750359E-1,2.991028309E0
9.002604393E2,8.709874153E0,-6.987041831E-1,1.593619823E0
9.007604393E2,1.014556789E1,-6.891329288E-1,6.556333899E-1
9.012604393E2,8.666803360E0,-7.226324677E-1,2.316252232E0
9.017604393E2,9.518648148E0,-4.307080805E-1,1.383051515E0
9.022604393E2,9.250652313E0,-8.757730722E-1,2.196611166E0
9.027604393E2,9.643074989E0,-6.317051649E-1,2.718246460E0
9.032604393E2,9.054440498E0,-7.369893789E-1,3.062813044E0
9.037604393E2,1.007378292E1,-7.800601721E-1,3.651447296E0
9.042604393E2,9.571290970E0,-7.752745152E-1,2.502892494E0
9.047604393E2,9.413364410E0,-9.044869542E-1,4.618147850E0
9.052604393E2,9.734002113E0,-5.168496966E-1,1.244267821E0
9.057604393E2,9.753145218E0,-4.881358147E-1,2.502892494E0
9.062604393E2,6.642475605E0,-8.231309652E-1,8.566305041E-1
9.067604393E2,1.133719349E1,-8.135597110E-1,6.470192432E0
9.072604393E2,8.796015739E0,-9.140582681E-1,2.770888567E0
9.077604393E2,8.135597229E0,-5.694918036E-1,2.986242771E0
9.082604393E2,1.082034397E1,-7.992027402E-1,2.885744095E0
9.087604393E2,9.738788605E0,-5.790630579E-1,3.981656790E0
9.092604393E2,9.829715729E0,-6.317051649E-1,1.737189293E0
9.097604393E2,9.064012527E0,-4.642075896E-1,3.957728624E0
9.102604393E2,9.408578873E0,-5.120640397E-1,2.785245657E0
9.107604393E2,9.911071777E0,-3.158525825E-1,2.000399828E0
9.112604393E2,8.705088615E0,-6.652047038E-1,3.120240688E0
9.117604393E2,9.681360245E0,-3.732803464E-1,2.282752752E0
9.122604393E2,9.016156197E0,-7.417750359E-1,4.426722050E0
9.127604393E2,9.413364410E0,-8.614161611E-1,5.656632900E0
9.132604393E2,1.128455162E1,-5.168496966E-1,5.115854740E0
9.137604393E2,8.269595146E0,-4.737788737E-1,2.995813847E0
9.142604393E2,9.772287369E0,-8.135597110E-1,1.933400750E0
9.147604393E2,9.609575272E0,-5.982056856E-1,2.809173822E0
9.152604393E2,1.019820976E1,-3.972085714E-1,3.316452265E0
9.157604393E2,1.055234814E1,-5.024927258E-1,4.977070987E-1
9.162604393E2,9.710074425E0,-2.871387079E-2,3.967299938E0
9.167604393E2,8.149953842E0,-1.292124242E-1,3.574877024E0
9.172604393E2,9.695717812E0,-3.637090325E-1,2.301895380E0
9.177604393E2,1.018385315E1,-5.120640397E-1,2.895315409E0
9.182604393E2,8.848658562E0,-9.762716293E-1,-4.402793646E-1
9.187604393E2,6.862615108E0,-4.785645287E-3,6.465406895E0
9.192604393E2,9.686145782E0,1.052841991E-1,1.196411371E0
9.197604393E2,1.006421185E1,-6.939185858E-1,-6.077769399E-1
9.202604393E2,8.681160927E0,-1.033699393E0,-1.076770186E0
9.207604393E2,5.268995285E0,-2.167897224E0,2.545963287E0
9.212604393E2,9.265008926E0,-1.062413216E0,-2.325823545E0
9.217604393E2,1.045663452E1,-1.445264935E0,-3.876372576E-1
9.222604393E2,8.604590416E0,-1.694118381E0,-1.435693622E0
9.227604393E2,1.023170948E1,-1.038485050E0,-1.191625714E0
9.232604393E2,1.046142101E1,-2.072184324E0,-2.201396823E-1
9.237604393E2,1.020299530E1,-1.569691658E0,-8.614161611E-1
9.242604393E2,9.494720459E0,-1.272981644E0,-1.000199914E0
9.247604393E2,9.628718376E0,-1.110269666E0,-3.972085714E-1
9.252604393E2,9.336793900E0,-1.861616015E0,-6.747759581E-1
9.257604393E2,1.079162979E1,-1.526620865E0,4.881358147E-1
9.262604393E2,8.714659691E0,-1.459621787E0,-6.843472719E-1
9.267604393E2,1.049970531E1,-1.545763373E0,8.614161611E-2
9.272604393E2,8.992227554E0,-1.732403636E0,-8.853443861E-1
9.277604393E2,1.007856941E1,-1.569691658E0,2.632105052E-1
9.282604393E2,8.939585686E0,-1.674975872E0,-1.153340459E0
9.287604393E2,9.805787086E0,-1.617548108E0,-6.795616150E-1
9.292604393E2,9.982855797E0,-1.435693622E0,-4.689932466E-1
9.297604393E2,9.107083321E0,-1.311266780E0,-3.541377485E-1
9.302604393E2,1.025085258E1,-1.890329838E0,-6.125625968E-1
9.307604393E2,9.494720459E0,-1.517049551E0,-1.306481123E0
9.312604393E2,8.815158844E0,-2.014756680E0,-5.455635786E-1
9.317604393E2,1.005464077E1,-1.923829436E0,-3.206382394E-1
9.322604393E2,9.891928673E0,-2.455035925E0,-2.775674164E-1
9.327604393E2,9.446864128E0,-2.431107759E0,2.072184324E0
9.332604393E2,8.494520187E0,-1.923829436E0,1.205982566E0
9.337604393E2,1.087777138E1,-1.794616938E0,1.000199914E0
9.342604393E2,8.666803360E0,-2.000399828E0,2.086541414E0
9.347604393E2,8.523234367E0,-2.507678032E0,2.158325911E0
9.352604393E2,1.084905815E1,-1.775474429E0,2.799602509E0
9.357604393E2,9.092725754E0,-2.124826431E0,1.521835208E0
9.362604393E2,9.360722542E0,-2.210968018E0,2.450250387E0
9.367604393E2,8.662017822E0,-1.579262972E0,3.905086517E0
9.372604393E2,1.094477081E1,-2.033899307E0,4.977071285E0
9.377604393E2,8.642875671E0,-2.531606436E0,2.651247501E0
9.382604393E2,8.896514893E0,-2.368894339E0,2.359323025E0
9.387604393E2,8.599804878E0,-1.775474429E0,4.354937077E0
9.392604393E2,1.000678444E1,-1.933400750E0,2.096112728E0
9.397604393E2,6.072983742E0,-3.005385160E0,2.727817893E-1
9.402604393E2,9.073583603E0,-3.751945972E0,3.043670416E0
9.407604393E2,9.389435768E0,-2.885744095E0,2.995813847E0
9.412604393E2,8.642875671E0,-2.794816732E0,2.871387243E0
9.417604393E2,9.092725754E0,-2.512463808E0,3.555734396E0
9.422604393E2,8.791230202E0,-3.048455954E0,2.646461725E0
9.427604393E2,9.131011009E0,-5.120640397E-1,3.584448338E0
9.432604393E2,9.011369705E0,-8.039883971E-1,3.306880951E0
9.437604393E2,8.695517540E0,-9.714859724E-1,2.656033039E0
9.442604393E2,9.824930191E0,-1.363908887E0,3.555734396E0
9.447604393E2,9.068798065E0,-8.614161611E-1,3.101098061E0
9.452604393E2,8.834300995E0,-1.038485050E0,2.756531715E0
9.457604393E2,9.777072906E0,-1.024128079E0,3.699303865E0
9.462604393E2,8.451449394E0,-9.571290612E-1,3.000599623E0
9.467604393E2,9.939785004E0,-1.014556766E0,3.866801500E0
9.472604393E2,8.126026154E0,-8.853443861E-1,2.670390129E0
9.477604393E2,9.571290970E0,-1.038485050E0,3.598805189E0
9.482604393E2,9.221938133E0,-1.229910851E0,3.038884640E0
9.487604393E2,9.068798065E0,-8.422735929E-1,3.522234917E0
9.492604393E2,1.019342422E1,-1.172483087E0,3.842873096E0
9.497604393E2,8.824729919E0,-8.279166222E-1,3.259024382E0
9.502604393E2,1.011685371E1,-1.191625714E0,3.809373617E0
9.507604393E2,8.681160927E0,-9.667003751E-1,3.349951744E0
9.512604393E2,9.868000984E0,-1.249053478E0,3.708875179E0
9.517604393E2,9.556933403E0,-1.043270707E0,3.790230989E0
9.522604393E2,8.465806961E0,-9.475577474E-1,2.890529871E0
9.527604393E2,9.494720459E0,-1.014556766E0,3.617947817E0
9.532604393E2,8.930013657E0,-1.205982566E0,2.813959360E0
9.537604393E2,9.255437851E0,-9.667003751E-1,3.541377544E0
9.542604393E2,9.097511292E0,-1.215553880E0,3.014956474E0
9.547604393E2,8.896514893E0,-1.067198873E0,3.550948858E0
9.552604393E2,9.576076508E0,-1.296909928E0,3.302095175E0
9.557604393E2,8.752944946E0,-8.949156404E-1,3.321237803E0
9.562604393E2,9.834501266E0,-1.282552958E0,3.718446493E0
9.567604393E2,8.671588898E0,-8.853443861E-1,3.192025423E0
9.572604393E2,9.944570541E0,-1.191625714E0,3.828516245E0
9.577604393E2,8.762516975E0,-8.997012973E-1,3.378665686E0
9.582604393E2,1.016471100E1,-1.158126116E0,3.847658873E0
9.587604393E2,8.867800713E0,-9.714859724E-1,3.215953588E0
9.592604393E2,1.013121128E1,-1.158126116E0,4.091726780E0
9.597604393E2,8.729017258E0,-8.853443861E-1,3.129812002E0
9.602604393E2,1.004028416E1,-1.162911773E0,3.957728624E0
9.607604393E2,8.638090134E0,-9.092726111E-1,3.153740168E0
9.612604393E2,1.011206818E1,-9.092726111E-1,4.106083870E0
9.617604393E2,8.551948547E0,-5.551348329E-1,2.837887764E0
9.622604393E2,9.968499184E0,1.818545163E-1,3.675375462E0
9.627604393E2,9.154939651E0,5.742774606E-1,3.881158352E0
9.632604393E2,8.776873589E0,2.392822653E-1,3.469592810E0
9.637604393E2,9.121439934E0,3.349951655E-2,4.493721008E0
9.642604393E2,8.853444099E0,5.407779217E-1,3.766302824E0
9.647604393E2,1.037527943E1,7.034898400E-1,3.531806231E0
9.652604393E2,8.915657043E0,3.493520916E-1,1.990828395E0
9.657604393E2,9.513862610E0,1.756331801E0,2.421536446E0
9.662604393E2,8.738588333E0,5.024927258E-1,3.589233875E0
9.667604393E2,7.972885132E0,7.752745152E-1,2.210968018E0
9.672604393E2,7.972885132E0,2.105683982E-1,3.297309637E0
9.677604393E2,9.360722542E0,1.095912814E0,4.374079704E0
9.682604393E2,9.351150513E0,6.317051649E-1,3.713660717E0
9.687604393E2,9.446864128E0,3.541377485E-1,3.603590965E0
9.692604393E2,8.839086533E0,8.135596663E-2,3.536591768E0
9.697604393E2,8.819944382E0,9.092726111E-1,3.488735437E0
9.702604393E2,9.700503349E0,4.977070987E-1,4.321437836E0
9.707604393E2,8.858229637E0,5.838487148E-1,3.622733593E0
9.712604393E2,9.221938133E0,4.785645381E-2,3.029313564E0
9.717604393E2,8.685946465E0,6.412764788E-1,3.072384357E0
9.722604393E2,9.595218658E0,-2.967100143E-1,3.972085476E0
9.727604393E2,9.207581520E0,-3.541377485E-1,3.771088600E0
9.732604393E2,9.982855797E0,6.460621357E-1,3.474378586E0
9.737604393E2,9.288937569E0,-2.153540403E-1,3.474378586E0
9.742604393E2,9.686145782E0,8.614161611E-2,3.728017569E0
9.747604393E2,8.561519623E0,-2.775674164E-1,3.976871252E0
9.752604393E2,8.523234367E0,1.339980662E-1,2.411965132E0
9.757604393E2,1.004028416E1,-5.742774159E-2,5.407779217E0
9.762604393E2,9.375079155E0,-8.327022791E-1,3.981656790E0
9.767604393E2,9.260223389E0,-5.264210105E-1,4.168296814E0
9.772604393E2,7.604390144E0,-8.231309652E-1,3.833301783E0
9.777604393E2,9.212367058E0,-9.571290761E-2,3.527020693E0
9.782604393E2,1.100219822E1,-4.689932466E-1,5.312066078E0
9.787604393E2,1.011685371E1,-5.694918036E-1,2.636890650E0
9.792604393E2,9.734002113E0,-1.339980662E-1,3.823730469E0
9.797604393E2,9.365508080E0,-4.737788737E-1,4.421936035E0
9.802604393E2,7.724031448E0,-3.780659735E-1,3.952943087E0
9.807604393E2,9.035298347E0,-2.871387303E-1,4.584648132E0
9.812604393E2,8.575876236E0,-8.087740541E-1,6.388836384E0
9.817604393E2,9.609575272E0,-5.024927258E-1,6.364908218E0
9.822604393E2,1.142333508E1,-1.215553880E0,3.158525944E0
9.827604393E2,8.767302513E0,-7.944171429E-1,3.426522017E0
9.832604393E2,7.944170952E0,-2.440679073E-1,2.038684845E0
9.837604393E2,9.355937004E0,-8.327022791E-1,3.938585997E0
9.842604393E2,9.097511292E0,-6.412764788E-1,3.699303865E0
9.847604393E2,8.580661774E0,-6.843472719E-1,3.665804386E0
9.852604393E2,8.906085968E0,-7.226324677E-1,3.378665686E0
9.857604393E2,8.800801277E0,-7.752745152E-1,5.187639713E0
9.862604393E2,9.198010445E0,-5.407779217E-1,4.206582069E0
9.867604393E2,8.298309326E0,-6.508477330E-1,6.044270039E0
9.872604393E2,9.035298347E0,-4.785645306E-1,4.594219685E0
9.877604393E2,8.767302513E0,-1.325623751E0,3.732803345E0
9.882604393E2,9.652647018E0,-9.332008362E-1,8.087740541E-1
9.887604393E2,9.796216011E0,-1.641476393E0,1.493121386E0
9.892604393E2,9.777072906E0,-1.588834286E0,1.095912814E0
9.897604393E2,9.724431038E0,-1.450050473E0,9.523434043E-1
9.902604393E2,9.887143135E0,-1.392622828E0,4.307080805E-1
9.907604393E2,1.004028416E1,-1.215553880E0,2.871387079E-2
9.912604393E2,9.418149948E0,-1.368694544E0,1.378265858E0
9.917604393E2,1.012164021E1,-1.172483087E0,9.714859724E-1
9.922604393E2,9.284152031E0,-2.258824587E0,-2.775674164E-1
9.927604393E2,9.542576790E0,-2.383251429E0,6.364908218E-1
9.932604393E2,9.896714211E0,-2.368894339E0,1.339980662E-1
9.937604393E2,9.260223389E0,-2.258824587E0,6.221338734E-2
9.942604393E2,9.150154114E0,-2.636890650E0,4.594219327E-1
9.947604393E2,9.322437286E0,-3.455235958E0,8.422735929E-1
9.952604393E2,9.466006279E0,-2.919243574E0,6.221339107E-1
9.957604393E2,9.399007797E0,-2.694318295E0,1.387837082E-1
9.962604393E2,9.934999466E0,-2.694318295E0,6.412764788E-1
9.967604393E2,8.767302513E0,-2.775674343E0,7.704889178E-1
9.972604393E2,9.604789734E0,-2.914458036E0,4.929214716E-1
9.977604393E2,1.050449181E1,-3.507878065E0,2.249253243E-1
9.982604393E2,9.322437286E0,-9.954141974E-1,4.259224236E-1
9.987604393E2,9.920642853E0,-8.709874153E-1,9.906286001E-1
9.992604393E2,9.556933403E0,-3.206382394E-1,9.619147182E-1
9.997604393E2,9.614361763E0,-4.546363056E-1,1.124626637E0
1.000260439E3,9.853643417E0,-1.244267747E-1,1.249053478E0
1.000760439E3,9.700503349E0,1.435693651E-1,3.589234054E-1
1.001260439E3,9.695717812E0,1.052841991E-1,8.374879360E-1
1.001760439E3,9.647860527E0,9.523434043E-1,6.173482537E-1
1.002260439E3,9.308079720E0,-2.105683982E-1,-3.014956415E-1
1.002760439E3,9.317651749E0,-5.264209956E-2,5.407779217E-1
1.003260439E3,9.528220177E0,1.531406492E-1,3.876372576E-1
1.003760439E3,1.019342422E1,-7.178468257E-2,9.619147182E-1
1.004260439E3,1.049491978E1,-1.148554832E-1,1.512263894E0
1.004760439E3,9.317651749E0,-2.727817893E-1,9.188438654E-1
1.005260439E3,9.915857315E0,-2.105683982E-1,1.440479279E0
1.005760439E3,9.628718376E0,-1.215553880E0,1.387837082E-1
1.006260439E3,9.777072906E0,-1.349551916E0,1.464407444E0
1.006760439E3,9.824930191E0,-1.162911773E0,-3.684946895E-1
1.007260439E3,9.389435768E0,-1.282552958E0,1.186840057E0
1.007760439E3,1.013121128E1,-2.019542217E0,4.211367965E-1
1.008260439E3,9.571290970E0,-2.124826431E0,2.344966233E-1
1.008760439E3,9.714859962E0,-2.459821701E0,2.679961324E-1
1.009260439E3,9.528220177E0,-3.330809116E0,1.028913736E0
1.009760439E3,9.719645500E0,-3.129812002E0,7.465606928E-1
1.010260439E3,9.135796547E0,-2.952743053E0,1.349551916E0
1.010760439E3,9.001798630E0,-2.928814888E0,9.954141974E-1
1.011260439E3,9.604789734E0,-3.125026464E0,5.647061467E-1
1.011760439E3,9.231510162E0,-3.292523861E0,5.647061467E-1
1.012260439E3,9.379864693E0,-3.206382275E0,8.997012973E-1
1.012760439E3,9.714859962E0,-5.120640397E-1,5.359922647E-1
1.013260439E3,9.973284721E0,-9.619147182E-1,7.465606928E-1
1.013760439E3,9.102297783E0,-1.071984529E0,5.982056856E-1
1.014260439E3,1.011685371E1,-1.148554921E0,6.269195080E-1
1.014760439E3,9.513862610E0,-1.196411371E0,3.302095234E-1
1.015260439E3,9.413364410E0,-1.086341500E0,9.332008362E-1
1.015760439E3,1.019820976E1,-1.335195065E0,5.120640397E-1
1.016260439E3,9.245866776E0,-8.805587292E-1,8.805587292E-1
1.016760439E3,1.086820030E1,-1.258624673E0,5.982056856E-1
1.017260439E3,9.312865257E0,-9.762716293E-1,6.747759581E-1
1.017760439E3,1.019820976E1,-1.057627559E0,7.226324677E-1
1.018260439E3,9.954142570E0,-1.363908887E0,4.546363056E-1
1.018760439E3,9.245866776E0,-1.076770186E0,8.805587292E-1
1.019260439E3,1.020299530E1,-1.268195987E0,4.259224236E-1
1.019760439E3,9.001798630E0,-9.188438654E-1,9.427721500E-1
1.020260439E3,1.030827999E1,-1.282552958E0,5.264210105E-1
1.020760439E3,8.997013092E0,-1.024128079E0,7.752745152E-1
1.021260439E3,9.987641335E0,-1.325623751E0,5.503492355E-1
1.021760439E3,9.217152596E0,-9.427721500E-1,9.379864931E-1
1.022260439E3,1.037049294E1,-1.301695466E0,5.264210105E-1
1.022760439E3,9.260223389E0,-9.571290612E-1,8.805587292E-1
1.023260439E3,1.048534870E1,-1.354337573E0,4.833501875E-1
1.023760439E3,9.260223389E0,-9.475577474E-1,7.465606928E-1
1.024260439E3,1.053799057E1,-1.316052437E0,5.359922647E-1
1.024760439E3,9.394221306E0,-9.858429432E-1,7.704889178E-1
1.025260439E3,1.051884842E1,-1.292124271E0,4.642075896E-1
1.025760439E3,9.470791817E0,-9.379864931E-1,8.327022791E-1
1.026260439E3,1.060020447E1,-1.292124271E0,4.211367965E-1
1.026760439E3,9.346364975E0,-1.024128079E0,7.848458290E-1
1.027260439E3,1.044227791E1,-1.296909928E0,4.977070987E-1
1.027760439E3,9.801001549E0,-6.460621357E-1,8.327022791E-1
1.028260439E3,1.014556789E1,1.244267747E-1,7.513462901E-1
1.028760439E3,9.805787086E0,5.551348329E-1,2.632105052E-1
1.029260439E3,9.925428391E0,6.699903309E-2,7.704889178E-1
