"Time (s)","Gyroscope x (rad/s)","Gyroscope y (rad/s)","Gyroscope z (rad/s)"
2.700826130E-1,-7.171552777E-1,-6.093376279E-1,1.527161989E-2
7.742459460E-1,-8.628465235E-2,2.727511227E-1,2.347247899E-1
1.278409644E0,-8.616247773E-1,-2.109316111E0,6.742420197E-1
1.782573915E0,-7.386882305E-1,-1.398116708E0,7.142536640E-1
2.286738550E0,2.260199636E-1,-5.119046569E-1,1.907425225E-1
2.790903446E0,-1.262962967E-1,1.710421443E-1,1.768453568E-1
3.295068498E0,9.101885557E-2,-2.643517256E-1,4.734202102E-2
3.799233498E0,2.580903657E-2,-1.221729559E-3,5.329795182E-2
4.303398498E0,2.076940238E-2,1.237001196E-1,1.053741761E-2
4.807563446E0,3.543015569E-2,-4.001164436E-2,4.123337101E-3
5.311728394E0,-2.993237413E-2,-4.642572254E-2,8.704823442E-3
5.815893342E0,-1.069013402E-2,1.007926930E-2,-2.275471389E-2
6.320058290E0,5.345067009E-3,-1.511890348E-2,-1.191186346E-2
6.824223133E0,1.832594350E-2,-6.261364091E-3,-9.315688163E-3
7.328387873E0,5.650499370E-3,-1.588248461E-2,-3.787361458E-2
7.832552456E0,-2.748891525E-2,1.298087649E-2,1.588248461E-2
8.336716831E0,-3.512472380E-3,-1.084284950E-2,-3.252854943E-2
8.840881050E0,-1.569922417E-1,1.898262352E-1,-1.053741723E-1
9.345045217E0,-3.894263133E-2,2.412915789E-2,6.108647678E-3
9.849209383E0,1.450803876E-2,5.283980444E-2,1.021671370E-1
1.035337355E1,1.353065521E-1,-1.812741160E-1,-1.006399691E-1
1.085753782E1,-3.252854943E-2,-3.405570984E-2,-8.918625861E-2
1.136170230E1,3.665188793E-3,-1.404988952E-2,-3.069595434E-2
1.186586688E1,-3.802633286E-2,-2.076940238E-2,-1.771507785E-2
1.237003147E1,-1.130099874E-2,-7.101303339E-2,-1.572976820E-2
1.287419621E1,2.809977904E-2,-8.399390429E-2,-2.183841541E-2
1.337836100E1,6.994401664E-2,-1.102610901E-1,-5.497782957E-3
1.388252584E1,8.735366166E-2,-1.117882580E-1,-3.298669681E-2
1.438669063E1,8.261945844E-2,-1.233946830E-1,-2.626718581E-2
1.489085537E1,1.146898642E-1,-1.366809905E-1,-5.207622424E-2
1.539501996E1,1.409570426E-1,-1.508836001E-1,-5.650499091E-2
1.589918444E1,1.333212405E-1,-1.594357044E-1,-3.634645417E-2
1.640334876E1,1.215620935E-1,-1.600465775E-1,-2.489273995E-2
1.690751303E1,1.116355360E-1,-1.463021189E-1,-2.244928107E-2
1.741167725E1,1.434005052E-1,-1.169806048E-1,1.481347065E-2
1.791584142E1,1.879936308E-1,3.497200832E-2,5.070177838E-2
1.842000542E1,-2.160934210E-1,-2.458730713E-2,1.878409237E-1
1.892416928E1,-8.399390616E-3,2.492328286E-1,2.626718581E-1
1.942833298E1,6.017018110E-2,-2.061668597E-2,-2.764163166E-2
1.993249647E1,8.613193035E-2,8.170316368E-2,-6.276635826E-2
2.043665990E1,-3.527744114E-2,7.589995116E-2,-1.343902480E-2
2.094082339E1,-5.818486959E-2,9.758564830E-2,3.145953640E-2
2.144498683E1,-6.902772188E-2,1.308777779E-1,2.901607659E-3
2.194915006E1,-3.940077871E-2,1.211039424E-1,-8.399390616E-3
2.245331313E1,-3.054323979E-2,9.147699922E-2,-2.626718581E-2
2.295747605E1,-5.910116807E-2,1.516471803E-1,3.069595434E-2
2.346163881E1,-2.703076601E-2,1.151480079E-1,1.038470119E-2
2.396580152E1,-5.955931544E-2,1.134681329E-1,1.695149764E-2
2.446996418E1,-7.941242307E-2,1.029307172E-1,1.725693047E-2
2.497412673E1,-5.879573524E-2,1.075121984E-1,1.527161989E-2
2.547828918E1,-5.345066637E-2,9.636391699E-2,1.649334840E-2
2.598245152E1,-2.626718581E-2,7.498364896E-2,1.893680729E-2
2.648661381E1,-4.978547990E-2,5.665770918E-2,-1.832594397E-3
2.699077595E1,-2.809977904E-2,-3.787361458E-2,-2.809977904E-2
2.749493798E1,1.374445739E-3,-1.221729536E-2,-1.496618707E-2
2.799909996E1,-3.145953640E-2,-3.726275265E-2,-2.626718581E-2
2.850326173E1,2.092211880E-2,2.901607752E-2,-1.710421406E-2
2.900742355E1,3.039052337E-2,3.970621154E-3,-2.031125315E-2
2.951158517E1,2.901607659E-3,-8.246674202E-3,7.024944760E-3
3.001574668E1,2.138026757E-3,-7.177661173E-3,-1.206457894E-2
3.051990813E1,3.207040019E-3,2.138026757E-3,-7.635809947E-3
3.102406944E1,-1.496618707E-2,2.290742937E-3,5.345067009E-3
3.152823069E1,1.206457894E-2,-8.857538924E-3,-9.468403645E-3
3.203239188E1,3.054323897E-4,3.970621154E-3,1.252272818E-2
3.253655308E1,-1.191186346E-2,2.748891478E-3,-6.108647678E-3
3.304071418E1,1.374445739E-3,4.276053514E-3,-0.000000000E0
3.354487527E1,-4.886918236E-3,3.512472380E-3,-7.330377586E-3
3.404903631E1,-1.527161949E-4,1.374445762E-2,1.725693047E-2
3.455319720E1,1.191186346E-2,1.450803876E-2,-3.268126398E-2
3.505735793E1,-1.130099874E-2,2.031125315E-2,2.138026757E-3
3.556151855E1,6.261364091E-3,9.926552884E-3,-1.206457894E-2
3.606567912E1,6.108647794E-4,1.679878100E-3,-2.138026757E-3
3.656983959E1,-2.901607659E-3,-1.221729559E-3,-6.108647794E-4
3.707400001E1,-1.237001177E-2,6.108647678E-3,-2.596175298E-3
3.757816032E1,-2.596175298E-3,8.704823442E-3,-3.054323897E-4
3.808232053E1,1.527161920E-3,-1.832594397E-3,-0.000000000E0
3.858648063E1,-5.039634649E-3,2.748891478E-3,1.985310577E-3
3.909064045E1,1.328630932E-2,1.084284950E-2,-1.206457894E-2
3.959480056E1,-2.244928107E-2,4.642572254E-2,-9.010255337E-3
4.009896082E1,9.315688163E-3,6.017018110E-2,-1.114828233E-2
4.060312144E1,-9.315688163E-3,9.773836471E-3,-1.130099874E-2
4.110728259E1,2.321286127E-2,-3.665188793E-3,-1.740964688E-2
4.161144415E1,-3.665188793E-3,1.954767294E-2,-2.748891478E-3
4.211560592E1,-1.725693047E-2,5.192350596E-2,-2.519817278E-2
4.261976785E1,3.817904741E-2,-3.695731983E-2,-4.260781780E-2
4.312392993E1,-1.679878123E-2,4.276053607E-2,1.069013379E-3
4.362809233E1,2.596175298E-2,-2.321286127E-2,-3.008509055E-2
4.413225499E1,-5.803215317E-3,-4.886918236E-3,1.359174121E-2
4.463641816E1,-1.679878100E-3,-1.343902480E-2,-5.955931731E-3
4.514058217E1,1.328630932E-2,-8.399390616E-3,1.771507785E-2
4.564474707E1,9.162971750E-3,-1.282816008E-2,-2.947422490E-2
4.614891264E1,-5.497782957E-3,1.710421406E-2,1.481347065E-2
4.665307868E1,5.955931731E-3,-1.160643063E-2,-9.621120058E-3
4.715724530E1,3.008509055E-2,-1.832594350E-2,-2.290742844E-2
4.766141223E1,-6.414080039E-3,-1.130099874E-2,-1.160643063E-2
4.816557931E1,-1.771507785E-2,1.221729559E-3,5.894844979E-2
4.866974655E1,3.527744114E-2,-3.375028074E-2,-4.367683083E-2
4.917391400E1,-1.206457894E-2,1.542433538E-2,1.023198478E-2
4.967808160E1,4.581485875E-3,-9.926552884E-3,4.123337101E-3
5.018224920E1,1.557705179E-2,-1.756236330E-2,-3.359756200E-3
5.068641670E1,-4.886918236E-3,-7.788525894E-3,9.926552884E-3
5.119058415E1,2.000582218E-2,9.162971750E-3,-1.603520103E-2
5.169475155E1,1.466075517E-2,-3.252854943E-2,1.954767294E-2
5.219891910E1,-9.468403645E-3,-2.825249545E-2,-3.481929377E-2
5.270308676E1,-1.878409274E-2,1.038470119E-2,6.688969582E-2
5.320725447E1,2.260199748E-2,-2.428187430E-2,-3.390299529E-2
5.371142217E1,-2.596175298E-3,1.771507785E-2,1.695149764E-2
5.421558978E1,2.825249545E-2,-3.497200832E-2,-3.573558852E-2
5.471975728E1,8.093958721E-3,-7.635809947E-3,3.817904973E-3
5.522392457E1,-4.886918236E-3,-1.023198478E-2,1.099556591E-2
5.572809170E1,-4.581485991E-4,-7.483093534E-3,-3.512472380E-3
5.623225858E1,7.483093534E-3,-6.719512399E-3,3.970621154E-3
5.673642551E1,2.107483521E-2,-4.581485875E-3,1.679878100E-3
5.724059259E1,2.290742844E-2,-2.290742844E-2,-1.282816008E-2
5.774475983E1,1.725693047E-2,-1.542433538E-2,-1.985310577E-3
5.824892743E1,7.024944760E-3,-2.015853859E-2,-5.803215317E-3
5.875309545E1,-3.741546720E-2,1.985310577E-2,3.970621154E-2
5.925726410E1,-2.626718581E-2,3.344484791E-2,3.817904741E-2
5.976143353E1,1.450803876E-2,-3.833176568E-2,-3.283398226E-2
6.026560353E1,2.275471389E-2,-1.618791744E-2,-6.566796452E-3
6.076977415E1,1.634063199E-2,-8.704823442E-3,-1.328630932E-2
6.127394519E1,1.359174121E-2,-2.840521187E-2,-2.092211880E-2
6.177811676E1,3.970621154E-2,-4.046979174E-2,-3.298669681E-2
6.228228868E1,2.153298259E-2,-5.558869615E-2,-1.069013379E-3
6.278646098E1,-7.208204269E-2,1.395826042E-1,9.086613357E-2
6.329063353E1,2.382372692E-2,-2.244928107E-2,-2.367101051E-2
6.379480629E1,1.450803876E-2,-4.734201822E-3,-2.886336111E-2
6.429897941E1,-4.886918236E-3,-2.214384824E-2,-1.099556591E-2
6.480315290E1,2.382372692E-2,-3.420842811E-2,-2.275471389E-2
6.530732733E1,3.817904973E-3,-9.621120058E-3,4.123337101E-3
6.581150269E1,-8.857538924E-3,-4.276053514E-3,-3.970621154E-3
6.631567884E1,-8.399390616E-3,-3.359756200E-3,1.527161949E-4
6.681985525E1,-1.618791744E-2,1.832594397E-3,3.268126398E-2
6.716447535E1,-2.098320574E-1,2.809978127E-1,0.000000000E0
6.718548269E1,-2.115119249E-1,4.227184355E-1,3.089448512E-1
6.768548269E1,-1.560759544E-1,3.426951468E-1,1.432477981E-1
6.818548269E1,-7.055488229E-2,2.641990185E-1,1.379027218E-1
6.868548269E1,1.970038936E-2,1.432477981E-1,2.124282271E-1
6.918548269E1,-3.436114267E-2,1.527161989E-2,-2.061668634E-1
6.968548269E1,-7.192932814E-2,1.469129771E-1,-1.838703007E-1
7.018548269E1,2.306014486E-2,9.621120058E-3,-1.133154184E-1
7.068548269E1,-5.345067009E-3,-3.019199073E-1,-1.368337125E-1
7.118548269E1,-7.742711157E-2,-6.261364091E-3,1.527161989E-2
7.168548269E1,-2.293797284E-1,5.955931544E-1,3.265072107E-1
7.218548269E1,4.428769648E-2,-2.052505612E-1,-6.688969582E-2
7.268548269E1,2.916879393E-2,1.261435747E-1,7.040216774E-2
7.318548269E1,-6.246092543E-2,-1.783725172E-1,-4.444041103E-2
7.368548269E1,1.298087686E-1,-5.146535859E-2,6.291907281E-2
7.418548269E1,-4.291325063E-2,1.065959036E-1,2.260199748E-2
7.468548269E1,1.334739476E-1,2.672533318E-2,5.497783050E-2
7.518548269E1,2.428187430E-2,1.791360974E-1,-6.765327603E-2
7.568548269E1,4.673115537E-2,2.026543915E-1,-4.948004708E-2
7.618548269E1,7.345648855E-2,-1.417206228E-1,-2.687804960E-2
7.668548269E1,-2.930623889E-1,6.421716213E-1,4.963276163E-2
7.718548269E1,2.813032269E-1,4.382954910E-2,8.872810751E-2
7.768548269E1,-2.110537887E-1,-5.681042373E-2,-1.198822111E-1
7.818548269E1,-3.481929377E-2,-3.756818548E-2,1.985310577E-2
7.868548269E1,-3.023780696E-2,-8.063415438E-2,-4.092793912E-2
7.918548269E1,6.856957078E-2,-1.832594350E-2,6.352993846E-2
7.968548269E1,-7.788525894E-3,1.672242284E-1,7.070759684E-2
8.018548269E1,-7.666353136E-2,1.017089859E-1,-3.848448023E-2
8.068548269E1,-9.468403645E-3,4.062250629E-2,-1.710421406E-2
8.118548269E1,7.635809947E-3,5.772672221E-2,2.764163166E-2
8.168548269E1,-1.235474050E-1,-1.404988952E-2,-5.070177838E-2
8.218548269E1,1.041524485E-1,-1.062904745E-1,-9.162971377E-2
8.268548269E1,7.024945319E-2,5.039634556E-2,-4.291325063E-2
8.318548269E1,7.040216774E-2,3.665188793E-3,1.798996776E-1
8.368548269E1,3.086394370E-1,-1.511890292E-1,3.382663727E-1
8.418548269E1,9.605848789E-2,-4.793761373E-1,-2.229656428E-1
8.468548269E1,8.093958721E-3,-5.345066637E-2,-5.681042373E-2
8.518548269E1,3.283398226E-2,-8.765909821E-2,3.665188793E-3
8.568548269E1,-7.941242307E-3,-7.086031139E-2,4.520399496E-2
8.618548269E1,-1.643226296E-1,3.188714087E-1,-1.557705253E-1
8.668548269E1,-3.168860972E-1,2.930623889E-1,-3.959930837E-1
8.718548269E1,2.197586000E-1,3.321577311E-1,6.429351866E-2
8.768548269E1,-2.214384824E-2,-1.088866442E-1,-7.987056673E-2
8.818548269E1,-1.832594397E-3,-1.970038936E-2,1.374445762E-2
8.868548269E1,1.346956789E-1,-1.942549944E-1,7.192932814E-2
8.918548269E1,7.177661173E-3,-1.568395346E-1,-1.898262352E-1
8.968548269E1,-8.903354406E-2,-1.753181964E-1,-9.056070447E-2
9.018548269E1,1.175914705E-2,7.651081681E-2,4.825831577E-2
9.068548269E1,6.902772188E-2,3.958403766E-1,1.742491722E-1
9.118548269E1,-5.513054505E-2,2.422078848E-1,-9.453132749E-2
9.168548269E1,-1.198822111E-1,-6.154462695E-2,-4.535670951E-2
9.218548269E1,-9.911280870E-2,1.945604384E-1,-1.927278340E-1
9.268548269E1,-5.039634649E-3,-6.566796452E-2,3.604102135E-2
9.318548269E1,1.649334840E-2,-3.344484791E-2,-4.978547990E-2
9.368548269E1,1.736383140E-1,1.637117565E-1,1.627954692E-1
9.418548269E1,-1.267544460E-2,1.771507785E-2,6.108647957E-2
9.468548269E1,5.558869615E-2,-7.391463965E-2,6.414080411E-2
9.518548269E1,8.292489499E-2,-2.973384261E-1,-1.838703007E-1
9.568548269E1,-4.990765154E-1,4.703658819E-2,-4.375318885E-1
9.618548269E1,5.650499370E-3,-1.166751757E-1,-1.679878100E-3
9.668548269E1,1.450803876E-2,1.319467872E-1,-2.535088919E-2
9.718548269E1,-9.330959618E-2,1.533270627E-1,-8.429934084E-2
9.768548269E1,-1.495091617E-1,4.276053514E-3,-5.146535859E-2
9.818548269E1,5.115992576E-2,6.291907281E-2,5.558869615E-2
9.868548269E1,-4.276053514E-3,-7.024945319E-2,2.504545636E-2
9.918548269E1,8.659008145E-2,-7.589995116E-2,1.514944583E-1
9.968548269E1,8.903354406E-2,-1.553123742E-1,2.339612097E-1
1.001854827E2,9.224057943E-2,1.206457894E-2,7.696896046E-2
1.006854827E2,8.414662629E-2,1.598938555E-1,-7.345648855E-2
1.011854827E2,4.550942481E-1,-4.734202027E-1,1.815795600E-1
1.016854827E2,-2.611446939E-2,-1.267544460E-2,-1.802051067E-2
1.021854827E2,5.681042373E-2,-3.410152495E-1,7.040216774E-2
1.026854827E2,-1.618791670E-1,-4.147771895E-1,8.460476995E-2
1.031854827E2,-2.244928107E-2,3.988946974E-1,3.871355653E-1
1.036854827E2,6.307178736E-2,2.400698513E-1,7.238747925E-2
1.041854827E2,-1.817322671E-1,1.912006736E-1,4.948004708E-2
1.046854827E2,-1.983783394E-1,1.908952445E-1,3.298669681E-2
1.051854827E2,1.765399277E-1,-3.654498458E-1,7.483093441E-2
1.056854827E2,-4.341721535E-1,-1.006094337E0,-2.825249545E-2
1.061854827E2,-3.955349326E-2,9.071341902E-2,1.007926930E-2
1.066854827E2,-6.337722391E-2,-5.146535859E-2,-2.443459071E-2
1.071854827E2,5.024362728E-2,6.872228812E-3,-3.481929377E-2
1.076854827E2,6.307178736E-2,6.658425927E-2,-4.612028971E-2
1.081854827E2,-2.000582218E-2,-2.199113183E-2,2.260199748E-2
1.086854827E2,-7.223475724E-2,6.719512492E-2,2.290742937E-3
1.091854827E2,-5.054906011E-2,1.298087649E-2,2.153298259E-2
1.096854827E2,-4.581485689E-2,3.008509055E-2,-3.588830680E-2
1.101854827E2,5.650499370E-3,7.330377586E-3,-1.634063199E-2
1.106854827E2,-7.024945319E-2,5.803215504E-2,-4.276053514E-3
1.111854827E2,6.261363626E-2,6.459894776E-2,-4.077522457E-2
1.116854827E2,-7.315105945E-2,6.795870513E-2,2.687804960E-2
1.121854827E2,4.474584386E-2,-5.268708616E-2,-3.756818548E-2
1.126854827E2,-7.254019380E-2,9.621120058E-3,-1.389717404E-2
1.131854827E2,-1.237001177E-2,-9.865466505E-2,-7.788525894E-3
1.136854827E2,-1.634063199E-2,1.383608729E-1,3.420842811E-2
1.141854827E2,-4.627300799E-2,4.382954910E-2,-3.390299529E-2
1.146854827E2,4.825831577E-2,1.073594838E-1,3.420842811E-2
1.151854827E2,-5.268708616E-2,7.773254067E-2,6.261363626E-2
1.156854827E2,3.130681813E-2,7.513637096E-2,7.238747925E-2
1.161854827E2,-1.679878100E-3,2.840521187E-2,-2.855792828E-2
1.166854827E2,3.970621154E-3,1.620318890E-1,4.428769462E-3
1.171854827E2,1.525634825E-1,3.475820720E-1,1.498145908E-1
1.176854827E2,-1.269071549E-1,9.529490769E-2,-1.067486182E-1
1.181854827E2,-7.544180006E-2,-2.237292230E-1,-6.887500733E-2
1.186854827E2,-1.855501831E-1,5.009090900E-1,-2.565632015E-2
1.191854827E2,-2.244928107E-2,2.654207349E-1,4.092793912E-2
1.196854827E2,-2.382372692E-2,-2.565632015E-2,-8.246674202E-3
1.201854827E2,-3.527744114E-2,5.207622424E-2,-1.710421406E-2
1.206854827E2,-1.557705179E-2,5.070177838E-2,3.420842811E-2
1.211854827E2,-3.313941509E-2,2.306014486E-2,2.443459118E-3
1.216854827E2,-5.100720748E-2,-2.321286127E-2,2.107483521E-2
1.221854827E2,1.968511790E-1,-2.412915789E-2,-1.035415828E-1
1.226854827E2,6.123919412E-2,1.337793916E-1,-3.222311661E-2
1.231854827E2,-2.947422490E-2,-9.376774728E-2,1.221729536E-2
1.236854827E2,-1.924224012E-2,5.375609919E-2,1.432477981E-1
1.241854827E2,-2.338084877E-1,-2.412915789E-2,8.368847519E-2
1.246854827E2,-2.596175298E-3,-4.147771895E-1,-1.710421406E-2
1.251854827E2,-5.192350596E-2,-4.740310609E-1,-2.272416949E-1
1.256854827E2,1.908952370E-2,-1.466075517E-2,3.856084049E-1
1.261854827E2,-1.708894223E-1,5.681042373E-2,5.528326333E-2
1.266854827E2,-4.321868345E-2,5.337430835E-1,1.478292793E-1
1.271854827E2,1.496618707E-2,1.496618688E-1,-3.604102135E-2
1.276854827E2,-1.516471803E-1,1.084284950E-2,1.293506175E-1
1.281854827E2,-1.690568328E-1,4.276053514E-3,1.343902480E-2
1.286854827E2,2.306014486E-2,1.647807807E-1,-2.626718581E-2
1.291854827E2,4.428769462E-3,4.978547990E-1,3.233001828E-1
1.296854827E2,-3.625482321E-1,-2.477056682E-1,1.453858167E-1
1.301854827E2,4.581485689E-2,2.107483521E-2,-1.380554438E-1
1.306854827E2,-4.046979174E-2,4.734201822E-3,-2.168569900E-2
1.311854827E2,-4.413498193E-2,1.893680729E-2,1.328630932E-2
1.316854827E2,-1.887572110E-1,6.841685623E-2,4.917461425E-2
1.321854827E2,-1.409570426E-1,1.334739476E-1,4.459312931E-2
1.326854827E2,-8.246674202E-3,8.704823256E-2,1.498145908E-1
1.331854827E2,-2.138026757E-3,6.841685623E-2,-7.177661359E-2
1.336854827E2,8.002328873E-2,-3.069595434E-2,-5.039634649E-3
1.341854827E2,6.062832847E-2,-3.543015718E-1,6.719512399E-3
1.346854827E2,-5.955931731E-3,-2.367101051E-2,2.871064469E-2
1.351854827E2,3.054323897E-4,-1.230892539E-1,-3.756818548E-2
1.356854827E2,3.970621154E-3,-1.667660922E-1,-5.299251899E-2
1.361854827E2,1.939495653E-2,-2.309068888E-1,1.450803876E-2
1.366854827E2,1.939495653E-2,-2.309068888E-1,1.450803876E-2
1.371854827E2,1.939495653E-2,-2.309068888E-1,1.450803876E-2
1.376854827E2,1.939495653E-2,-2.309068888E-1,1.450803876E-2
1.381854827E2,1.939495653E-2,-2.309068888E-1,1.450803876E-2
1.386854827E2,1.939495653E-2,-2.309068888E-1,1.450803876E-2
1.391854827E2,1.939495653E-2,-2.309068888E-1,1.450803876E-2
1.396854827E2,1.939495653E-2,-2.309068888E-1,1.450803876E-2
1.401854827E2,1.939495653E-2,-2.309068888E-1,1.450803876E-2
1.406854827E2,1.939495653E-2,-2.309068888E-1,1.450803876E-2
1.411854827E2,1.939495653E-2,-2.309068888E-1,1.450803876E-2
1.416854827E2,1.939495653E-2,-2.309068888E-1,1.450803876E-2
1.421854827E2,1.939495653E-2,-2.309068888E-1,1.450803876E-2
1.426854827E2,1.939495653E-2,-2.309068888E-1,1.450803876E-2
1.431854827E2,1.939495653E-2,-2.309068888E-1,1.450803876E-2
1.436854827E2,1.939495653E-2,-2.309068888E-1,1.450803876E-2
1.441854827E2,1.939495653E-2,-2.309068888E-1,1.450803876E-2
1.446854827E2,1.939495653E-2,-2.309068888E-1,1.450803876E-2
1.451854827E2,1.939495653E-2,-2.309068888E-1,1.450803876E-2
1.456854827E2,1.939495653E-2,-2.309068888E-1,1.450803876E-2
1.461854827E2,1.939495653E-2,-2.309068888E-1,1.450803876E-2
1.466854827E2,1.939495653E-2,-2.309068888E-1,1.450803876E-2
1.471854827E2,1.939495653E-2,-2.309068888E-1,1.450803876E-2
1.476854827E2,1.939495653E-2,-2.309068888E-1,1.450803876E-2
1.481854827E2,1.939495653E-2,-2.309068888E-1,1.450803876E-2
1.486854827E2,1.939495653E-2,-2.309068888E-1,1.450803876E-2
1.491854827E2,1.939495653E-2,-2.309068888E-1,1.450803876E-2
1.496854827E2,1.939495653E-2,-2.309068888E-1,1.450803876E-2
1.501854827E2,1.939495653E-2,-2.309068888E-1,1.450803876E-2
1.506854827E2,1.939495653E-2,-2.309068888E-1,1.450803876E-2
1.511854827E2,1.939495653E-2,-2.309068888E-1,1.450803876E-2
1.516854827E2,1.939495653E-2,-2.309068888E-1,1.450803876E-2
1.521854827E2,1.939495653E-2,-2.309068888E-1,1.450803876E-2
1.526854827E2,1.939495653E-2,-2.309068888E-1,1.450803876E-2
1.531854827E2,1.939495653E-2,-2.309068888E-1,1.450803876E-2
1.536854827E2,1.939495653E-2,-2.309068888E-1,1.450803876E-2
1.541854827E2,1.939495653E-2,-2.309068888E-1,1.450803876E-2
1.546854827E2,1.939495653E-2,-2.309068888E-1,1.450803876E-2
1.551854827E2,1.939495653E-2,-2.309068888E-1,1.450803876E-2
1.556854827E2,1.939495653E-2,-2.309068888E-1,1.450803876E-2
1.561854827E2,1.939495653E-2,-2.309068888E-1,1.450803876E-2
1.566854827E2,1.939495653E-2,-2.309068888E-1,1.450803876E-2
1.571854827E2,1.939495653E-2,-2.309068888E-1,1.450803876E-2
1.576854827E2,1.939495653E-2,-2.309068888E-1,1.450803876E-2
1.581854827E2,1.939495653E-2,-2.309068888E-1,1.450803876E-2
1.586854827E2,1.939495653E-2,-2.309068888E-1,1.450803876E-2
1.591854827E2,1.939495653E-2,-2.309068888E-1,1.450803876E-2
1.596854827E2,1.939495653E-2,-2.309068888E-1,1.450803876E-2
1.601854827E2,1.939495653E-2,-2.309068888E-1,1.450803876E-2
1.606854827E2,1.939495653E-2,-2.309068888E-1,1.450803876E-2
1.611854827E2,1.939495653E-2,-2.309068888E-1,1.450803876E-2
1.616854827E2,1.939495653E-2,-2.309068888E-1,1.450803876E-2
1.621854827E2,1.939495653E-2,-2.309068888E-1,1.450803876E-2
1.626854827E2,1.939495653E-2,-2.309068888E-1,1.450803876E-2
1.631854827E2,1.939495653E-2,-2.309068888E-1,1.450803876E-2
1.636854827E2,1.939495653E-2,-2.309068888E-1,1.450803876E-2
1.641854827E2,1.939495653E-2,-2.309068888E-1,1.450803876E-2
1.646854827E2,8.231402934E-2,-1.469129771E-1,-5.115992576E-2
1.651854827E2,3.985892609E-2,-3.772090003E-2,-3.894263133E-2
1.656854827E2,-3.359756200E-3,-2.901607752E-2,-4.016435891E-2
1.661854827E2,-3.069595434E-2,-2.474002354E-2,-1.893680729E-2
1.666854827E2,-1.175914705E-2,-2.916879393E-2,-2.611446939E-2
1.671854827E2,-1.114828233E-2,-7.483093534E-3,1.374445739E-3
1.676854827E2,1.374445739E-3,-1.221729536E-2,6.108647794E-4
1.681854827E2,6.261364091E-3,-2.290742937E-3,-8.552107029E-3
1.686854827E2,-6.719512399E-3,-7.788525894E-3,-4.276053514E-3
1.691854827E2,-1.069013379E-3,3.054323897E-4,1.527161949E-4
1.696854827E2,-6.108647794E-4,-9.926552884E-3,1.527161949E-4
1.701854827E2,1.527161949E-4,-7.330377586E-3,-1.252272818E-2
1.706854827E2,1.420260593E-2,-2.840521187E-2,-1.069013402E-2
1.711854827E2,3.054323897E-4,4.123337101E-3,3.512472380E-3
1.716854827E2,7.147117704E-2,-9.010255337E-2,1.006399691E-1
1.721854827E2,1.832594350E-2,2.122755162E-2,6.108647794E-4
1.726854827E2,-2.031125315E-2,2.382372692E-2,-8.613193035E-2
1.731854827E2,-4.902189970E-2,-2.015853859E-2,-3.817904741E-2
1.736854827E2,-2.840521187E-2,7.819069177E-2,-6.658425927E-2
1.741854827E2,-1.527161920E-3,-1.985310577E-2,2.687804960E-2
1.746854827E2,-1.679878123E-2,7.330377586E-3,-2.000582218E-2
1.751854827E2,7.330377586E-3,-2.901607659E-3,2.260199748E-2
1.756854827E2,-1.695149764E-2,1.649334840E-2,-4.642572254E-2
1.761854827E2,1.328630932E-2,-4.031707719E-2,3.970621154E-2
1.766854827E2,-9.621120058E-3,-2.306014486E-2,-2.626718581E-2
1.771854827E2,-2.138026804E-2,2.275471389E-2,-3.130681813E-2
1.776854827E2,1.374445739E-3,-3.207040019E-3,-2.657261863E-2
1.781854827E2,-1.007926930E-2,-2.092211880E-2,4.276053514E-3
1.786854827E2,1.374445739E-3,-4.581485875E-3,-1.298087649E-2
1.791854827E2,4.581485991E-4,9.315688163E-3,-2.993237413E-2
1.796854827E2,-6.414080039E-3,-1.893680729E-2,-1.328630932E-2
1.801854827E2,5.100720748E-2,9.773836471E-3,-1.863137633E-2
1.806854827E2,1.588248461E-2,-9.926552884E-3,1.007926930E-2
1.811854827E2,-3.207040019E-3,1.695149764E-2,1.145371422E-2
1.816854827E2,-1.542433538E-2,2.672533318E-2,-1.374445762E-2
1.821854827E2,-1.679878123E-2,4.199695215E-2,-5.955931731E-3
1.826854827E2,-1.527161989E-2,2.428187430E-2,-6.108647794E-4
1.831854827E2,-1.191186346E-2,4.581485875E-3,-3.970621154E-3
1.836854827E2,6.719512399E-3,9.926552884E-3,-2.626718581E-2
1.841854827E2,1.450803876E-2,-5.558869615E-2,-1.511890348E-2
1.846854827E2,-1.084284950E-2,-1.328630932E-2,6.108647794E-4
1.851854827E2,8.552107215E-2,-6.490438432E-2,-0.000000000E0
1.856854827E2,3.008509055E-2,-4.657844082E-2,1.832594397E-3
1.861854827E2,1.053741761E-2,-3.222311661E-2,6.108647794E-4
1.866854827E2,5.650499370E-3,-4.153880477E-2,3.084867075E-2
1.871854827E2,1.832594397E-3,-9.162971750E-3,-1.267544460E-2
1.876854827E2,4.581485875E-3,-8.093958721E-3,3.665188793E-3
1.881854827E2,-1.374445739E-3,-1.634063199E-2,7.177661173E-3
1.886854827E2,-3.054323897E-4,6.108647794E-4,2.580903657E-2
1.891854827E2,-2.993237413E-2,9.224057943E-2,5.406153202E-2
1.896854827E2,-1.007926930E-2,1.542433538E-2,4.199695215E-2
1.901854827E2,1.046105921E-1,-1.850920320E-1,4.337139800E-2
1.906854827E2,1.018617004E-1,3.665188793E-3,6.001746282E-2
1.911854827E2,-4.428769648E-2,1.374445739E-3,4.795288444E-1
1.916854827E2,-2.063195854E-1,-8.918625861E-2,-1.853974611E-1
1.921854827E2,-4.764745384E-2,1.325576603E-1,-1.420260668E-1
1.926854827E2,8.735366166E-2,-2.348775119E-1,3.268126398E-2
1.931854827E2,6.780599058E-2,-5.024362728E-2,-7.635809598E-4
1.936854827E2,-4.276053514E-3,6.185005978E-2,-4.581485991E-4
1.941854827E2,-3.075704277E-1,5.253437161E-1,-6.719512399E-3
1.946854827E2,-3.075704277E-1,5.253437161E-1,-6.719512399E-3
1.951854827E2,-3.075704277E-1,5.253437161E-1,-6.719512399E-3
1.956854827E2,-3.075704277E-1,5.253437161E-1,-6.719512399E-3
1.961854827E2,-3.075704277E-1,5.253437161E-1,-6.719512399E-3
1.966854827E2,-3.075704277E-1,5.253437161E-1,-6.719512399E-3
1.971854827E2,-3.075704277E-1,5.253437161E-1,-6.719512399E-3
1.976854827E2,-3.075704277E-1,5.253437161E-1,-6.719512399E-3
1.981854827E2,-3.075704277E-1,5.253437161E-1,-6.719512399E-3
1.986854827E2,-3.075704277E-1,5.253437161E-1,-6.719512399E-3
1.991854827E2,-3.075704277E-1,5.253437161E-1,-6.719512399E-3
1.996854827E2,-3.075704277E-1,5.253437161E-1,-6.719512399E-3
2.001854827E2,-3.075704277E-1,5.253437161E-1,-6.719512399E-3
2.006854827E2,-3.075704277E-1,5.253437161E-1,-6.719512399E-3
2.011854827E2,-3.075704277E-1,5.253437161E-1,-6.719512399E-3
2.016854827E2,-3.075704277E-1,5.253437161E-1,-6.719512399E-3
2.021854827E2,-3.075704277E-1,5.253437161E-1,-6.719512399E-3
2.026854827E2,-3.075704277E-1,5.253437161E-1,-6.719512399E-3
2.031854827E2,-3.075704277E-1,5.253437161E-1,-6.719512399E-3
2.036854827E2,-3.075704277E-1,5.253437161E-1,-6.719512399E-3
2.041854827E2,-3.075704277E-1,5.253437161E-1,-6.719512399E-3
2.046854827E2,-3.075704277E-1,5.253437161E-1,-6.719512399E-3
2.051854827E2,-3.075704277E-1,5.253437161E-1,-6.719512399E-3
2.056854827E2,-3.075704277E-1,5.253437161E-1,-6.719512399E-3
2.061854827E2,-3.075704277E-1,5.253437161E-1,-6.719512399E-3
2.066854827E2,-3.075704277E-1,5.253437161E-1,-6.719512399E-3
2.071854827E2,-3.075704277E-1,5.253437161E-1,-6.719512399E-3
2.076854827E2,-3.075704277E-1,5.253437161E-1,-6.719512399E-3
2.081854827E2,-3.075704277E-1,5.253437161E-1,-6.719512399E-3
2.086854827E2,-3.075704277E-1,5.253437161E-1,-6.719512399E-3
2.091854827E2,-3.075704277E-1,5.253437161E-1,-6.719512399E-3
2.096854827E2,-3.075704277E-1,5.253437161E-1,-6.719512399E-3
2.101854827E2,-3.075704277E-1,5.253437161E-1,-6.719512399E-3
2.106854827E2,-3.075704277E-1,5.253437161E-1,-6.719512399E-3
2.111854827E2,-3.075704277E-1,5.253437161E-1,-6.719512399E-3
2.116854827E2,-3.075704277E-1,5.253437161E-1,-6.719512399E-3
2.121854827E2,-3.075704277E-1,5.253437161E-1,-6.719512399E-3
2.126854827E2,-3.075704277E-1,5.253437161E-1,-6.719512399E-3
2.131854827E2,-3.075704277E-1,5.253437161E-1,-6.719512399E-3
2.136854827E2,-3.075704277E-1,5.253437161E-1,-6.719512399E-3
2.141854827E2,-3.075704277E-1,5.253437161E-1,-6.719512399E-3
2.146854827E2,-3.075704277E-1,5.253437161E-1,-6.719512399E-3
2.151854827E2,-3.075704277E-1,5.253437161E-1,-6.719512399E-3
2.156854827E2,-3.075704277E-1,5.253437161E-1,-6.719512399E-3
2.161854827E2,-3.075704277E-1,5.253437161E-1,-6.719512399E-3
2.166854827E2,-3.075704277E-1,5.253437161E-1,-6.719512399E-3
2.171854827E2,-3.075704277E-1,5.253437161E-1,-6.719512399E-3
2.176854827E2,-3.075704277E-1,5.253437161E-1,-6.719512399E-3
2.181854827E2,-3.075704277E-1,5.253437161E-1,-6.719512399E-3
2.186854827E2,-3.075704277E-1,5.253437161E-1,-6.719512399E-3
2.191854827E2,-3.075704277E-1,5.253437161E-1,-6.719512399E-3
2.196854827E2,-3.075704277E-1,5.253437161E-1,-6.719512399E-3
2.201854827E2,-3.075704277E-1,5.253437161E-1,-6.719512399E-3
2.206854827E2,-3.075704277E-1,5.253437161E-1,-6.719512399E-3
2.211854827E2,-3.075704277E-1,5.253437161E-1,-6.719512399E-3
2.216854827E2,-3.075704277E-1,5.253437161E-1,-6.719512399E-3
2.221854827E2,-3.075704277E-1,5.253437161E-1,-6.719512399E-3
2.226854827E2,-3.075704277E-1,5.253437161E-1,-6.719512399E-3
2.231854827E2,-3.075704277E-1,5.253437161E-1,-6.719512399E-3
2.236854827E2,-3.075704277E-1,5.253437161E-1,-6.719512399E-3
2.241854827E2,-3.075704277E-1,5.253437161E-1,-6.719512399E-3
2.246854827E2,-1.786779426E-2,1.114828233E-2,5.955931731E-3
2.251854827E2,-1.175914705E-2,2.397644334E-2,1.924224012E-2
2.256854827E2,-3.680460155E-2,2.794706449E-2,2.260199748E-2
2.261854827E2,-2.244928107E-2,1.359174121E-2,2.886336111E-2
2.266854827E2,-3.955349326E-2,2.046396956E-2,3.039052337E-2
2.271854827E2,-1.221729559E-3,2.809977904E-2,2.382372692E-2
2.276854827E2,-1.359174121E-2,6.032289565E-2,1.771507785E-2
2.281854827E2,-3.863719851E-2,7.559451461E-2,2.764163166E-2
2.286854827E2,-2.397644334E-2,7.208204269E-2,-1.191186346E-2
2.291854827E2,-5.253437161E-2,4.810560122E-2,-3.161225095E-2
2.296854827E2,-1.182023361E-1,4.306596518E-2,-7.620538026E-2
2.301854827E2,3.344484791E-2,9.162971983E-4,-3.481929377E-2
2.306854827E2,-7.483093534E-3,2.779434808E-2,-1.695149764E-2
2.311854827E2,-3.161225095E-2,5.482511222E-2,-1.438586563E-1
2.316854827E2,3.283398226E-2,2.076940238E-1,-5.192350596E-2
2.321854827E2,-2.576322258E-1,8.216131479E-2,3.068068326E-1
2.326854827E2,1.882990748E-1,-1.550069451E-1,-7.223475724E-2
2.331854827E2,2.504545636E-2,2.244928032E-1,1.007926930E-2
2.336854827E2,-1.114828233E-2,4.306596518E-2,-1.511890348E-2
2.341854827E2,-1.145371422E-2,4.398226365E-2,5.039634649E-3
2.346854827E2,-2.000582218E-2,-3.083339930E-1,-3.425424397E-1
2.351854827E2,-3.196350038E-1,3.243691921E-1,-1.237001177E-2
2.356854827E2,1.718057245E-1,1.937968582E-1,7.223475724E-2
2.361854827E2,1.501200199E-1,8.338304609E-2,-2.083048970E-1
2.366854827E2,9.376774728E-2,-9.865466505E-2,1.275180280E-1
2.371854827E2,8.704823442E-3,-5.070177838E-2,4.153880477E-2
2.376854827E2,-1.817322709E-2,1.603520103E-2,1.160643063E-2
2.381854827E2,2.229656465E-2,-2.290742844E-2,1.366809905E-1
2.386854827E2,3.023780696E-2,-9.941824526E-2,1.253799945E-1
2.391854827E2,2.321286127E-2,-5.818486959E-2,1.278234571E-1
2.396854827E2,-2.611446939E-2,1.336266696E-1,8.384118974E-2
2.401854827E2,1.495091617E-1,5.036579967E-1,-1.922696829E-1
2.406854827E2,-2.443459071E-2,-6.288852692E-1,2.938259542E-1
2.411854827E2,3.680460155E-2,-8.048143238E-2,-5.161807314E-2
2.416854827E2,5.192350596E-2,-6.352993846E-2,-1.313359290E-2
2.421854827E2,1.139262840E-1,-5.635227636E-2,-1.583666950E-1
2.426854827E2,-1.282816008E-2,2.367101051E-2,-2.901607659E-3
2.431854827E2,-3.436114267E-2,-1.954767294E-2,-1.053741761E-2
2.436854827E2,-7.024944760E-3,-3.359756200E-3,-3.359756200E-3
2.441854827E2,-1.496618707E-2,-2.122755162E-2,2.321286127E-2
2.446854827E2,1.511890348E-2,4.917461425E-2,-6.704241037E-2
2.451854827E2,-2.061668597E-2,-4.886918142E-2,3.665188793E-3
2.456854827E2,3.252854943E-2,-7.681624591E-2,2.153298259E-2
2.461854827E2,4.199695215E-2,-4.673115537E-2,2.290742937E-3
2.466854827E2,-1.191186346E-2,9.224057943E-2,5.314523727E-2
2.471854827E2,-1.064431891E-1,3.769035637E-1,-3.069595434E-2
2.476854827E2,-6.001746282E-2,-8.399390616E-3,-4.764745384E-2
2.481854827E2,5.558869615E-2,-1.281288862E-1,4.077522457E-2
2.486854827E2,2.641990222E-2,-1.979201883E-1,1.221729536E-2
2.491854827E2,7.956513762E-2,-5.100720748E-2,-1.649334840E-2
2.496854827E2,4.734201822E-3,-1.687513888E-1,7.024945319E-2
2.501854827E2,1.282816008E-2,6.108647957E-2,4.917461425E-2
2.506854827E2,-1.817322709E-2,-2.443459071E-2,9.315688163E-3
2.511854827E2,-2.626718581E-2,-2.351829410E-2,4.520399496E-2
2.516854827E2,-9.300415963E-2,7.895427197E-2,2.183841541E-2
2.521854827E2,-8.796452731E-2,8.231402934E-2,3.878991306E-2
2.526854827E2,-5.818486959E-2,1.279761642E-1,1.679878100E-3
2.531854827E2,-3.695731983E-2,7.391463965E-2,-6.123919412E-2
2.536854827E2,-1.863137633E-2,-2.046396956E-2,-3.741546720E-2
2.541854827E2,1.634063199E-2,-1.450803876E-2,-1.053741761E-2
2.546854827E2,1.634063199E-2,-1.450803876E-2,-1.053741761E-2
2.551854827E2,1.634063199E-2,-1.450803876E-2,-1.053741761E-2
2.556854827E2,1.634063199E-2,-1.450803876E-2,-1.053741761E-2
2.561854827E2,1.634063199E-2,-1.450803876E-2,-1.053741761E-2
2.566854827E2,1.634063199E-2,-1.450803876E-2,-1.053741761E-2
2.571854827E2,1.634063199E-2,-1.450803876E-2,-1.053741761E-2
2.576854827E2,1.634063199E-2,-1.450803876E-2,-1.053741761E-2
2.581854827E2,1.634063199E-2,-1.450803876E-2,-1.053741761E-2
2.586854827E2,1.634063199E-2,-1.450803876E-2,-1.053741761E-2
2.591854827E2,1.634063199E-2,-1.450803876E-2,-1.053741761E-2
2.596854827E2,1.634063199E-2,-1.450803876E-2,-1.053741761E-2
2.601854827E2,1.634063199E-2,-1.450803876E-2,-1.053741761E-2
2.606854827E2,1.634063199E-2,-1.450803876E-2,-1.053741761E-2
2.611854827E2,1.634063199E-2,-1.450803876E-2,-1.053741761E-2
2.616854827E2,1.634063199E-2,-1.450803876E-2,-1.053741761E-2
2.621854827E2,1.634063199E-2,-1.450803876E-2,-1.053741761E-2
2.626854827E2,1.634063199E-2,-1.450803876E-2,-1.053741761E-2
2.631854827E2,1.634063199E-2,-1.450803876E-2,-1.053741761E-2
2.636854827E2,1.634063199E-2,-1.450803876E-2,-1.053741761E-2
2.641854827E2,1.634063199E-2,-1.450803876E-2,-1.053741761E-2
2.646854827E2,1.634063199E-2,-1.450803876E-2,-1.053741761E-2
2.651854827E2,1.634063199E-2,-1.450803876E-2,-1.053741761E-2
2.656854827E2,1.634063199E-2,-1.450803876E-2,-1.053741761E-2
2.661854827E2,1.634063199E-2,-1.450803876E-2,-1.053741761E-2
2.666854827E2,1.634063199E-2,-1.450803876E-2,-1.053741761E-2
2.671854827E2,1.634063199E-2,-1.450803876E-2,-1.053741761E-2
2.676854827E2,1.634063199E-2,-1.450803876E-2,-1.053741761E-2
2.681854827E2,1.634063199E-2,-1.450803876E-2,-1.053741761E-2
2.686854827E2,1.634063199E-2,-1.450803876E-2,-1.053741761E-2
2.691854827E2,1.634063199E-2,-1.450803876E-2,-1.053741761E-2
2.696854827E2,1.634063199E-2,-1.450803876E-2,-1.053741761E-2
2.701854827E2,1.634063199E-2,-1.450803876E-2,-1.053741761E-2
2.706854827E2,1.634063199E-2,-1.450803876E-2,-1.053741761E-2
2.711854827E2,1.634063199E-2,-1.450803876E-2,-1.053741761E-2
2.716854827E2,1.634063199E-2,-1.450803876E-2,-1.053741761E-2
2.721854827E2,1.634063199E-2,-1.450803876E-2,-1.053741761E-2
2.726854827E2,1.634063199E-2,-1.450803876E-2,-1.053741761E-2
2.731854827E2,1.634063199E-2,-1.450803876E-2,-1.053741761E-2
2.736854827E2,1.634063199E-2,-1.450803876E-2,-1.053741761E-2
2.741854827E2,1.634063199E-2,-1.450803876E-2,-1.053741761E-2
2.746854827E2,1.634063199E-2,-1.450803876E-2,-1.053741761E-2
2.751854827E2,1.634063199E-2,-1.450803876E-2,-1.053741761E-2
2.756854827E2,1.634063199E-2,-1.450803876E-2,-1.053741761E-2
2.761854827E2,1.634063199E-2,-1.450803876E-2,-1.053741761E-2
2.766854827E2,1.634063199E-2,-1.450803876E-2,-1.053741761E-2
2.771854827E2,1.634063199E-2,-1.450803876E-2,-1.053741761E-2
2.776854827E2,1.634063199E-2,-1.450803876E-2,-1.053741761E-2
2.781854827E2,1.634063199E-2,-1.450803876E-2,-1.053741761E-2
2.786854827E2,1.634063199E-2,-1.450803876E-2,-1.053741761E-2
2.791854827E2,1.634063199E-2,-1.450803876E-2,-1.053741761E-2
2.796854827E2,1.634063199E-2,-1.450803876E-2,-1.053741761E-2
2.801854827E2,1.634063199E-2,-1.450803876E-2,-1.053741761E-2
2.806854827E2,1.634063199E-2,-1.450803876E-2,-1.053741761E-2
2.811854827E2,1.634063199E-2,-1.450803876E-2,-1.053741761E-2
2.816854827E2,1.634063199E-2,-1.450803876E-2,-1.053741761E-2
2.821854827E2,1.634063199E-2,-1.450803876E-2,-1.053741761E-2
2.826854827E2,1.634063199E-2,-1.450803876E-2,-1.053741761E-2
2.831854827E2,1.634063199E-2,-1.450803876E-2,-1.053741761E-2
2.836854827E2,1.634063199E-2,-1.450803876E-2,-1.053741761E-2
2.841854827E2,1.634063199E-2,-1.450803876E-2,-1.053741761E-2
2.846854827E2,1.634063199E-2,-1.450803876E-2,-1.053741761E-2
2.851854827E2,-1.313359290E-2,-2.015853859E-2,-9.773836471E-3
2.856854827E2,8.399390616E-3,-1.221729559E-3,7.635809598E-4
2.861854827E2,9.162971750E-3,2.779434808E-2,-7.635809947E-3
2.866854827E2,-1.603520103E-2,-6.719512399E-3,-4.886918236E-3
2.871854827E2,-8.857538924E-3,-9.315688163E-3,5.955931731E-3
2.876854827E2,-1.679878100E-3,-1.267544460E-2,6.108647794E-4
2.881854827E2,3.207040019E-3,3.665188793E-3,-4.886918236E-3
2.886854827E2,3.054323897E-4,-6.108647794E-4,-1.114828233E-2
2.891854827E2,3.665188793E-3,3.176496923E-2,-2.871064469E-2
2.896854827E2,-2.138026757E-3,6.719512399E-3,8.399390616E-3
2.901854827E2,1.084284950E-2,6.108647794E-4,3.924806044E-2
2.906854827E2,7.635809947E-3,-2.153298259E-2,4.734201822E-3
2.911854827E2,1.511890348E-2,1.328630932E-2,2.412915789E-2
2.916854827E2,1.084284950E-2,-1.679878100E-3,2.397644334E-2
2.921854827E2,-1.007926930E-2,-6.414080039E-3,-9.468403645E-3
2.926854827E2,-1.252272818E-2,-7.483093534E-3,2.138026804E-2
2.931854827E2,-1.389717404E-2,-4.581485875E-3,-3.680460155E-2
2.936854827E2,9.773836471E-3,1.084284950E-2,-7.024944760E-3
2.941854827E2,-8.093958721E-3,-2.412915789E-2,4.581485875E-3
2.946854827E2,-6.566796452E-3,2.901607659E-3,-7.635809947E-3
2.951854827E2,-3.970621154E-3,7.941242307E-3,-7.635809947E-3
2.956854827E2,-2.138026757E-3,3.359756200E-3,-9.162971983E-4
2.961854827E2,-1.374445739E-3,-1.679878100E-3,6.108647794E-4
2.966854827E2,3.054323897E-4,-9.773836471E-3,1.985310577E-3
2.971854827E2,7.330377586E-3,-1.252272818E-2,1.069013379E-3
2.976854827E2,-6.719512399E-3,-9.010255337E-3,-3.359756200E-3
2.981854827E2,9.162971983E-4,3.665188793E-3,3.817904973E-3
2.986854827E2,2.596175298E-3,8.246674202E-3,-3.970621154E-3
2.991854827E2,-7.941242307E-3,-5.192350596E-3,1.985310577E-3
2.996854827E2,-9.162971983E-4,-2.138026757E-3,-6.719512399E-3
3.001854827E2,-1.679878123E-2,-5.650499370E-3,-2.138026757E-3
3.006854827E2,8.093958721E-3,1.374445739E-3,-9.162971983E-4
3.011854827E2,-1.634063199E-2,-8.246674202E-3,1.160643063E-2
3.016854827E2,6.414080039E-3,-6.566796452E-3,5.039634649E-3
3.021854827E2,-1.572976820E-2,-1.175914705E-2,-7.635809598E-4
3.026854827E2,7.941242307E-3,2.596175298E-3,7.330377586E-3
3.031854827E2,6.108647794E-4,-3.512472380E-3,4.276053514E-3
3.036854827E2,-1.527161920E-3,-1.221729559E-3,4.734201822E-3
3.041854827E2,-3.359756200E-3,7.788525894E-3,1.679878100E-3
3.046854827E2,-1.985310577E-3,9.621120058E-3,-1.527161920E-3
3.051854827E2,6.414080039E-3,1.114828233E-2,-1.221729536E-2
3.056854827E2,-1.160643063E-2,-4.581485991E-4,9.773836471E-3
3.061854827E2,7.177661173E-3,3.359756200E-3,-2.000582218E-2
3.066854827E2,-8.552107029E-3,-1.359174121E-2,1.557705179E-2
3.071854827E2,4.428769462E-3,-1.481347065E-2,3.970621154E-3
3.076854827E2,-5.955931731E-3,1.145371422E-2,-5.345067009E-3
3.081854827E2,1.007926930E-2,4.886918236E-3,0.000000000E0
3.086854827E2,-1.282816008E-2,-3.970621154E-3,3.970621154E-3
3.091854827E2,-5.345067009E-3,-1.664606482E-2,-4.886918236E-3
3.096854827E2,6.719512399E-3,3.817904973E-3,1.145371422E-2
3.101854827E2,7.635809598E-4,9.162971750E-3,-8.246674202E-3
3.106854827E2,5.039634649E-3,3.970621154E-3,-3.970621154E-3
3.111854827E2,-0.000000000E0,-1.985310577E-3,4.581485991E-4
3.116854827E2,-3.970621154E-3,-3.207040019E-3,-2.138026757E-3
3.121854827E2,2.183841541E-2,1.221729536E-2,-1.252272818E-2
3.126854827E2,4.581485991E-4,2.489273995E-2,-1.069013402E-2
3.131854827E2,-7.635809947E-3,-1.893680729E-2,7.024944760E-3
3.136854827E2,1.130099874E-2,-2.290742937E-3,2.443459118E-3
3.141854827E2,1.527161949E-4,-1.404988952E-2,1.023198478E-2
3.146854827E2,6.414080039E-3,-2.306014486E-2,2.748891478E-3
3.151854827E2,6.414080039E-3,-2.306014486E-2,2.748891478E-3
3.156854827E2,6.414080039E-3,-2.306014486E-2,2.748891478E-3
3.161854827E2,6.414080039E-3,-2.306014486E-2,2.748891478E-3
3.166854827E2,6.414080039E-3,-2.306014486E-2,2.748891478E-3
3.171854827E2,6.414080039E-3,-2.306014486E-2,2.748891478E-3
3.176854827E2,6.414080039E-3,-2.306014486E-2,2.748891478E-3
3.181854827E2,6.414080039E-3,-2.306014486E-2,2.748891478E-3
3.186854827E2,6.414080039E-3,-2.306014486E-2,2.748891478E-3
3.191854827E2,6.414080039E-3,-2.306014486E-2,2.748891478E-3
3.196854827E2,6.414080039E-3,-2.306014486E-2,2.748891478E-3
3.201854827E2,6.414080039E-3,-2.306014486E-2,2.748891478E-3
3.206854827E2,6.414080039E-3,-2.306014486E-2,2.748891478E-3
3.211854827E2,6.414080039E-3,-2.306014486E-2,2.748891478E-3
3.216854827E2,6.414080039E-3,-2.306014486E-2,2.748891478E-3
3.221854827E2,6.414080039E-3,-2.306014486E-2,2.748891478E-3
3.226854827E2,6.414080039E-3,-2.306014486E-2,2.748891478E-3
3.231854827E2,6.414080039E-3,-2.306014486E-2,2.748891478E-3
3.236854827E2,6.414080039E-3,-2.306014486E-2,2.748891478E-3
3.241854827E2,6.414080039E-3,-2.306014486E-2,2.748891478E-3
3.246854827E2,6.414080039E-3,-2.306014486E-2,2.748891478E-3
3.251854827E2,6.414080039E-3,-2.306014486E-2,2.748891478E-3
3.256854827E2,6.414080039E-3,-2.306014486E-2,2.748891478E-3
3.261854827E2,6.414080039E-3,-2.306014486E-2,2.748891478E-3
3.266854827E2,6.414080039E-3,-2.306014486E-2,2.748891478E-3
3.271854827E2,6.414080039E-3,-2.306014486E-2,2.748891478E-3
3.276854827E2,6.414080039E-3,-2.306014486E-2,2.748891478E-3
3.281854827E2,6.414080039E-3,-2.306014486E-2,2.748891478E-3
3.286854827E2,6.414080039E-3,-2.306014486E-2,2.748891478E-3
3.291854827E2,6.414080039E-3,-2.306014486E-2,2.748891478E-3
3.296854827E2,6.414080039E-3,-2.306014486E-2,2.748891478E-3
3.301854827E2,6.414080039E-3,-2.306014486E-2,2.748891478E-3
3.306854827E2,6.414080039E-3,-2.306014486E-2,2.748891478E-3
3.311854827E2,6.414080039E-3,-2.306014486E-2,2.748891478E-3
3.316854827E2,6.414080039E-3,-2.306014486E-2,2.748891478E-3
3.321854827E2,6.414080039E-3,-2.306014486E-2,2.748891478E-3
3.326854827E2,6.414080039E-3,-2.306014486E-2,2.748891478E-3
3.331854827E2,6.414080039E-3,-2.306014486E-2,2.748891478E-3
3.336854827E2,6.414080039E-3,-2.306014486E-2,2.748891478E-3
3.341854827E2,6.414080039E-3,-2.306014486E-2,2.748891478E-3
3.346854827E2,6.414080039E-3,-2.306014486E-2,2.748891478E-3
3.351854827E2,6.414080039E-3,-2.306014486E-2,2.748891478E-3
3.356854827E2,6.414080039E-3,-2.306014486E-2,2.748891478E-3
3.361854827E2,6.414080039E-3,-2.306014486E-2,2.748891478E-3
3.366854827E2,6.414080039E-3,-2.306014486E-2,2.748891478E-3
3.371854827E2,6.414080039E-3,-2.306014486E-2,2.748891478E-3
3.376854827E2,6.414080039E-3,-2.306014486E-2,2.748891478E-3
3.381854827E2,6.414080039E-3,-2.306014486E-2,2.748891478E-3
3.386854827E2,6.414080039E-3,-2.306014486E-2,2.748891478E-3
3.391854827E2,6.414080039E-3,-2.306014486E-2,2.748891478E-3
3.396854827E2,6.414080039E-3,-2.306014486E-2,2.748891478E-3
3.401854827E2,6.414080039E-3,-2.306014486E-2,2.748891478E-3
3.406854827E2,6.414080039E-3,-2.306014486E-2,2.748891478E-3
3.411854827E2,6.414080039E-3,-2.306014486E-2,2.748891478E-3
3.416854827E2,6.414080039E-3,-2.306014486E-2,2.748891478E-3
3.421854827E2,6.414080039E-3,-2.306014486E-2,2.748891478E-3
3.426854827E2,6.414080039E-3,-2.306014486E-2,2.748891478E-3
3.431854827E2,6.414080039E-3,-2.306014486E-2,2.748891478E-3
3.436854827E2,6.414080039E-3,-2.306014486E-2,2.748891478E-3
3.441854827E2,6.414080039E-3,-2.306014486E-2,2.748891478E-3
3.446854827E2,6.414080039E-3,-2.306014486E-2,2.748891478E-3
3.451854827E2,6.414080039E-3,-2.306014486E-2,2.748891478E-3
3.456854827E2,2.489273995E-2,-8.720094711E-2,4.382954910E-2
3.461854827E2,2.687804960E-2,-1.343902480E-2,5.268708616E-2
3.466854827E2,1.954767294E-2,-3.558287397E-2,2.504545636E-2
3.471854827E2,4.276053514E-3,-5.390881747E-2,1.771507785E-2
3.476854827E2,7.177661173E-3,-2.733619884E-2,-3.375028074E-2
3.481854827E2,-2.748891478E-3,2.412915789E-2,7.635809947E-3
3.486854827E2,1.007926930E-2,3.512472380E-3,1.069013379E-3
3.491854827E2,-5.345067009E-3,-6.566796452E-3,3.665188793E-3
3.496854827E2,9.162971983E-4,-8.093958721E-3,1.221729559E-3
3.501854827E2,3.970621154E-3,-1.084284950E-2,3.970621154E-3
3.506854827E2,1.221729559E-3,-4.734201822E-3,-5.803215317E-3
3.511854827E2,1.878409274E-2,4.459312931E-2,4.581485689E-2
3.516854827E2,-1.389717404E-2,-1.878409274E-2,2.596175298E-3
3.521854827E2,-3.817904973E-3,-3.802633286E-2,3.054323897E-4
3.526854827E2,2.290742937E-3,-4.123337101E-3,-5.345067009E-3
3.531854827E2,-1.374445739E-3,-2.764163166E-2,2.122755162E-2
3.536854827E2,6.108647794E-4,-2.748891525E-2,8.246674202E-3
3.541854827E2,3.665188793E-3,3.329212964E-2,-7.635809947E-3
3.546854827E2,-7.635809598E-4,9.773836471E-3,2.443459118E-3
3.551854827E2,-1.679878100E-3,-2.901607659E-3,1.527161920E-3
3.556854827E2,9.010255337E-3,1.267544460E-2,3.817904973E-3
3.561854827E2,2.290742937E-3,-3.817904973E-3,2.748891478E-3
3.566854827E2,-1.053741761E-2,-4.291325063E-2,1.771507785E-2
3.571854827E2,5.039634649E-3,-2.138026757E-3,1.359174121E-2
3.576854827E2,-4.428769462E-3,1.252272818E-2,-1.038470119E-2
3.581854827E2,8.552107029E-3,5.497782957E-3,1.328630932E-2
3.586854827E2,-2.596175298E-3,-1.817322709E-2,9.773836471E-3
3.591854827E2,2.901607659E-3,-1.007926930E-2,1.252272818E-2
3.596854827E2,1.527161920E-3,3.512472380E-3,-6.108647794E-4
3.601854827E2,-1.069013379E-3,2.443459118E-3,1.725693047E-2
3.606854827E2,-1.069013402E-2,1.725693047E-2,-2.382372692E-2
3.611854827E2,6.414080039E-3,3.512472380E-3,9.926552884E-3
3.616854827E2,3.970621154E-3,-2.733619884E-2,1.588248461E-2
3.621854827E2,8.857538924E-3,-1.130099874E-2,3.329212964E-2
3.626854827E2,5.803215317E-3,-9.621120058E-3,2.336557768E-2
3.631854827E2,-1.069013379E-3,1.206457894E-2,-6.108647794E-4
3.636854827E2,-1.832594397E-3,9.773836471E-3,3.207040019E-3
3.641854827E2,2.748891478E-3,-1.145371422E-2,9.315688163E-3
3.646854827E2,4.123337101E-3,-2.290742937E-3,4.428769462E-3
3.651854827E2,-1.985310577E-3,1.282816008E-2,-9.162971983E-4
3.656854827E2,1.527161949E-4,-4.581485875E-3,4.734201822E-3
3.661854827E2,-4.581485991E-4,-7.330377586E-3,-3.970621154E-3
3.666854827E2,-1.114828233E-2,-3.512472659E-2,1.252272818E-2
3.671854827E2,-1.007926930E-2,-4.031707719E-2,1.298087649E-2
3.676854827E2,9.315688163E-3,2.321286127E-2,2.138026757E-3
3.681854827E2,-5.345067009E-3,-5.803215317E-3,5.192350596E-3
3.686854827E2,-7.330377586E-3,-2.901607659E-3,7.024944760E-3
3.691854827E2,-3.054323897E-4,1.038470119E-2,3.054323839E-3
3.696854827E2,-2.443459118E-3,-1.542433538E-2,4.276053514E-3
3.701854827E2,1.343902480E-2,4.734201822E-3,9.162971983E-4
3.706854827E2,-1.603520103E-2,1.099556591E-2,-6.414080039E-3
3.711854827E2,2.596175298E-3,4.581485875E-3,6.719512399E-3
3.716854827E2,-1.221729559E-3,-0.000000000E0,-9.010255337E-3
3.721854827E2,-7.024944760E-3,3.695731983E-2,1.343902480E-2
3.726854827E2,-8.093958721E-3,-2.000582218E-2,-1.634063199E-2
3.731854827E2,1.863137633E-2,5.711585656E-2,1.374445739E-3
3.736854827E2,-3.665188793E-3,-3.451386094E-2,8.704823442E-3
3.741854827E2,4.062250629E-2,-6.841685623E-2,5.024362728E-2
3.746854827E2,2.733619884E-2,9.010255337E-3,4.886918236E-3
3.751854827E2,3.207040206E-2,-2.519817278E-2,3.145953640E-2
3.756854827E2,3.207040206E-2,-2.519817278E-2,3.145953640E-2
3.761854827E2,3.207040206E-2,-2.519817278E-2,3.145953640E-2
3.766854827E2,3.207040206E-2,-2.519817278E-2,3.145953640E-2
3.771854827E2,3.207040206E-2,-2.519817278E-2,3.145953640E-2
3.776854827E2,3.207040206E-2,-2.519817278E-2,3.145953640E-2
3.781854827E2,3.207040206E-2,-2.519817278E-2,3.145953640E-2
3.786854827E2,3.207040206E-2,-2.519817278E-2,3.145953640E-2
3.791854827E2,3.207040206E-2,-2.519817278E-2,3.145953640E-2
3.796854827E2,3.207040206E-2,-2.519817278E-2,3.145953640E-2
3.801854827E2,3.207040206E-2,-2.519817278E-2,3.145953640E-2
3.806854827E2,3.207040206E-2,-2.519817278E-2,3.145953640E-2
3.811854827E2,3.207040206E-2,-2.519817278E-2,3.145953640E-2
3.816854827E2,3.207040206E-2,-2.519817278E-2,3.145953640E-2
3.821854827E2,3.207040206E-2,-2.519817278E-2,3.145953640E-2
3.826854827E2,3.207040206E-2,-2.519817278E-2,3.145953640E-2
3.831854827E2,3.207040206E-2,-2.519817278E-2,3.145953640E-2
3.836854827E2,3.207040206E-2,-2.519817278E-2,3.145953640E-2
3.841854827E2,3.207040206E-2,-2.519817278E-2,3.145953640E-2
3.846854827E2,3.207040206E-2,-2.519817278E-2,3.145953640E-2
3.851854827E2,3.207040206E-2,-2.519817278E-2,3.145953640E-2
3.856854827E2,3.207040206E-2,-2.519817278E-2,3.145953640E-2
3.861854827E2,3.207040206E-2,-2.519817278E-2,3.145953640E-2
3.866854827E2,3.207040206E-2,-2.519817278E-2,3.145953640E-2
3.871854827E2,3.207040206E-2,-2.519817278E-2,3.145953640E-2
3.876854827E2,3.207040206E-2,-2.519817278E-2,3.145953640E-2
3.881854827E2,3.207040206E-2,-2.519817278E-2,3.145953640E-2
3.886854827E2,3.207040206E-2,-2.519817278E-2,3.145953640E-2
3.891854827E2,3.207040206E-2,-2.519817278E-2,3.145953640E-2
3.896854827E2,3.207040206E-2,-2.519817278E-2,3.145953640E-2
3.901854827E2,3.207040206E-2,-2.519817278E-2,3.145953640E-2
3.906854827E2,3.207040206E-2,-2.519817278E-2,3.145953640E-2
3.911854827E2,3.207040206E-2,-2.519817278E-2,3.145953640E-2
3.916854827E2,3.207040206E-2,-2.519817278E-2,3.145953640E-2
3.921854827E2,3.207040206E-2,-2.519817278E-2,3.145953640E-2
3.926854827E2,3.207040206E-2,-2.519817278E-2,3.145953640E-2
3.931854827E2,3.207040206E-2,-2.519817278E-2,3.145953640E-2
3.936854827E2,3.207040206E-2,-2.519817278E-2,3.145953640E-2
3.941854827E2,3.207040206E-2,-2.519817278E-2,3.145953640E-2
3.946854827E2,3.207040206E-2,-2.519817278E-2,3.145953640E-2
3.951854827E2,3.207040206E-2,-2.519817278E-2,3.145953640E-2
3.956854827E2,3.207040206E-2,-2.519817278E-2,3.145953640E-2
3.961854827E2,3.207040206E-2,-2.519817278E-2,3.145953640E-2
3.966854827E2,3.207040206E-2,-2.519817278E-2,3.145953640E-2
3.971854827E2,3.207040206E-2,-2.519817278E-2,3.145953640E-2
3.976854827E2,3.207040206E-2,-2.519817278E-2,3.145953640E-2
3.981854827E2,3.207040206E-2,-2.519817278E-2,3.145953640E-2
3.986854827E2,3.207040206E-2,-2.519817278E-2,3.145953640E-2
3.991854827E2,3.207040206E-2,-2.519817278E-2,3.145953640E-2
3.996854827E2,3.207040206E-2,-2.519817278E-2,3.145953640E-2
4.001854827E2,3.207040206E-2,-2.519817278E-2,3.145953640E-2
4.006854827E2,3.207040206E-2,-2.519817278E-2,3.145953640E-2
4.011854827E2,3.207040206E-2,-2.519817278E-2,3.145953640E-2
4.016854827E2,3.207040206E-2,-2.519817278E-2,3.145953640E-2
4.021854827E2,3.207040206E-2,-2.519817278E-2,3.145953640E-2
4.026854827E2,3.207040206E-2,-2.519817278E-2,3.145953640E-2
4.031854827E2,3.207040206E-2,-2.519817278E-2,3.145953640E-2
4.036854827E2,3.207040206E-2,-2.519817278E-2,3.145953640E-2
4.041854827E2,3.207040206E-2,-2.519817278E-2,3.145953640E-2
4.046854827E2,3.207040206E-2,-2.519817278E-2,3.145953640E-2
4.051854827E2,3.207040206E-2,-2.519817278E-2,3.145953640E-2
4.056854827E2,3.207040206E-2,-2.519817278E-2,3.145953640E-2
4.061854827E2,7.635809598E-4,-2.580903657E-2,1.313359290E-2
4.066854827E2,-6.872228812E-3,2.122755162E-2,-2.886336111E-2
4.071854827E2,7.330377586E-3,1.221729559E-3,1.053741761E-2
4.076854827E2,-2.993237413E-2,-3.375028074E-2,5.803215317E-3
4.081854827E2,-6.108647678E-3,-5.345067009E-3,-1.939495653E-2
4.086854827E2,-6.414080039E-3,-2.107483521E-2,3.512472380E-3
4.091854827E2,-6.108647794E-4,1.863137633E-2,-3.054323897E-4
4.096854827E2,3.207040206E-2,2.764163166E-2,2.260199748E-2
4.101854827E2,-1.985310577E-3,1.221729559E-3,4.428769462E-3
4.106854827E2,1.145371422E-2,5.650499370E-3,3.649916872E-2
4.111854827E2,-6.108647678E-3,-2.153298259E-2,-3.207040019E-3
4.116854827E2,5.650499370E-3,1.191186346E-2,7.941242307E-3
4.121854827E2,-7.483093534E-3,2.367101051E-2,-3.909534588E-2
4.126854827E2,9.468403645E-3,5.192350596E-3,7.635809598E-4
4.131854827E2,-2.474002354E-2,-4.948004708E-2,1.099556591E-2
4.136854827E2,1.939495653E-2,1.237001177E-2,5.039634649E-3
4.141854827E2,-1.756236330E-2,-2.260199748E-2,-1.221729536E-2
4.146854827E2,8.552107029E-3,1.267544460E-2,6.261364091E-3
4.151854827E2,-1.359174121E-2,2.290742937E-3,-1.099556591E-2
4.156854827E2,9.162971983E-4,5.955931731E-3,8.857538924E-3
4.161854827E2,-6.108647794E-4,7.635809598E-4,-1.664606482E-2
4.166854827E2,-2.932151034E-2,-4.734202102E-2,3.084867075E-2
4.171854827E2,5.039634649E-3,5.345067009E-3,-1.527161989E-2
4.176854827E2,8.552107029E-3,3.772090003E-2,0.000000000E0
4.181854827E2,-4.428769462E-3,-1.695149764E-2,5.192350596E-3
4.186854827E2,9.621120058E-3,1.786779426E-2,-1.603520103E-2
4.191854827E2,1.359174121E-2,7.788525894E-3,3.359756200E-3
4.196854827E2,-1.374445762E-2,-3.420842811E-2,1.114828233E-2
4.201854827E2,-9.010255337E-3,-3.741546720E-2,1.679878100E-3
4.206854827E2,9.162971983E-4,3.772090003E-2,4.581485991E-4
4.211854827E2,-0.000000000E0,-3.512472380E-3,-5.803215317E-3
4.216854827E2,2.321286127E-2,5.757400393E-2,-1.511890348E-2
4.221854827E2,-4.734201822E-3,-1.679878100E-3,-6.261364091E-3
4.226854827E2,-1.679878100E-3,-1.374445739E-3,-1.618791744E-2
4.231854827E2,5.039634649E-3,1.664606482E-2,-1.343902480E-2
4.236854827E2,3.207040019E-3,4.199695215E-2,-1.985310577E-2
4.241854827E2,-4.688387364E-2,9.208786488E-2,-1.588248461E-2
4.246854827E2,-8.857538924E-3,-1.863137633E-2,-5.192350596E-3
4.251854827E2,-1.786779426E-2,4.062250629E-2,-1.710421406E-2
4.256854827E2,-2.443459071E-2,1.496618707E-2,4.123337101E-3
4.261854827E2,1.252272818E-2,-4.871646687E-2,-5.497782957E-3
4.266854827E2,2.153298259E-2,-2.901607659E-3,-1.786779426E-2
4.271854827E2,2.214384824E-2,-3.726275265E-2,-1.221729536E-2
4.276854827E2,3.970621154E-2,-1.435532235E-2,-6.108647678E-3
4.281854827E2,8.552107029E-3,-4.153880477E-2,-2.168569900E-2
4.286854827E2,2.626718581E-2,-7.208204269E-2,-4.276053514E-3
4.291854827E2,2.504545636E-2,-4.077522457E-2,-1.924224012E-2
4.296854827E2,4.001164436E-2,-4.978547990E-2,-2.382372692E-2
4.301854827E2,5.222893879E-2,-1.420260593E-2,-7.483093534E-3
4.306854827E2,3.833176568E-2,-5.360338464E-2,-1.756236330E-2
4.311854827E2,1.450803876E-2,-9.987638891E-2,-9.010255337E-3
4.316854827E2,-8.093958721E-3,-9.850194305E-2,-1.053741761E-2
4.321854827E2,2.397644334E-2,-1.962403059E-1,-7.941242307E-3
4.326854827E2,4.413498193E-2,-7.177661173E-3,2.092211880E-2
4.331854827E2,1.359174121E-2,-2.244928107E-2,-1.603520103E-2
4.336854827E2,7.024944760E-3,-2.306014486E-2,2.275471389E-2
4.341854827E2,-1.130099874E-2,-6.811141968E-2,1.771507785E-2
4.346854827E2,3.130681813E-2,-5.283980444E-2,1.878409274E-2
4.351854827E2,5.039634649E-3,2.733619884E-2,-2.580903657E-2
4.356854827E2,-1.267544460E-2,1.267544460E-2,-1.069013379E-3
4.361854827E2,7.788525894E-3,1.618791744E-2,-1.710421406E-2
4.366854827E2,7.788525894E-3,1.618791744E-2,-1.710421406E-2
4.371854827E2,7.788525894E-3,1.618791744E-2,-1.710421406E-2
4.376854827E2,7.788525894E-3,1.618791744E-2,-1.710421406E-2
4.381854827E2,7.788525894E-3,1.618791744E-2,-1.710421406E-2
4.386854827E2,7.788525894E-3,1.618791744E-2,-1.710421406E-2
4.391854827E2,7.788525894E-3,1.618791744E-2,-1.710421406E-2
4.396854827E2,7.788525894E-3,1.618791744E-2,-1.710421406E-2
4.401854827E2,7.788525894E-3,1.618791744E-2,-1.710421406E-2
4.406854827E2,7.788525894E-3,1.618791744E-2,-1.710421406E-2
4.411854827E2,7.788525894E-3,1.618791744E-2,-1.710421406E-2
4.416854827E2,7.788525894E-3,1.618791744E-2,-1.710421406E-2
4.421854827E2,7.788525894E-3,1.618791744E-2,-1.710421406E-2
4.426854827E2,7.788525894E-3,1.618791744E-2,-1.710421406E-2
4.431854827E2,7.788525894E-3,1.618791744E-2,-1.710421406E-2
4.436854827E2,7.788525894E-3,1.618791744E-2,-1.710421406E-2
4.441854827E2,7.788525894E-3,1.618791744E-2,-1.710421406E-2
4.446854827E2,7.788525894E-3,1.618791744E-2,-1.710421406E-2
4.451854827E2,7.788525894E-3,1.618791744E-2,-1.710421406E-2
4.456854827E2,7.788525894E-3,1.618791744E-2,-1.710421406E-2
4.461854827E2,7.788525894E-3,1.618791744E-2,-1.710421406E-2
4.466854827E2,7.788525894E-3,1.618791744E-2,-1.710421406E-2
4.471854827E2,7.788525894E-3,1.618791744E-2,-1.710421406E-2
4.476854827E2,7.788525894E-3,1.618791744E-2,-1.710421406E-2
4.481854827E2,7.788525894E-3,1.618791744E-2,-1.710421406E-2
4.486854827E2,7.788525894E-3,1.618791744E-2,-1.710421406E-2
4.491854827E2,7.788525894E-3,1.618791744E-2,-1.710421406E-2
4.496854827E2,7.788525894E-3,1.618791744E-2,-1.710421406E-2
4.501854827E2,7.788525894E-3,1.618791744E-2,-1.710421406E-2
4.506854827E2,7.788525894E-3,1.618791744E-2,-1.710421406E-2
4.511854827E2,7.788525894E-3,1.618791744E-2,-1.710421406E-2
4.516854827E2,7.788525894E-3,1.618791744E-2,-1.710421406E-2
4.521854827E2,7.788525894E-3,1.618791744E-2,-1.710421406E-2
4.526854827E2,7.788525894E-3,1.618791744E-2,-1.710421406E-2
4.531854827E2,7.788525894E-3,1.618791744E-2,-1.710421406E-2
4.536854827E2,7.788525894E-3,1.618791744E-2,-1.710421406E-2
4.541854827E2,7.788525894E-3,1.618791744E-2,-1.710421406E-2
4.546854827E2,7.788525894E-3,1.618791744E-2,-1.710421406E-2
4.551854827E2,7.788525894E-3,1.618791744E-2,-1.710421406E-2
4.556854827E2,7.788525894E-3,1.618791744E-2,-1.710421406E-2
4.561854827E2,7.788525894E-3,1.618791744E-2,-1.710421406E-2
4.566854827E2,7.788525894E-3,1.618791744E-2,-1.710421406E-2
4.571854827E2,7.788525894E-3,1.618791744E-2,-1.710421406E-2
4.576854827E2,7.788525894E-3,1.618791744E-2,-1.710421406E-2
4.581854827E2,7.788525894E-3,1.618791744E-2,-1.710421406E-2
4.586854827E2,7.788525894E-3,1.618791744E-2,-1.710421406E-2
4.591854827E2,7.788525894E-3,1.618791744E-2,-1.710421406E-2
4.596854827E2,7.788525894E-3,1.618791744E-2,-1.710421406E-2
4.601854827E2,7.788525894E-3,1.618791744E-2,-1.710421406E-2
4.606854827E2,7.788525894E-3,1.618791744E-2,-1.710421406E-2
4.611854827E2,7.788525894E-3,1.618791744E-2,-1.710421406E-2
4.616854827E2,7.788525894E-3,1.618791744E-2,-1.710421406E-2
4.621854827E2,7.788525894E-3,1.618791744E-2,-1.710421406E-2
4.626854827E2,7.788525894E-3,1.618791744E-2,-1.710421406E-2
4.631854827E2,7.788525894E-3,1.618791744E-2,-1.710421406E-2
4.636854827E2,7.788525894E-3,1.618791744E-2,-1.710421406E-2
4.641854827E2,7.788525894E-3,1.618791744E-2,-1.710421406E-2
4.646854827E2,7.788525894E-3,1.618791744E-2,-1.710421406E-2
4.651854827E2,7.788525894E-3,1.618791744E-2,-1.710421406E-2
4.656854827E2,7.788525894E-3,1.618791744E-2,-1.710421406E-2
4.661854827E2,7.788525894E-3,1.618791744E-2,-1.710421406E-2
4.666854827E2,2.901607752E-2,-6.887500733E-2,4.001164436E-2
4.671854827E2,-2.596175298E-3,1.058323234E-1,8.246674202E-3
4.676854827E2,-7.528908551E-2,1.206457894E-2,-5.803215317E-3
4.681854827E2,1.450803876E-2,1.058323234E-1,7.101303339E-2
4.686854827E2,-4.199695215E-2,3.268126398E-2,-8.857538924E-3
4.691854827E2,-3.649916872E-2,3.527744114E-2,3.191768378E-2
4.696854827E2,-1.893680729E-2,4.841103405E-2,-1.374445762E-2
4.701854827E2,1.603520103E-2,2.031125315E-2,6.108647678E-3
4.706854827E2,-8.093958721E-3,-7.788525894E-3,-1.404988952E-2
4.711854827E2,-8.552107029E-3,5.528326333E-2,-1.099556591E-2
4.716854827E2,-1.832594350E-2,-1.878409274E-2,-9.162971983E-4
4.721854827E2,1.069013379E-3,-1.084284950E-2,-9.621120058E-3
4.726854827E2,9.926552884E-3,1.481347065E-2,-1.771507785E-2
4.731854827E2,-1.542433538E-2,1.084284950E-2,1.679878123E-2
4.736854827E2,-2.596175298E-3,-2.519817278E-2,2.901607659E-3
4.741854827E2,1.221729536E-2,-3.268126398E-2,4.214967042E-2
4.746854827E2,2.244928107E-2,2.901607659E-3,2.428187430E-2
4.751854827E2,-6.261364091E-3,-2.000582218E-2,7.941242307E-3
4.756854827E2,2.183841541E-2,-4.795288667E-2,-9.178243577E-2
4.761854827E2,2.806923687E-1,-3.513999581E-1,1.053741723E-1
4.766854827E2,3.284925222E-1,-6.268999577E-1,3.880518377E-1
4.771854827E2,-3.741546720E-2,1.947131455E-1,-3.130681813E-2
4.776854827E2,5.070177838E-2,-6.215549260E-2,1.534797698E-1
4.781854827E2,4.123337101E-3,-4.596757516E-2,1.574503928E-1
4.786854827E2,4.917461425E-2,-1.148425788E-1,6.643154472E-2
4.791854827E2,1.027780026E-1,5.054906011E-2,-1.649334840E-2
4.796854827E2,2.458730713E-2,-6.658425927E-2,-6.398808211E-2
4.801854827E2,2.306014486E-2,-1.963930279E-1,2.351829410E-2
4.806854827E2,1.892153621E-1,-1.550069451E-1,1.765399277E-1
4.811854827E2,3.512472380E-3,-2.312123179E-1,-1.572976820E-2
4.816854827E2,-2.199113183E-2,-5.650499091E-2,-9.010255337E-2
4.821854827E2,3.460549116E-1,-2.009745091E-1,2.463312149E-1
4.826854827E2,-3.720166385E-1,3.477347791E-1,-2.402225733E-1
4.831854827E2,-1.565341055E-1,-5.323686600E-1,7.528908551E-2
4.836854827E2,-3.848448023E-2,-5.170970559E-1,-1.412624866E-1
4.841854827E2,-4.871646687E-2,2.596175373E-1,-4.770853817E-1
4.846854827E2,-5.818486959E-2,2.852738500E-1,1.860083193E-1
4.851854827E2,-2.530507445E-1,5.537489057E-1,-1.527161920E-3
4.856854827E2,-1.908952370E-2,6.331613660E-1,4.589121640E-1
4.861854827E2,-1.313359290E-2,1.797469556E-1,-4.734202102E-2
4.866854827E2,3.726275265E-2,-1.029918075E0,-2.157879770E-1
4.871854827E2,8.994983882E-2,-1.623983979E0,-1.165224537E-1
4.876854827E2,-7.116574794E-2,-1.133154184E-1,-6.986765862E-1
4.881854827E2,5.780308247E-1,-2.371682525E-1,-4.993819445E-2
4.886854827E2,1.202945471E0,-4.789179862E-1,-1.098640323E0
4.891854827E2,9.153808951E-1,-2.093739063E-1,-1.711948514E-1
4.896854827E2,-3.006981909E-1,1.331685185E-1,-2.021962404E-1
4.901854827E2,-1.693622619E-1,-8.620828986E-1,1.779754519E0
4.906854827E2,5.726857483E-2,-4.870119393E-1,1.623373181E-1
4.911854827E2,1.665064692E0,-2.757290840E0,-1.252272818E-2
4.916854827E2,5.053378940E-1,-4.189005196E-1,-3.365865052E-1
4.921854827E2,1.054505348E0,-1.244331598E0,2.840521336E-1
4.926854827E2,9.964731932E-1,-5.855138898E-1,-2.678641975E-1
4.931854827E2,1.809686869E-1,1.006399691E-1,-6.739365458E-1
4.936854827E2,-1.680641770E0,-4.312705398E-1,-5.054906011E-2
4.941854827E2,3.100138716E-2,-2.234237939E-1,2.287688553E-1
4.946854827E2,1.270598769E-1,3.087921441E-1,-2.191477418E-1
4.951854827E2,-4.158461988E-1,2.287688553E-1,-1.409570426E-1
4.956854827E2,-1.084284950E-2,-6.453786492E-1,3.171915412E-1
4.961854827E2,-8.552107215E-2,2.970330119E-1,-5.091558099E-1
4.966854827E2,-8.552107215E-2,2.970330119E-1,-5.091558099E-1
4.971854827E2,-8.552107215E-2,2.970330119E-1,-5.091558099E-1
4.976854827E2,-8.552107215E-2,2.970330119E-1,-5.091558099E-1
4.981854827E2,-8.552107215E-2,2.970330119E-1,-5.091558099E-1
4.986854827E2,-8.552107215E-2,2.970330119E-1,-5.091558099E-1
4.991854827E2,-8.552107215E-2,2.970330119E-1,-5.091558099E-1
4.996854827E2,-8.552107215E-2,2.970330119E-1,-5.091558099E-1
5.001854827E2,-8.552107215E-2,2.970330119E-1,-5.091558099E-1
5.006854827E2,-8.552107215E-2,2.970330119E-1,-5.091558099E-1
5.011854827E2,-8.552107215E-2,2.970330119E-1,-5.091558099E-1
5.016854827E2,-8.552107215E-2,2.970330119E-1,-5.091558099E-1
5.021854827E2,-8.552107215E-2,2.970330119E-1,-5.091558099E-1
5.026854827E2,-8.552107215E-2,2.970330119E-1,-5.091558099E-1
5.031854827E2,-8.552107215E-2,2.970330119E-1,-5.091558099E-1
5.036854827E2,-8.552107215E-2,2.970330119E-1,-5.091558099E-1
5.041854827E2,-8.552107215E-2,2.970330119E-1,-5.091558099E-1
5.046854827E2,-8.552107215E-2,2.970330119E-1,-5.091558099E-1
5.051854827E2,-8.552107215E-2,2.970330119E-1,-5.091558099E-1
5.056854827E2,-8.552107215E-2,2.970330119E-1,-5.091558099E-1
5.061854827E2,-8.552107215E-2,2.970330119E-1,-5.091558099E-1
5.066854827E2,-8.552107215E-2,2.970330119E-1,-5.091558099E-1
5.071854827E2,-8.552107215E-2,2.970330119E-1,-5.091558099E-1
5.076854827E2,-8.552107215E-2,2.970330119E-1,-5.091558099E-1
5.081854827E2,-8.552107215E-2,2.970330119E-1,-5.091558099E-1
5.086854827E2,-8.552107215E-2,2.970330119E-1,-5.091558099E-1
5.091854827E2,-8.552107215E-2,2.970330119E-1,-5.091558099E-1
5.096854827E2,-8.552107215E-2,2.970330119E-1,-5.091558099E-1
5.101854827E2,-8.552107215E-2,2.970330119E-1,-5.091558099E-1
5.106854827E2,-8.552107215E-2,2.970330119E-1,-5.091558099E-1
5.111854827E2,-8.552107215E-2,2.970330119E-1,-5.091558099E-1
5.116854827E2,-8.552107215E-2,2.970330119E-1,-5.091558099E-1
5.121854827E2,-8.552107215E-2,2.970330119E-1,-5.091558099E-1
5.126854827E2,-8.552107215E-2,2.970330119E-1,-5.091558099E-1
5.131854827E2,-8.552107215E-2,2.970330119E-1,-5.091558099E-1
5.136854827E2,-8.552107215E-2,2.970330119E-1,-5.091558099E-1
5.141854827E2,-8.552107215E-2,2.970330119E-1,-5.091558099E-1
5.146854827E2,-8.552107215E-2,2.970330119E-1,-5.091558099E-1
5.151854827E2,-8.552107215E-2,2.970330119E-1,-5.091558099E-1
5.156854827E2,-8.552107215E-2,2.970330119E-1,-5.091558099E-1
5.161854827E2,-8.552107215E-2,2.970330119E-1,-5.091558099E-1
5.166854827E2,-8.552107215E-2,2.970330119E-1,-5.091558099E-1
5.171854827E2,-8.552107215E-2,2.970330119E-1,-5.091558099E-1
5.176854827E2,-8.552107215E-2,2.970330119E-1,-5.091558099E-1
5.181854827E2,-8.552107215E-2,2.970330119E-1,-5.091558099E-1
5.186854827E2,-8.552107215E-2,2.970330119E-1,-5.091558099E-1
5.191854827E2,-8.552107215E-2,2.970330119E-1,-5.091558099E-1
5.196854827E2,-8.552107215E-2,2.970330119E-1,-5.091558099E-1
5.201854827E2,-8.552107215E-2,2.970330119E-1,-5.091558099E-1
5.206854827E2,-8.552107215E-2,2.970330119E-1,-5.091558099E-1
5.211854827E2,-8.552107215E-2,2.970330119E-1,-5.091558099E-1
5.216854827E2,-8.552107215E-2,2.970330119E-1,-5.091558099E-1
5.221854827E2,-8.552107215E-2,2.970330119E-1,-5.091558099E-1
5.226854827E2,-8.552107215E-2,2.970330119E-1,-5.091558099E-1
5.231854827E2,-8.552107215E-2,2.970330119E-1,-5.091558099E-1
5.236854827E2,-8.552107215E-2,2.970330119E-1,-5.091558099E-1
5.241854827E2,-8.552107215E-2,2.970330119E-1,-5.091558099E-1
5.246854827E2,-8.552107215E-2,2.970330119E-1,-5.091558099E-1
5.251854827E2,-8.552107215E-2,2.970330119E-1,-5.091558099E-1
5.256854827E2,-8.552107215E-2,2.970330119E-1,-5.091558099E-1
5.261854827E2,-8.552107215E-2,2.970330119E-1,-5.091558099E-1
5.266854827E2,-8.552107215E-2,2.970330119E-1,-5.091558099E-1
5.271854827E2,-1.221729559E-3,1.954767294E-2,-3.665188793E-3
5.276854827E2,9.162971983E-4,-9.010255337E-3,1.527161949E-4
5.281854827E2,1.985310577E-3,5.650499370E-3,-3.512472380E-3
5.286854827E2,-1.343902480E-2,-7.284562290E-2,1.832594397E-3
5.291854827E2,1.221729559E-3,1.466075517E-2,2.290742937E-3
5.296854827E2,-2.199113183E-2,-1.200349256E-1,1.282816008E-2
5.301854827E2,-3.970621154E-3,-6.979130208E-2,6.566796452E-2
5.306854827E2,-6.566796452E-2,1.907425225E-1,-3.909534588E-2
5.311854827E2,-5.650499091E-2,-5.482511222E-2,3.008509055E-2
5.316854827E2,-6.108647957E-2,3.680460155E-2,3.207040019E-3
5.321854827E2,-1.153007299E-1,-1.270598769E-1,3.176496923E-2
5.326854827E2,-3.665188700E-2,3.894263133E-2,1.618791744E-2
5.331854827E2,-1.084284950E-2,1.020144150E-1,-2.840521187E-2
5.336854827E2,-1.542433538E-2,1.527161989E-2,-1.420260593E-2
5.341854827E2,1.450803876E-2,1.629481763E-1,-1.970038936E-2
5.346854827E2,-6.261364091E-3,-1.148425788E-1,9.315688163E-3
5.351854827E2,2.000582218E-2,8.093958721E-3,-5.497782957E-3
5.356854827E2,1.420260593E-2,1.030834317E-1,-8.704823442E-3
5.361854827E2,3.054323897E-4,-5.238165334E-2,3.665188793E-3
5.366854827E2,4.734201822E-3,-1.053741761E-2,1.023198478E-2
5.371854827E2,9.926552884E-3,4.306596518E-2,-1.542433538E-2
5.376854827E2,-4.886918236E-3,-4.153880477E-2,9.926552884E-3
5.381854827E2,2.901607659E-3,-8.735366166E-2,1.588248461E-2
5.386854827E2,5.650499370E-3,7.223475724E-2,-1.603520103E-2
5.391854827E2,-4.428769462E-3,-1.298087649E-2,1.832594397E-3
5.396854827E2,-5.039634649E-3,-2.977965772E-2,8.246674202E-3
5.401854827E2,3.512472380E-3,3.924806044E-2,-1.038470119E-2
5.406854827E2,6.872228812E-3,-3.161225095E-2,4.886918236E-3
5.411854827E2,5.803215317E-3,2.871064469E-2,1.832594397E-3
5.416854827E2,3.054323839E-3,-1.313359290E-2,-6.719512399E-3
5.421854827E2,-3.054323839E-3,-1.756236330E-2,1.802051067E-2
5.426854827E2,-4.581485991E-4,-5.039634556E-2,2.443459118E-3
5.431854827E2,2.443459118E-3,4.948004708E-2,-6.872228812E-3
5.436854827E2,2.443459118E-3,3.359756200E-3,2.596175298E-3
5.441854827E2,-3.817904973E-3,3.054323839E-3,-5.192350596E-3
5.446854827E2,-2.138026757E-3,-4.581485875E-3,1.970038936E-2
5.451854827E2,-6.414080039E-3,1.527161949E-4,-1.130099874E-2
5.456854827E2,-4.581485991E-4,3.573558852E-2,1.145371422E-2
5.461854827E2,2.519817278E-2,6.566796452E-2,-5.528326333E-2
5.466854827E2,1.756236330E-2,-9.590577334E-2,3.130681813E-2
5.471854827E2,-5.192350596E-3,6.108647794E-4,-1.343902480E-2
5.476854827E2,-4.123337101E-3,-6.566796452E-3,4.428769462E-3
5.481854827E2,-5.940660089E-2,-6.627883017E-2,-2.107483521E-2
5.486854827E2,3.145953640E-2,1.450803876E-2,1.878409274E-2
5.491854827E2,9.010255337E-3,9.560033679E-2,1.221729559E-3
5.496854827E2,-1.374445739E-3,-7.880155742E-2,-2.290742937E-3
5.501854827E2,3.054323897E-4,2.886336111E-2,4.734201822E-3
5.506854827E2,-1.985310577E-3,3.359756200E-3,-9.162971983E-4
5.511854827E2,-2.443459118E-3,0.000000000E0,3.359756200E-3
5.516854827E2,2.290742937E-3,-2.748891478E-3,-8.857538924E-3
5.521854827E2,2.748891478E-3,-1.802051067E-2,7.635809947E-3
5.526854827E2,-2.290742937E-3,-4.581485991E-4,6.872228812E-3
5.531854827E2,-2.901607659E-3,-4.902189970E-2,-6.566796452E-3
5.536854827E2,2.443459118E-3,6.032289565E-2,9.315688163E-3
5.541854827E2,-5.192350596E-3,-2.855792828E-2,-9.315688163E-3
5.546854827E2,-2.290742937E-3,-8.399390616E-3,1.343902480E-2
5.551854827E2,1.221729559E-3,2.504545636E-2,-1.557705179E-2
5.556854827E2,-4.276053514E-3,4.428769462E-3,6.414080039E-3
5.561854827E2,-7.177661173E-3,-3.115410358E-2,9.162971983E-4
5.566854827E2,-7.177661173E-3,-3.115410358E-2,9.162971983E-4
5.571854827E2,-7.177661173E-3,-3.115410358E-2,9.162971983E-4
5.576854827E2,-7.177661173E-3,-3.115410358E-2,9.162971983E-4
5.581854827E2,-7.177661173E-3,-3.115410358E-2,9.162971983E-4
5.586854827E2,-7.177661173E-3,-3.115410358E-2,9.162971983E-4
5.591854827E2,-7.177661173E-3,-3.115410358E-2,9.162971983E-4
5.596854827E2,-7.177661173E-3,-3.115410358E-2,9.162971983E-4
5.601854827E2,-7.177661173E-3,-3.115410358E-2,9.162971983E-4
5.606854827E2,-7.177661173E-3,-3.115410358E-2,9.162971983E-4
5.611854827E2,-7.177661173E-3,-3.115410358E-2,9.162971983E-4
5.616854827E2,-7.177661173E-3,-3.115410358E-2,9.162971983E-4
5.621854827E2,-7.177661173E-3,-3.115410358E-2,9.162971983E-4
5.626854827E2,-7.177661173E-3,-3.115410358E-2,9.162971983E-4
5.631854827E2,-7.177661173E-3,-3.115410358E-2,9.162971983E-4
5.636854827E2,-7.177661173E-3,-3.115410358E-2,9.162971983E-4
5.641854827E2,-7.177661173E-3,-3.115410358E-2,9.162971983E-4
5.646854827E2,-7.177661173E-3,-3.115410358E-2,9.162971983E-4
5.651854827E2,-7.177661173E-3,-3.115410358E-2,9.162971983E-4
5.656854827E2,-7.177661173E-3,-3.115410358E-2,9.162971983E-4
5.661854827E2,-7.177661173E-3,-3.115410358E-2,9.162971983E-4
5.666854827E2,-7.177661173E-3,-3.115410358E-2,9.162971983E-4
5.671854827E2,-7.177661173E-3,-3.115410358E-2,9.162971983E-4
5.676854827E2,-7.177661173E-3,-3.115410358E-2,9.162971983E-4
5.681854827E2,-7.177661173E-3,-3.115410358E-2,9.162971983E-4
5.686854827E2,-7.177661173E-3,-3.115410358E-2,9.162971983E-4
5.691854827E2,-7.177661173E-3,-3.115410358E-2,9.162971983E-4
5.696854827E2,-7.177661173E-3,-3.115410358E-2,9.162971983E-4
5.701854827E2,-7.177661173E-3,-3.115410358E-2,9.162971983E-4
5.706854827E2,-7.177661173E-3,-3.115410358E-2,9.162971983E-4
5.711854827E2,-7.177661173E-3,-3.115410358E-2,9.162971983E-4
5.716854827E2,-7.177661173E-3,-3.115410358E-2,9.162971983E-4
5.721854827E2,-7.177661173E-3,-3.115410358E-2,9.162971983E-4
5.726854827E2,-7.177661173E-3,-3.115410358E-2,9.162971983E-4
5.731854827E2,-7.177661173E-3,-3.115410358E-2,9.162971983E-4
5.736854827E2,-7.177661173E-3,-3.115410358E-2,9.162971983E-4
5.741854827E2,-7.177661173E-3,-3.115410358E-2,9.162971983E-4
5.746854827E2,-7.177661173E-3,-3.115410358E-2,9.162971983E-4
5.751854827E2,-7.177661173E-3,-3.115410358E-2,9.162971983E-4
5.756854827E2,-7.177661173E-3,-3.115410358E-2,9.162971983E-4
5.761854827E2,-7.177661173E-3,-3.115410358E-2,9.162971983E-4
5.766854827E2,-7.177661173E-3,-3.115410358E-2,9.162971983E-4
5.771854827E2,-7.177661173E-3,-3.115410358E-2,9.162971983E-4
5.776854827E2,-7.177661173E-3,-3.115410358E-2,9.162971983E-4
5.781854827E2,-7.177661173E-3,-3.115410358E-2,9.162971983E-4
5.786854827E2,-7.177661173E-3,-3.115410358E-2,9.162971983E-4
5.791854827E2,-7.177661173E-3,-3.115410358E-2,9.162971983E-4
5.796854827E2,-7.177661173E-3,-3.115410358E-2,9.162971983E-4
5.801854827E2,-7.177661173E-3,-3.115410358E-2,9.162971983E-4
5.806854827E2,-7.177661173E-3,-3.115410358E-2,9.162971983E-4
5.811854827E2,-7.177661173E-3,-3.115410358E-2,9.162971983E-4
5.816854827E2,-7.177661173E-3,-3.115410358E-2,9.162971983E-4
5.821854827E2,-7.177661173E-3,-3.115410358E-2,9.162971983E-4
5.826854827E2,-7.177661173E-3,-3.115410358E-2,9.162971983E-4
5.831854827E2,-7.177661173E-3,-3.115410358E-2,9.162971983E-4
5.836854827E2,-7.177661173E-3,-3.115410358E-2,9.162971983E-4
5.841854827E2,-7.177661173E-3,-3.115410358E-2,9.162971983E-4
5.846854827E2,-7.177661173E-3,-3.115410358E-2,9.162971983E-4
5.851854827E2,-7.177661173E-3,-3.115410358E-2,9.162971983E-4
5.856854827E2,-7.177661173E-3,-3.115410358E-2,9.162971983E-4
5.861854827E2,-7.177661173E-3,-3.115410358E-2,9.162971983E-4
5.866854827E2,-7.177661173E-3,-3.115410358E-2,9.162971983E-4
5.871854827E2,-7.177661173E-3,-3.115410358E-2,9.162971983E-4
5.876854827E2,4.734201822E-3,4.856374860E-2,-6.719512399E-3
5.881854827E2,-1.756236330E-2,-9.025526792E-2,1.328630932E-2
5.886854827E2,1.527161920E-3,2.779434808E-2,-7.024944760E-3
5.891854827E2,1.053741761E-2,9.269873053E-2,-9.468403645E-3
5.896854827E2,-1.374445739E-3,-4.092793912E-2,5.955931731E-3
5.901854827E2,6.108647794E-4,3.817904973E-3,-1.985310577E-3
5.906854827E2,4.428769462E-3,1.542433538E-2,-5.192350596E-3
5.911854827E2,-1.527161920E-3,2.504545636E-2,-3.970621154E-3
5.916854827E2,-4.123337101E-3,-2.275471389E-2,-1.221729559E-3
5.921854827E2,3.207040019E-3,1.725693047E-2,0.000000000E0
5.926854827E2,1.527161920E-3,-2.794706449E-2,5.039634649E-3
5.931854827E2,4.581485991E-4,3.268126398E-2,-8.552107029E-3
5.936854827E2,-9.926552884E-3,-4.795288667E-2,9.773836471E-3
5.941854827E2,6.108647678E-3,1.939495653E-2,-3.054323839E-3
5.946854827E2,3.970621154E-3,3.634645417E-2,-5.955931731E-3
5.951854827E2,-5.039634649E-3,-4.718930274E-2,7.788525894E-3
5.956854827E2,1.221729559E-3,1.359174121E-2,-3.512472380E-3
5.961854827E2,2.748891478E-3,1.496618707E-2,6.108647678E-3
5.966854827E2,-2.138026757E-3,-2.290742937E-3,-7.330377586E-3
5.971854827E2,1.527161920E-3,-3.512472380E-3,1.221729536E-2
5.976854827E2,2.290742937E-3,1.618791744E-2,-1.389717404E-2
5.981854827E2,-1.985310577E-3,-2.489273995E-2,9.315688163E-3
5.986854827E2,2.443459118E-3,-7.177661173E-3,-4.886918236E-3
5.991854827E2,-2.748891478E-3,1.863137633E-2,5.650499370E-3
5.996854827E2,-2.443459118E-3,-1.893680729E-2,-4.581485991E-4
6.001854827E2,1.221729559E-3,7.330377586E-3,-1.832594397E-3
6.006854827E2,-3.054323897E-4,-1.252272818E-2,-6.566796452E-3
6.011854827E2,4.734201822E-3,1.863137633E-2,1.145371422E-2
6.016854827E2,1.832594397E-3,1.313359290E-2,-1.145371422E-2
6.021854827E2,-6.108647678E-3,-3.558287397E-2,7.788525894E-3
6.026854827E2,-2.596175298E-3,-1.374445739E-3,2.290742937E-3
6.031854827E2,-3.817904973E-3,-2.916879393E-2,-0.000000000E0
6.036854827E2,9.162971983E-4,3.359756200E-3,3.359756200E-3
6.041854827E2,-1.832594397E-3,-1.252272818E-2,6.719512399E-3
6.046854827E2,7.330377586E-3,3.268126398E-2,-1.603520103E-2
6.051854827E2,6.108647678E-3,3.985892609E-2,1.160643063E-2
6.056854827E2,1.069013379E-3,-4.306596518E-2,5.650499370E-3
6.061854827E2,4.276053514E-3,2.733619884E-2,1.069013379E-3
6.066854827E2,-6.108647794E-4,-3.634645417E-2,-3.817904973E-3
6.071854827E2,5.192350596E-3,6.230820715E-2,3.054323897E-4
6.076854827E2,-9.468403645E-3,-7.467821985E-2,1.374445762E-2
6.081854827E2,5.345067009E-3,3.970621154E-3,4.581485991E-4
6.086854827E2,3.268126398E-2,5.894844979E-2,2.672533318E-2
6.091854827E2,7.483093534E-3,-1.893680729E-2,-1.221729536E-2
6.096854827E2,5.497782957E-3,3.359756246E-2,2.290742937E-3
6.101854827E2,-3.817904973E-3,-4.123337194E-2,-1.985310577E-3
6.106854827E2,4.428769462E-3,3.375028074E-2,-5.955931731E-3
6.111854827E2,-6.108647794E-4,3.665188793E-3,5.192350596E-3
6.116854827E2,-6.108647678E-3,-2.168569900E-2,-2.290742937E-3
6.121854827E2,9.162971983E-4,-6.108647794E-4,4.276053514E-3
6.126854827E2,6.414080039E-3,2.489273995E-2,1.832594397E-3
6.131854827E2,2.748891478E-3,1.679878100E-3,-9.162971983E-4
6.136854827E2,1.618791744E-2,4.123337101E-3,2.153298259E-2
6.141854827E2,1.282816008E-2,-1.939495653E-2,2.092211880E-2
6.146854827E2,-3.512472380E-3,-2.748891478E-3,3.665188793E-3
6.151854827E2,-2.596175298E-3,1.374445739E-3,1.664606482E-2
6.156854827E2,-9.773836471E-3,-2.443459118E-3,1.985310577E-3
6.161854827E2,-1.527161949E-4,2.672533318E-2,-9.162971750E-3
6.166854827E2,-3.436114267E-2,-2.153298259E-2,-4.520399496E-2
6.171854827E2,-4.153880477E-2,-2.641990222E-2,-2.000582218E-2
6.176854827E2,-1.557705179E-2,7.437278330E-2,1.160643063E-2
6.181854827E2,-1.557705179E-2,7.437278330E-2,1.160643063E-2
6.186854827E2,-1.557705179E-2,7.437278330E-2,1.160643063E-2
6.191854827E2,-1.557705179E-2,7.437278330E-2,1.160643063E-2
6.196854827E2,-1.557705179E-2,7.437278330E-2,1.160643063E-2
6.201854827E2,-1.557705179E-2,7.437278330E-2,1.160643063E-2
6.206854827E2,-1.557705179E-2,7.437278330E-2,1.160643063E-2
6.211854827E2,-1.557705179E-2,7.437278330E-2,1.160643063E-2
6.216854827E2,-1.557705179E-2,7.437278330E-2,1.160643063E-2
6.221854827E2,-1.557705179E-2,7.437278330E-2,1.160643063E-2
6.226854827E2,-1.557705179E-2,7.437278330E-2,1.160643063E-2
6.231854827E2,-1.557705179E-2,7.437278330E-2,1.160643063E-2
6.236854827E2,-1.557705179E-2,7.437278330E-2,1.160643063E-2
6.241854827E2,-1.557705179E-2,7.437278330E-2,1.160643063E-2
6.246854827E2,-1.557705179E-2,7.437278330E-2,1.160643063E-2
6.251854827E2,-1.557705179E-2,7.437278330E-2,1.160643063E-2
6.256854827E2,-1.557705179E-2,7.437278330E-2,1.160643063E-2
6.261854827E2,-1.557705179E-2,7.437278330E-2,1.160643063E-2
6.266854827E2,-1.557705179E-2,7.437278330E-2,1.160643063E-2
6.271854827E2,-1.557705179E-2,7.437278330E-2,1.160643063E-2
6.276854827E2,-1.557705179E-2,7.437278330E-2,1.160643063E-2
6.281854827E2,-1.557705179E-2,7.437278330E-2,1.160643063E-2
6.286854827E2,-1.557705179E-2,7.437278330E-2,1.160643063E-2
6.291854827E2,-1.557705179E-2,7.437278330E-2,1.160643063E-2
6.296854827E2,-1.557705179E-2,7.437278330E-2,1.160643063E-2
6.301854827E2,-1.557705179E-2,7.437278330E-2,1.160643063E-2
6.306854827E2,-1.557705179E-2,7.437278330E-2,1.160643063E-2
6.311854827E2,-1.557705179E-2,7.437278330E-2,1.160643063E-2
6.316854827E2,-1.557705179E-2,7.437278330E-2,1.160643063E-2
6.321854827E2,-1.557705179E-2,7.437278330E-2,1.160643063E-2
6.326854827E2,-1.557705179E-2,7.437278330E-2,1.160643063E-2
6.331854827E2,-1.557705179E-2,7.437278330E-2,1.160643063E-2
6.336854827E2,-1.557705179E-2,7.437278330E-2,1.160643063E-2
6.341854827E2,-1.557705179E-2,7.437278330E-2,1.160643063E-2
6.346854827E2,-1.557705179E-2,7.437278330E-2,1.160643063E-2
6.351854827E2,-1.557705179E-2,7.437278330E-2,1.160643063E-2
6.356854827E2,-1.557705179E-2,7.437278330E-2,1.160643063E-2
6.361854827E2,-1.557705179E-2,7.437278330E-2,1.160643063E-2
6.366854827E2,-1.557705179E-2,7.437278330E-2,1.160643063E-2
6.371854827E2,-1.557705179E-2,7.437278330E-2,1.160643063E-2
6.376854827E2,-1.557705179E-2,7.437278330E-2,1.160643063E-2
6.381854827E2,-1.557705179E-2,7.437278330E-2,1.160643063E-2
6.386854827E2,-1.557705179E-2,7.437278330E-2,1.160643063E-2
6.391854827E2,-1.557705179E-2,7.437278330E-2,1.160643063E-2
6.396854827E2,-1.557705179E-2,7.437278330E-2,1.160643063E-2
6.401854827E2,-1.557705179E-2,7.437278330E-2,1.160643063E-2
6.406854827E2,-1.557705179E-2,7.437278330E-2,1.160643063E-2
6.411854827E2,-1.557705179E-2,7.437278330E-2,1.160643063E-2
6.416854827E2,-1.557705179E-2,7.437278330E-2,1.160643063E-2
6.421854827E2,-1.557705179E-2,7.437278330E-2,1.160643063E-2
6.426854827E2,-1.557705179E-2,7.437278330E-2,1.160643063E-2
6.431854827E2,-1.557705179E-2,7.437278330E-2,1.160643063E-2
6.436854827E2,-1.557705179E-2,7.437278330E-2,1.160643063E-2
6.441854827E2,-1.557705179E-2,7.437278330E-2,1.160643063E-2
6.446854827E2,-1.557705179E-2,7.437278330E-2,1.160643063E-2
6.451854827E2,-1.557705179E-2,7.437278330E-2,1.160643063E-2
6.456854827E2,-1.557705179E-2,7.437278330E-2,1.160643063E-2
6.461854827E2,-1.557705179E-2,7.437278330E-2,1.160643063E-2
6.466854827E2,-1.557705179E-2,7.437278330E-2,1.160643063E-2
6.471854827E2,-1.557705179E-2,7.437278330E-2,1.160643063E-2
6.476854827E2,-1.557705179E-2,7.437278330E-2,1.160643063E-2
6.481854827E2,3.176496923E-2,-1.343902480E-2,-0.000000000E0
6.486854827E2,-9.315688163E-3,-4.841103405E-2,1.527161920E-3
6.491854827E2,6.566796452E-3,2.290742844E-2,1.740964688E-2
6.496854827E2,1.221729559E-3,-1.527161949E-4,4.428769462E-3
6.501854827E2,-3.665188793E-3,1.618791744E-2,8.093958721E-3
6.506854827E2,-3.512472380E-3,2.596175298E-3,1.267544460E-2
6.511854827E2,0.000000000E0,3.207040019E-3,6.108647678E-3
6.516854827E2,3.359756200E-3,2.000582218E-2,1.069013379E-3
6.521854827E2,-4.581485875E-3,-2.061668597E-2,3.665188793E-3
6.526854827E2,-6.414080039E-3,-1.450803876E-2,7.483093534E-3
6.531854827E2,-4.581485991E-4,2.351829410E-2,8.552107029E-3
6.536854827E2,1.664606482E-2,3.680460155E-2,5.131264031E-2
6.541854827E2,1.221729559E-3,3.207040019E-3,1.114828233E-2
6.546854827E2,4.886918236E-3,-3.054323839E-3,-4.581485875E-3
6.551854827E2,5.192350596E-3,-6.872228812E-3,1.145371422E-2
6.556854827E2,-4.581485991E-4,-6.261364091E-3,1.374445739E-3
6.561854827E2,-1.374445739E-3,-1.832594350E-2,-5.497782957E-3
6.566854827E2,-5.803215317E-3,-1.496618707E-2,1.527161920E-3
6.571854827E2,-7.177661173E-3,6.108647678E-3,-1.496618707E-2
6.576854827E2,-9.162971983E-4,2.657261863E-2,4.734201822E-3
6.581854827E2,-2.901607659E-3,6.566796452E-3,-3.970621154E-3
6.586854827E2,-3.817904973E-3,2.122755162E-2,-7.177661173E-3
6.591854827E2,-5.650499370E-3,1.130099874E-2,1.069013379E-3
6.596854827E2,-5.345067009E-3,9.162971750E-3,-3.207040019E-3
6.601854827E2,-1.496618707E-2,3.130681813E-2,-2.336557768E-2
6.606854827E2,2.138026804E-2,7.651081681E-2,-2.886336111E-2
6.611854827E2,1.802051067E-2,1.649334840E-2,2.290742937E-3
6.616854827E2,-7.024944760E-3,-6.108647794E-4,3.665188793E-3
6.621854827E2,-7.788525894E-3,5.497782957E-3,5.345067009E-3
6.626854827E2,1.404988952E-2,-9.010255337E-3,-1.313359290E-2
6.631854827E2,-3.054323839E-3,7.635809598E-4,7.177661173E-3
6.636854827E2,1.527161920E-3,1.527161949E-4,-4.581485991E-4
6.641854827E2,-7.635809598E-4,-6.108647794E-4,2.901607659E-3
6.646854827E2,-2.596175298E-3,7.635809598E-4,6.108647794E-4
6.651854827E2,-7.635809598E-4,-1.069013379E-3,1.527161949E-4
6.656854827E2,-1.527161920E-3,1.221729559E-3,7.635809598E-4
6.661854827E2,-6.108647794E-4,-0.000000000E0,7.635809598E-4
6.666854827E2,1.221729559E-3,-1.527161949E-4,6.108647794E-4
6.671854827E2,-1.527161949E-4,-1.374445739E-3,3.054323897E-4
6.676854827E2,-1.221729559E-3,-1.069013379E-3,1.527161920E-3
6.681854827E2,-4.581485991E-4,-2.138026757E-3,4.581485991E-4
6.686854827E2,-7.635809598E-4,-1.527161949E-4,-0.000000000E0
6.691854827E2,-2.748891478E-3,-1.832594397E-3,4.581485991E-4
6.696854827E2,2.443459118E-3,4.581485991E-4,-9.162971983E-4
6.701854827E2,-1.985310577E-3,-1.527161989E-2,2.290742937E-3
6.706854827E2,6.108647794E-4,-1.679878100E-3,-4.581485991E-4
6.711854827E2,4.581485991E-4,3.512472380E-3,-1.069013379E-3
6.716854827E2,-1.069013379E-3,-9.162971983E-4,1.069013379E-3
6.721854827E2,3.054323897E-4,9.162971983E-4,-6.108647794E-4
6.726854827E2,-1.527161920E-3,-1.069013379E-3,6.108647794E-4
6.731854827E2,-3.054323897E-4,0.000000000E0,0.000000000E0
6.736854827E2,1.679878100E-3,6.108647794E-4,-3.054323897E-4
6.741854827E2,-5.497782957E-3,-1.252272818E-2,-1.679878100E-3
6.746854827E2,-2.886336111E-2,-1.313359290E-2,-2.855792828E-2
6.751854827E2,5.955931731E-3,3.283398226E-2,-9.162971983E-4
6.756854827E2,1.221729559E-3,4.581485875E-3,7.483093534E-3
6.761854827E2,-9.162971983E-4,1.527161949E-4,-1.985310577E-3
6.766854827E2,-3.054323839E-3,-3.359756200E-3,8.093958721E-3
6.771854827E2,1.374445739E-3,-1.206457894E-2,-7.177661173E-3
6.776854827E2,2.489273995E-2,-1.298087649E-2,-5.497782957E-3
6.781854827E2,3.512472380E-3,-1.527161949E-4,-1.069013379E-3
6.786854827E2,3.512472380E-3,-1.527161949E-4,-1.069013379E-3
6.791854827E2,3.512472380E-3,-1.527161949E-4,-1.069013379E-3
6.796854827E2,3.512472380E-3,-1.527161949E-4,-1.069013379E-3
6.801854827E2,3.512472380E-3,-1.527161949E-4,-1.069013379E-3
6.806854827E2,3.512472380E-3,-1.527161949E-4,-1.069013379E-3
6.811854827E2,3.512472380E-3,-1.527161949E-4,-1.069013379E-3
6.816854827E2,3.512472380E-3,-1.527161949E-4,-1.069013379E-3
6.821854827E2,3.512472380E-3,-1.527161949E-4,-1.069013379E-3
6.826854827E2,3.512472380E-3,-1.527161949E-4,-1.069013379E-3
6.831854827E2,3.512472380E-3,-1.527161949E-4,-1.069013379E-3
6.836854827E2,3.512472380E-3,-1.527161949E-4,-1.069013379E-3
6.841854827E2,3.512472380E-3,-1.527161949E-4,-1.069013379E-3
6.846854827E2,3.512472380E-3,-1.527161949E-4,-1.069013379E-3
6.851854827E2,3.512472380E-3,-1.527161949E-4,-1.069013379E-3
6.856854827E2,3.512472380E-3,-1.527161949E-4,-1.069013379E-3
6.861854827E2,3.512472380E-3,-1.527161949E-4,-1.069013379E-3
6.866854827E2,3.512472380E-3,-1.527161949E-4,-1.069013379E-3
6.871854827E2,3.512472380E-3,-1.527161949E-4,-1.069013379E-3
6.876854827E2,3.512472380E-3,-1.527161949E-4,-1.069013379E-3
6.881854827E2,3.512472380E-3,-1.527161949E-4,-1.069013379E-3
6.886854827E2,3.512472380E-3,-1.527161949E-4,-1.069013379E-3
6.891854827E2,3.512472380E-3,-1.527161949E-4,-1.069013379E-3
6.896854827E2,3.512472380E-3,-1.527161949E-4,-1.069013379E-3
6.901854827E2,3.512472380E-3,-1.527161949E-4,-1.069013379E-3
6.906854827E2,3.512472380E-3,-1.527161949E-4,-1.069013379E-3
6.911854827E2,3.512472380E-3,-1.527161949E-4,-1.069013379E-3
6.916854827E2,3.512472380E-3,-1.527161949E-4,-1.069013379E-3
6.921854827E2,3.512472380E-3,-1.527161949E-4,-1.069013379E-3
6.926854827E2,3.512472380E-3,-1.527161949E-4,-1.069013379E-3
6.931854827E2,3.512472380E-3,-1.527161949E-4,-1.069013379E-3
6.936854827E2,3.512472380E-3,-1.527161949E-4,-1.069013379E-3
6.941854827E2,3.512472380E-3,-1.527161949E-4,-1.069013379E-3
6.946854827E2,3.512472380E-3,-1.527161949E-4,-1.069013379E-3
6.951854827E2,3.512472380E-3,-1.527161949E-4,-1.069013379E-3
6.956854827E2,3.512472380E-3,-1.527161949E-4,-1.069013379E-3
6.961854827E2,3.512472380E-3,-1.527161949E-4,-1.069013379E-3
6.966854827E2,3.512472380E-3,-1.527161949E-4,-1.069013379E-3
6.971854827E2,3.512472380E-3,-1.527161949E-4,-1.069013379E-3
6.976854827E2,3.512472380E-3,-1.527161949E-4,-1.069013379E-3
6.981854827E2,3.512472380E-3,-1.527161949E-4,-1.069013379E-3
6.986854827E2,3.512472380E-3,-1.527161949E-4,-1.069013379E-3
6.991854827E2,3.512472380E-3,-1.527161949E-4,-1.069013379E-3
6.996854827E2,3.512472380E-3,-1.527161949E-4,-1.069013379E-3
7.001854827E2,3.512472380E-3,-1.527161949E-4,-1.069013379E-3
7.006854827E2,3.512472380E-3,-1.527161949E-4,-1.069013379E-3
7.011854827E2,3.512472380E-3,-1.527161949E-4,-1.069013379E-3
7.016854827E2,3.512472380E-3,-1.527161949E-4,-1.069013379E-3
7.021854827E2,3.512472380E-3,-1.527161949E-4,-1.069013379E-3
7.026854827E2,3.512472380E-3,-1.527161949E-4,-1.069013379E-3
7.031854827E2,3.512472380E-3,-1.527161949E-4,-1.069013379E-3
7.036854827E2,3.512472380E-3,-1.527161949E-4,-1.069013379E-3
7.041854827E2,3.512472380E-3,-1.527161949E-4,-1.069013379E-3
7.046854827E2,3.512472380E-3,-1.527161949E-4,-1.069013379E-3
7.051854827E2,3.512472380E-3,-1.527161949E-4,-1.069013379E-3
7.056854827E2,3.512472380E-3,-1.527161949E-4,-1.069013379E-3
7.061854827E2,3.512472380E-3,-1.527161949E-4,-1.069013379E-3
7.066854827E2,3.512472380E-3,-1.527161949E-4,-1.069013379E-3
7.071854827E2,3.512472380E-3,-1.527161949E-4,-1.069013379E-3
7.076854827E2,3.512472380E-3,-1.527161949E-4,-1.069013379E-3
7.081854827E2,3.512472380E-3,-1.527161949E-4,-1.069013379E-3
7.086854827E2,3.512472380E-3,-1.527161949E-4,-1.069013379E-3
7.091854827E2,-3.054323979E-2,-1.343902480E-2,-1.802051067E-2
7.096854827E2,7.941242307E-3,-1.832594350E-2,5.849030241E-2
7.101854827E2,-3.985892609E-2,3.726275265E-2,-5.711585656E-2
7.106854827E2,-1.053741761E-2,-1.359174121E-2,-1.878409274E-2
7.111854827E2,7.574722916E-2,-4.491383433E-1,-1.085812151E-1
7.116854827E2,5.484038591E-1,3.854556680E-1,-5.968148708E-1
7.129857014E2,9.239330143E-2,2.231183648E-1,1.957821548E-1
7.134857014E2,1.937968582E-1,1.742491722E-1,9.560033679E-2
7.139857014E2,2.280052751E-1,2.072358727E-1,-2.412915789E-2
7.144857014E2,1.175914705E-2,-7.254019380E-2,-4.978547990E-2
7.149857014E2,1.449276656E-1,1.053741761E-2,4.062250629E-2
7.154857014E2,-1.018617004E-1,-2.367101051E-2,-4.489856213E-2
7.159857014E2,9.117157012E-2,-6.398808211E-2,-5.467239767E-2
7.164857014E2,-4.932733253E-2,-1.054810762E0,8.949168772E-2
7.169857014E2,-5.013672709E-1,-8.348994255E-1,3.863719702E-1
7.174857014E2,-7.163916826E-1,5.542070866E-1,-1.829539984E-1
7.179857014E2,1.204930767E-1,-2.301433086E-1,2.718348242E-2
7.184857014E2,2.519817278E-2,7.284562290E-2,3.817904741E-2
7.189857014E2,2.732092738E-1,-2.977965772E-2,2.107483521E-2
7.194857014E2,2.793179154E-1,2.170097083E-1,-1.010981202E-1
7.199857014E2,-1.678351015E-1,2.622137070E-1,1.334739476E-1
7.204857014E2,1.266017258E-1,-1.385135949E-1,5.192350596E-3
7.209857014E2,1.542433538E-2,7.162389904E-2,7.635809947E-3
7.214857014E2,-2.855792828E-2,7.651081681E-2,1.252272818E-2
7.219857014E2,2.886336111E-2,1.058323234E-1,-8.277218044E-2
7.224857014E2,-1.389717404E-2,7.040216774E-2,-1.191186346E-2
7.229857014E2,-9.086613357E-2,-3.711003438E-2,-3.359756200E-3
7.234857014E2,1.730274558E-1,-9.453132749E-2,2.962694131E-2
7.239857014E2,1.534797698E-1,-7.864884287E-2,1.374445762E-2
7.244857014E2,-1.934914142E-1,-1.947131455E-1,6.139190868E-2
7.249857014E2,-2.655734718E-1,-3.291034102E-1,6.994401664E-2
7.254857014E2,1.815795600E-1,-7.376192510E-2,-5.589412898E-2
7.259857014E2,-2.733619884E-2,2.011272311E-1,-7.422006875E-2
7.264857014E2,-6.643154472E-2,-5.345067009E-3,1.985310577E-2
7.269857014E2,-1.898262352E-1,-4.321868345E-2,1.863137633E-2
7.274857014E2,1.143844277E-1,2.475529462E-1,-1.084285006E-1
7.279857014E2,-4.199695215E-2,-7.788525894E-3,2.189950198E-1
7.284857014E2,-5.054906011E-2,4.352411628E-2,-4.581485875E-3
7.289857014E2,-3.588830680E-2,1.082757786E-1,1.334739476E-1
7.294857014E2,-1.214093715E-1,7.773254067E-2,-1.230892539E-1
7.299857014E2,8.139773458E-2,4.428769462E-3,1.359174103E-1
7.304857014E2,-6.643154472E-2,1.314886510E-1,-6.811141968E-2
7.309857014E2,2.519817278E-2,-4.199695215E-2,3.451386094E-2
7.314857014E2,4.352411628E-2,-4.566214234E-2,-1.679878123E-2
7.319857014E2,-2.411388755E-1,-6.765327603E-2,9.193515033E-2
7.324857014E2,2.031125315E-2,7.528908551E-2,-1.435532235E-2
7.329857014E2,-9.575305134E-2,6.673697382E-2,1.527161920E-3
7.334857014E2,-1.878409274E-2,3.497200832E-2,3.970621154E-3
7.339857014E2,-3.833176568E-2,4.108065739E-2,-4.001164436E-2
7.344857014E2,-1.116355360E-1,7.162389904E-2,-5.955931544E-2
7.349857014E2,-3.588830680E-2,-2.692386508E-1,8.460476995E-2
7.354857014E2,1.786779426E-2,8.750637621E-2,4.306596518E-2
7.359857014E2,1.974620372E-1,-6.765327603E-2,2.229656465E-2
7.364857014E2,-6.032289565E-2,5.940660089E-2,-4.581485875E-3
7.369857014E2,7.406735420E-2,2.519817278E-2,2.107483521E-2
7.374857014E2,-8.353576064E-2,5.085449293E-2,7.635809947E-3
7.379857014E2,-5.054906011E-2,1.094975099E-1,-2.657261863E-2
7.384857014E2,6.795870513E-2,3.207040019E-3,8.857538924E-3
7.389857014E2,-4.810560122E-2,-1.023198478E-2,-1.069013402E-2
7.394857014E2,-7.788525894E-3,-1.634063199E-2,8.857538924E-3
7.399857014E2,9.239330143E-2,-1.267544460E-2,1.130099874E-2
7.404857014E2,-6.032289565E-2,7.651081681E-2,-2.535088919E-2
7.409857014E2,-1.023198478E-2,-9.208786488E-2,3.970621154E-3
7.414857014E2,6.673697382E-2,3.130681813E-2,-1.679878123E-2
7.419857014E2,-5.177079141E-2,1.985310577E-3,1.252272818E-2
7.424857014E2,-4.810560122E-2,-3.132209182E-1,-2.290742844E-2
7.429857014E2,1.298087649E-2,4.596757516E-2,7.605266571E-2
7.434857014E2,2.275471389E-2,3.130681813E-2,-5.833758786E-2
7.439857014E2,4.428769462E-3,7.773254067E-2,-1.069013402E-2
7.444857014E2,-3.222311661E-2,-2.977965772E-2,-2.412915789E-2
7.449857014E2,-5.345067009E-3,5.085449293E-2,-2.138026757E-3
7.454857014E2,1.908952370E-2,-1.756236330E-2,-4.489856213E-2
7.459857014E2,-1.756236330E-2,-2.611446939E-2,1.496618707E-2
7.464857014E2,3.619373962E-2,-1.679878100E-3,-2.779434808E-2
7.469857014E2,-2.855792828E-2,-3.588830680E-2,1.496618707E-2
7.474857014E2,3.619373962E-2,1.664606482E-2,-2.901607752E-2
7.479857014E2,-2.489273995E-2,-2.122755162E-2,1.496618707E-2
7.484857014E2,3.497200832E-2,9.315688163E-3,-2.657261863E-2
7.489857014E2,-3.588830680E-2,7.635809598E-4,1.985310577E-2
7.494857014E2,3.252854943E-2,-1.145371422E-2,-2.657261863E-2
7.499857014E2,-4.444041103E-2,9.315688163E-3,2.596175298E-2
7.504857014E2,3.130681813E-2,3.008509055E-2,-4.581485875E-3
7.509857014E2,-3.711003438E-2,-9.010255337E-3,1.985310577E-2
7.514857014E2,9.850194305E-2,-6.276635826E-2,1.527161920E-3
7.519857014E2,-2.489273995E-2,1.175914705E-2,-3.634645417E-2
7.524857014E2,-1.116355360E-1,1.339320987E-1,3.817904741E-2
7.529857014E2,2.886336111E-2,6.429351866E-2,1.740964688E-2
7.534857014E2,1.388190240E-1,-1.145371422E-2,1.740964688E-2
7.539857014E2,3.252854943E-2,4.841103405E-2,3.940077871E-2
7.544857014E2,6.673697382E-2,-4.199695215E-2,-9.162971983E-4
7.549857014E2,3.130681813E-2,-2.855792828E-2,1.374445762E-2
7.554857014E2,-9.208786488E-2,-2.977965772E-2,3.207040206E-2
7.559857014E2,9.315688163E-3,-5.054906011E-2,-3.145953640E-2
7.564857014E2,-1.617264450E-1,1.082757786E-1,-1.182023361E-1
7.569857014E2,1.420260593E-2,-7.864884287E-2,1.863137633E-2
7.574857014E2,-4.123337101E-3,-2.489273995E-2,1.740964688E-2
7.579857014E2,-1.030834317E-1,3.985892609E-2,-6.811141968E-2
7.584857014E2,1.473711282E-1,-1.104138121E-1,2.596175298E-2
7.589857014E2,-1.023198478E-2,-1.201876476E-1,-4.489856213E-2
7.594857014E2,7.284562290E-2,-2.814559340E-1,-3.359756200E-3
7.599857014E2,2.463312149E-1,-6.052142978E-1,2.470948100E-1
7.604857014E2,3.819431961E-1,-2.533561587E-1,5.525271893E-1
7.609857014E2,3.375028074E-2,-1.634063199E-2,3.054323897E-4
7.614857014E2,-5.054906011E-2,-9.941824526E-2,2.107483521E-2
7.619857014E2,-2.244928107E-2,3.685041666E-1,4.917461425E-2
7.624857014E2,1.033888608E-1,-2.863428593E-1,2.962694131E-2
7.629857014E2,-5.054906011E-2,-1.592829973E-1,2.474002354E-2
7.634857014E2,-3.344484791E-2,2.988655865E-1,-5.803215317E-3
7.639857014E2,-1.511890348E-2,2.519817278E-2,1.130099874E-2
7.644857014E2,1.908952370E-2,-1.849393100E-1,-1.069013402E-2
7.649857014E2,1.253799945E-1,-4.444041103E-2,-7.024944760E-3
7.654857014E2,-9.819651395E-2,5.566505194E-1,1.374445762E-2
7.659857014E2,1.168278903E-1,-9.208786488E-2,-1.313359290E-2
7.664857014E2,1.718057245E-1,-1.756236330E-2,1.527161920E-3
7.669857014E2,6.673697382E-2,5.696314201E-2,-4.978547990E-2
7.674857014E2,9.972367436E-2,-1.189659163E-1,5.406153202E-2
7.679857014E2,-2.855792828E-2,-1.262962967E-1,9.315688163E-2
7.684857014E2,-5.345067009E-3,3.207040019E-3,8.857538924E-3
7.689857014E2,-1.043051630E-1,-1.519526094E-1,-1.679878123E-2
7.694857014E2,-1.470656991E-1,5.358811021E-1,7.971785218E-2
7.699857014E2,4.474584386E-2,1.375972927E-1,8.460476995E-2
7.704857014E2,2.764163166E-2,7.406735420E-2,-3.268126398E-2
7.709857014E2,-4.688387364E-2,2.153298259E-2,1.252272818E-2
7.714857014E2,4.352411628E-2,-1.653916389E-1,-3.359756200E-3
7.719857014E2,8.017600328E-2,-2.244928107E-2,8.857538924E-3
7.724857014E2,1.298087649E-2,1.908952370E-2,1.252272818E-2
7.729857014E2,-5.665770918E-2,3.184132576E-1,3.329212964E-2
7.734857014E2,-5.054906011E-2,3.049742281E-1,4.428769648E-2
7.739857014E2,-3.955349326E-2,6.673697382E-2,3.817904741E-2
7.744857014E2,-3.711003438E-2,7.284562290E-2,1.252272818E-2
7.749857014E2,-4.123337101E-3,-1.079703495E-1,-2.046396956E-2
7.754857014E2,-2.367101051E-2,2.499964088E-1,4.673115537E-2
7.759857014E2,-9.010255337E-3,8.384118974E-2,-1.353065521E-1
7.764857014E2,-1.947131455E-1,4.100429714E-1,1.188132018E-1
7.769857014E2,-6.566796452E-3,-3.474293351E-1,4.917461425E-2
7.774857014E2,-1.634063199E-2,1.937968582E-1,2.107483521E-2
7.779857014E2,-5.177079141E-2,9.239330143E-2,8.857538924E-3
7.784857014E2,-6.154462695E-2,2.096793354E-1,-2.657261863E-2
7.789857014E2,2.519817278E-2,8.506292105E-2,7.635809947E-3
7.794857014E2,3.252854943E-2,-1.250745654E-1,8.857538924E-3
7.799857014E2,1.070540547E-1,-1.385135949E-1,-9.376774728E-2
7.804857014E2,-1.299614757E-1,2.988655865E-1,8.338304609E-2
7.809857014E2,-3.466657549E-2,-4.688387364E-2,4.428769648E-2
7.814857014E2,8.093958721E-3,1.168278903E-1,8.857538924E-3
7.819857014E2,2.397644334E-2,-1.140789986E-1,-1.313359290E-2
7.824857014E2,-8.720094711E-2,3.159697950E-1,6.994401664E-2
7.829857014E2,-6.887500733E-2,8.384118974E-2,6.017018110E-2
7.834857014E2,1.053741761E-2,-1.629481763E-1,1.130099874E-2
7.839857014E2,3.375028074E-2,6.551524997E-2,2.229656465E-2
7.844857014E2,1.908952370E-2,2.397644334E-2,-3.023780696E-2
7.849857014E2,1.908952370E-2,-7.742711157E-2,1.496618707E-2
7.854857014E2,1.298087649E-2,-1.226311028E-1,4.306596518E-2
7.859857014E2,1.908952370E-2,-3.833176568E-2,2.748891478E-3
7.864857014E2,-1.055268943E-1,-4.123337101E-3,1.618791744E-2
7.869857014E2,-1.617264450E-1,1.094975099E-1,6.261363626E-2
7.874857014E2,-2.008218020E-1,4.963276163E-2,3.207040206E-2
7.879857014E2,-2.472475171E-1,1.542433538E-2,3.207040206E-2
7.884857014E2,-2.851211429E-1,-2.901607659E-3,-4.612028971E-2
7.889857014E2,-2.350302190E-1,2.939786613E-1,3.054323897E-4
7.894857014E2,-1.849393100E-1,8.994983882E-2,-1.069013402E-2
7.899857014E2,-1.238528341E-1,-5.421425030E-2,4.062250629E-2
7.904857014E2,-1.385135949E-1,1.388190240E-1,-7.024944760E-3
7.909857014E2,-9.697478265E-2,3.130681813E-2,-3.145953640E-2
7.914857014E2,-4.688387364E-2,1.510363221E-1,-4.123337194E-2
7.919857014E2,2.031125315E-2,1.608101577E-1,-2.657261863E-2
7.924857014E2,-5.787943676E-2,-9.453132749E-2,3.054323897E-4
7.929857014E2,3.619373962E-2,8.261945844E-2,1.130099874E-2
7.934857014E2,2.275471389E-2,-1.458439678E-1,-1.679878123E-2
7.939857014E2,4.963276163E-2,-1.531743407E-1,5.894844979E-2
7.944857014E2,1.009454057E-1,-1.934914142E-1,6.414080039E-3
7.949857014E2,4.841103405E-2,-2.948949635E-1,7.635809947E-3
7.954857014E2,-7.987056673E-2,1.046105921E-1,1.985310577E-2
7.959857014E2,-1.679878100E-3,1.021671370E-1,-1.069013402E-2
7.964857014E2,6.872228812E-3,-1.140789986E-1,-2.779434808E-2
7.969857014E2,-2.489273995E-2,1.656970680E-1,1.740964688E-2
7.974857014E2,8.093958721E-3,-2.611446939E-2,1.863137633E-2
7.979857014E2,-1.634063199E-2,1.786779426E-2,-1.679878123E-2
7.984857014E2,-1.634063199E-2,6.429351866E-2,-3.145953640E-2
7.989857014E2,6.872228812E-3,-2.000582218E-2,1.985310577E-2
7.994857014E2,1.053741761E-2,-2.855792828E-2,-1.435532235E-2
7.999857014E2,-2.977965772E-2,6.673697382E-2,-2.412915789E-2
8.004857014E2,8.093958721E-3,3.207040019E-3,-9.468403645E-3
8.009857014E2,-1.023198478E-2,1.542433538E-2,8.857538924E-3
8.014857014E2,-5.345067009E-3,2.031125315E-2,-1.924224012E-2
8.019857014E2,-4.581485991E-4,3.252854943E-2,1.374445762E-2
8.024857014E2,2.764163166E-2,1.985310577E-3,-1.679878123E-2
8.029857014E2,7.635809598E-4,3.375028074E-2,8.857538924E-3
8.034857014E2,3.207040019E-3,1.985310577E-3,-1.313359290E-2
8.039857014E2,1.298087649E-2,3.497200832E-2,8.857538924E-3
8.044857014E2,-5.345067009E-3,6.551524997E-2,-2.168569900E-2
8.049857014E2,-2.611446939E-2,2.397644334E-2,-2.290742844E-2
8.054857014E2,-1.679878100E-3,-2.733619884E-2,-5.803215317E-3
8.059857014E2,-1.679878100E-3,-6.643154472E-2,-1.069013402E-2
8.064857014E2,-9.010255337E-3,-2.855792828E-2,-1.802051067E-2
8.069857014E2,4.428769462E-3,-1.023198478E-2,-8.246674202E-3
8.074857014E2,4.428769462E-3,-4.566214234E-2,-2.412915789E-2
8.079857014E2,-4.123337101E-3,-2.122755162E-2,-9.162971983E-4
8.084857014E2,-1.756236330E-2,2.153298259E-2,-1.679878123E-2
8.089857014E2,3.207040019E-3,3.207040019E-3,6.414080039E-3
8.094857014E2,1.985310577E-3,2.886336111E-2,-1.924224012E-2
8.099857014E2,-1.023198478E-2,2.275471389E-2,1.007926930E-2
8.104857014E2,-1.267544460E-2,3.130681813E-2,-2.290742844E-2
8.109857014E2,-4.123337101E-3,8.093958721E-3,3.970621154E-3
8.114857014E2,1.053741761E-2,-1.511890348E-2,-3.390299529E-2
8.119857014E2,-1.145371422E-2,2.153298259E-2,2.748891478E-3
8.124857014E2,-1.634063199E-2,3.252854943E-2,-4.123337194E-2
8.129857014E2,2.764163166E-2,-9.086613357E-2,-1.924224012E-2
8.134857014E2,-1.511890348E-2,3.619373962E-2,-3.145953640E-2
8.139857014E2,1.985310577E-3,1.053741761E-2,2.748891478E-3
8.144857014E2,-5.665770918E-2,7.162389904E-2,3.329212964E-2
8.149857014E2,5.696314201E-2,-1.006399691E-1,8.857538924E-3
8.154857014E2,-1.878409274E-2,5.940660089E-2,-9.162971983E-4
8.159857014E2,-3.222311661E-2,8.750637621E-2,8.857538924E-3
8.164857014E2,-1.145371422E-2,8.628465235E-2,-8.246674202E-3
8.169857014E2,3.985892609E-2,-5.054906011E-2,3.054323897E-4
8.174857014E2,-4.444041103E-2,1.786779426E-2,-1.313359290E-2
8.179857014E2,-1.145371422E-2,-4.199695215E-2,2.748891478E-3
8.184857014E2,1.985310577E-3,1.143844277E-1,2.748891478E-3
8.189857014E2,3.497200832E-2,-1.153007299E-1,-4.581485875E-3
8.194857014E2,6.551524997E-2,-8.231402934E-2,-2.779434808E-2
8.199857014E2,-2.244928107E-2,1.175914705E-2,5.192350596E-3
8.204857014E2,-1.348484010E-1,-7.864884287E-2,1.740964688E-2
8.209857014E2,-1.800523996E-1,1.253799945E-1,4.062250629E-2
8.214857014E2,-2.081521749E-1,-1.238528341E-1,-3.023780696E-2
8.219857014E2,-2.313650399E-1,-1.177441850E-1,4.184423760E-2
8.224857014E2,-1.873827726E-1,-5.062541962E-1,1.130099874E-2
8.229857014E2,-2.533561587E-1,-1.023198478E-2,3.817904741E-2
8.234857014E2,-2.313650399E-1,-1.678351015E-1,-1.096502244E-1
8.239857014E2,-1.812741160E-1,1.046105921E-1,4.550942779E-2
8.244857014E2,-1.287397593E-1,1.278234571E-1,5.406153202E-2
8.249857014E2,-1.910479665E-1,4.356993139E-1,-3.512472659E-2
8.254857014E2,-1.679878100E-3,2.031125315E-2,-8.246674202E-3
8.259857014E2,-2.000582218E-2,-2.244928107E-2,7.360920310E-2
8.264857014E2,6.062832847E-2,-6.520981342E-2,1.496618707E-2
8.269857014E2,-7.620538026E-2,-3.466657549E-2,1.740964688E-2
8.274857014E2,9.483675659E-2,-2.977965772E-2,-9.162971983E-4
8.279857014E2,-1.043051630E-1,2.732092738E-1,1.007926930E-2
8.284857014E2,-2.367101051E-2,-1.262962967E-1,1.740964688E-2
8.289857014E2,-6.566796452E-3,8.628465235E-2,2.748891478E-3
8.294857014E2,-4.932733253E-2,1.388190240E-1,2.474002354E-2
8.299857014E2,-1.267544460E-2,-3.100138716E-2,2.474002354E-2
8.304857014E2,-5.345067009E-3,-1.934914142E-1,-1.191186346E-2
8.309857014E2,2.886336111E-2,-1.556178033E-1,1.527161920E-3
8.314857014E2,-2.244928107E-2,2.109010667E-1,-2.138026757E-3
8.319857014E2,6.872228812E-3,7.162389904E-2,6.872228533E-2
8.324857014E2,-1.389717404E-2,1.644753367E-1,4.306596518E-2
8.329857014E2,6.307178736E-2,-2.244928107E-2,4.062250629E-2
8.334857014E2,-7.742711157E-2,6.307178736E-2,-2.535088919E-2
8.339857014E2,-9.010255337E-3,9.728021920E-2,2.962694131E-2
8.344857014E2,1.070540547E-1,-1.495091617E-1,-7.666353136E-2
8.349857014E2,-2.901607659E-3,-7.864884287E-2,-3.023780696E-2
8.354857014E2,-3.466657549E-2,8.261945844E-2,-1.557705179E-2
8.359857014E2,-1.267544460E-2,-2.000582218E-2,2.718348242E-2
8.364857014E2,1.175914705E-2,-4.444041103E-2,-4.581485875E-3
8.369857014E2,1.542433538E-2,1.985310577E-3,-3.512472659E-2
8.374857014E2,-1.756236330E-2,-2.901607659E-3,-2.779434808E-2
8.379857014E2,-1.385135949E-1,8.261945844E-2,-3.023780696E-2
8.384857014E2,4.474584386E-2,-1.934914142E-1,9.315688163E-2
8.389857014E2,-9.010255337E-3,-6.276635826E-2,-2.168569900E-2
8.394857014E2,3.863719851E-2,-1.055268943E-1,-3.023780696E-2
8.399857014E2,-7.254019380E-2,-8.720094711E-2,-4.001164436E-2
8.404857014E2,-9.575305134E-2,-1.336266696E-1,-1.069013402E-2
8.409857014E2,-1.763872057E-1,-2.977965772E-2,-2.657261863E-2
8.414857014E2,-1.996000707E-1,-1.311832070E-1,-2.779434808E-2
8.419857014E2,-2.448040545E-1,-1.409570426E-1,1.527161920E-3
8.424857014E2,-2.582430840E-1,9.117157012E-2,3.451386094E-2
8.429857014E2,-2.741255760E-1,1.937968582E-1,-3.023780696E-2
8.434857014E2,-1.605047137E-1,6.872228812E-3,1.740964688E-2
8.439857014E2,3.207040019E-3,-5.054906011E-2,-1.802051067E-2
8.444857014E2,-2.733619884E-2,-2.611446939E-2,3.970621154E-3
8.449857014E2,-1.756236330E-2,-1.238528341E-1,-4.581485875E-3
8.454857014E2,1.420260593E-2,2.145662606E-1,-1.924224012E-2
8.459857014E2,6.795870513E-2,-2.557996213E-1,7.238747925E-2
8.464857014E2,1.718057245E-1,-3.828594983E-1,1.985310577E-2
8.469857014E2,1.664606482E-2,6.062832847E-2,1.127045527E-1
8.474857014E2,-6.276635826E-2,1.754709035E-1,3.329212964E-2
8.479857014E2,5.207622424E-2,2.764163166E-2,4.673115537E-2
8.484857014E2,4.230238497E-2,-1.165224537E-1,1.252272818E-2
8.489857014E2,-3.344484791E-2,3.252854943E-2,3.329212964E-2
8.494857014E2,-1.023198478E-2,1.009454057E-1,3.817904741E-2
8.499857014E2,-5.299251899E-2,1.082757786E-1,3.207040206E-2
8.504857014E2,-1.511890348E-2,4.352411628E-2,3.054323897E-4
8.509857014E2,6.551524997E-2,-1.409570426E-1,-4.581485875E-3
8.514857014E2,4.841103405E-2,-6.032289565E-2,7.727439702E-2
8.519857014E2,-1.267544460E-2,1.876882017E-1,3.054323897E-4
8.524857014E2,-2.367101051E-2,8.506292105E-2,5.283980444E-2
8.529857014E2,4.474584386E-2,4.718930274E-2,-1.191186346E-2
8.534857014E2,5.818486959E-2,3.497200832E-2,-6.811141968E-2
8.539857014E2,9.850194305E-2,-5.665770918E-2,-1.435532235E-2
8.544857014E2,9.239330143E-2,1.571449637E-1,6.261363626E-2
8.549857014E2,2.145662606E-1,-9.010255337E-3,4.062250629E-2
8.554857014E2,2.866483033E-1,-1.397353113E-1,5.406153202E-2
8.559857014E2,2.817613780E-1,-1.238528341E-1,6.505709887E-2
8.564857014E2,2.585485280E-1,2.519817278E-2,3.573558852E-2
8.569857014E2,1.974620372E-1,-1.267544460E-2,5.192350596E-3
8.574857014E2,1.840230078E-1,-1.177441850E-1,5.772672221E-2
8.579857014E2,1.229365394E-1,-1.006399691E-1,-3.756818548E-2
8.584857014E2,6.062832847E-2,-1.756236330E-2,-8.246674202E-3
8.589857014E2,3.497200832E-2,5.696314201E-2,5.528326333E-2
8.594857014E2,9.315688163E-3,1.033888608E-1,-5.803215317E-3
8.599857014E2,-4.810560122E-2,4.352411628E-2,1.496618707E-2
8.604857014E2,2.519817278E-2,-1.666133702E-1,-3.512472659E-2
8.609857014E2,-1.634063199E-2,-1.189659163E-1,-2.046396956E-2
8.614857014E2,-5.543597788E-2,2.035706937E-1,-1.313359290E-2
8.619857014E2,-6.643154472E-2,8.384118974E-2,1.618791744E-2
8.624857014E2,-3.955349326E-2,-6.398808211E-2,-2.535088919E-2
8.629857014E2,5.085449293E-2,-1.727220118E-1,-3.023780696E-2
8.634857014E2,4.841103405E-2,8.506292105E-2,-1.557705179E-2
8.639857014E2,-3.100138716E-2,-4.321868345E-2,-9.162971983E-4
8.644857014E2,-1.262962967E-1,4.222602844E-1,7.605266571E-2
8.649857014E2,6.617192626E-1,-1.129336238E0,-8.155044913E-2
8.654857014E2,6.872228812E-3,3.123046160E-1,7.635809947E-3
8.659857014E2,3.207040019E-3,-8.720094711E-2,1.985310577E-2
8.664857014E2,6.429351866E-2,-3.181078434E-1,3.970621154E-3
8.669857014E2,-1.023198478E-2,2.890917659E-1,2.748891478E-3
8.674857014E2,-4.688387364E-2,1.156061590E-1,-5.803215317E-3
8.679857014E2,-1.878409274E-2,-9.453132749E-2,-1.924224012E-2
8.684857014E2,6.872228812E-3,6.307178736E-2,2.718348242E-2
8.689857014E2,1.053741761E-2,7.040216774E-2,-8.246674202E-3
8.694857014E2,-1.389717404E-2,-1.751654744E-1,6.627883017E-2
8.699857014E2,-4.123337101E-3,-3.955349326E-2,1.374445762E-2
8.704857014E2,-5.910116807E-2,-3.344484791E-2,6.139190868E-2
8.709857014E2,-7.742711157E-2,6.918043643E-2,-3.634645417E-2
8.714857014E2,-6.032289565E-2,3.245218992E-1,-9.162971983E-4
8.719857014E2,-2.733619884E-2,-5.665770918E-2,3.084867075E-2
8.724857014E2,-2.901607659E-3,-2.802342176E-1,3.695731983E-2
8.729857014E2,4.352411628E-2,-1.878409274E-2,3.451386094E-2
8.734857014E2,1.400407553E-1,-3.291034102E-1,-7.299833745E-2
8.739857014E2,-2.901607659E-3,-9.453132749E-2,1.252272818E-2
8.744857014E2,1.985310577E-3,1.852447391E-1,-4.001164436E-2
8.749857014E2,-3.344484791E-2,1.449276656E-1,-1.802051067E-2
8.754857014E2,3.207040019E-3,1.681405306E-1,-7.055488229E-2
8.759857014E2,-1.878409274E-2,-1.679878100E-3,3.451386094E-2
8.764857014E2,7.406735420E-2,4.352411628E-2,-2.901607752E-2
8.769857014E2,1.437059343E-1,-1.634063199E-2,-2.138026757E-3
8.774857014E2,1.547015011E-1,1.815795600E-1,2.107483521E-2
8.779857014E2,6.185005978E-2,1.664606482E-2,4.795288667E-2
8.784857014E2,1.693622619E-1,1.314886510E-1,4.673115537E-2
8.789857014E2,2.280052751E-1,9.850194305E-2,8.093958348E-2
8.794857014E2,3.868301213E-1,-1.030834317E-1,2.596175298E-2
8.799857014E2,3.550651670E-1,1.791360974E-1,2.312123179E-1
8.804857014E2,3.794997334E-1,-1.470656991E-1,8.704823256E-2
8.809857014E2,2.683223486E-1,3.375028074E-2,8.338304609E-2
8.814857014E2,3.342957497E-1,-1.023198478E-2,1.041524485E-1
8.819857014E2,3.220784664E-1,9.239330143E-2,8.704823256E-2
8.824857014E2,1.522580534E-1,-7.009673119E-2,1.249218509E-1
8.829857014E2,1.498145908E-1,9.315688163E-3,6.505709887E-2
8.834857014E2,2.641990222E-2,2.397644334E-2,-1.924224012E-2
8.839857014E2,5.696314201E-2,2.886336111E-2,-5.345066637E-2
8.844857014E2,-4.321868345E-2,-6.276635826E-2,-2.138026757E-3
8.849857014E2,5.207622424E-2,-1.458439678E-1,-1.230892539E-1
8.854857014E2,-4.444041103E-2,-1.006399691E-1,6.414080039E-3
8.859857014E2,1.053741761E-2,1.327103674E-1,6.505709887E-2
8.864857014E2,1.664606482E-2,-1.153007299E-1,3.970621154E-3
8.869857014E2,5.650499370E-3,-3.222311661E-2,-3.359756200E-3
8.874857014E2,4.108065739E-2,-4.688387364E-2,-3.359756200E-3
8.879857014E2,2.153298259E-2,5.451968312E-2,1.863137633E-2
8.884857014E2,3.619373962E-2,2.023489624E-1,-4.489856213E-2
8.889857014E2,1.420260593E-2,2.641990222E-2,3.054323897E-4
8.894857014E2,2.641990222E-2,-1.287397593E-1,-3.756818548E-2
8.899857014E2,1.302669197E-1,-1.971566081E-1,-1.924224012E-2
8.904857014E2,5.940660089E-2,-1.409570426E-1,4.062250629E-2
8.909857014E2,1.908952370E-2,-3.588830680E-2,1.496618707E-2
8.914857014E2,-2.977965772E-2,9.239330143E-2,-4.581485875E-3
8.919857014E2,-7.864884287E-2,5.818486959E-2,-3.359756200E-3
8.924857014E2,3.741546720E-2,-2.191477418E-1,-9.162971983E-4
8.929857014E2,-6.398808211E-2,-4.581485991E-4,-1.435532235E-2
8.934857014E2,-1.079703495E-1,1.400407553E-1,4.795288667E-2
8.939857014E2,4.352411628E-2,-2.325867712E-1,-9.498947114E-2
8.944857014E2,-3.222311661E-2,-5.787943676E-2,3.329212964E-2
8.949857014E2,-8.597921580E-2,1.985310577E-3,6.505709887E-2
8.954857014E2,4.841103405E-2,1.498145908E-1,-5.100720748E-2
8.959857014E2,-6.520981342E-2,1.339320987E-1,1.007926930E-2
8.964857014E2,-4.581485991E-4,-2.855792828E-2,3.573558852E-2
8.969857014E2,-4.199695215E-2,-2.093739063E-1,-1.731801629E-1
8.974857014E2,-4.688387364E-2,1.485928595E-1,8.857538924E-3
8.979857014E2,-2.611446939E-2,3.147480786E-1,1.527161920E-3
8.984857014E2,1.217148080E-1,-7.498364896E-2,-1.679878123E-2
8.989857014E2,1.168278903E-1,-1.824958473E-1,-2.138026757E-3
8.994857014E2,9.483675659E-2,-9.208786488E-2,-8.246674202E-3
8.999857014E2,8.384118974E-2,-5.910116807E-2,8.857538924E-3
9.004857014E2,-7.254019380E-2,2.964221239E-1,-4.856374860E-2
9.009857014E2,1.302669197E-1,-2.692386508E-1,-1.679878123E-2
9.014857014E2,6.185005978E-2,-5.421425030E-2,-3.268126398E-2
9.019857014E2,-5.665770918E-2,1.986837685E-1,1.374445762E-2
9.024857014E2,-1.043051630E-1,3.440696001E-1,3.084867075E-2
9.029857014E2,-1.495091617E-1,1.485928595E-1,3.573558852E-2
9.034857014E2,9.315688163E-3,-1.153007299E-1,-5.467239767E-2
9.039857014E2,1.175914705E-2,1.595884264E-1,4.062250629E-2
9.044857014E2,-1.287397593E-1,4.454731345E-1,-5.833758786E-2
9.049857014E2,-3.955349326E-2,-2.448040545E-1,5.650499091E-2
9.054857014E2,-7.788525894E-3,1.754709035E-1,-2.290742844E-2
9.059857014E2,-2.367101051E-2,-1.091920808E-1,2.962694131E-2
9.064857014E2,4.108065739E-2,6.307178736E-2,-5.589412898E-2
9.069857014E2,2.964221239E-1,-2.692386508E-1,5.772672221E-2
9.074857014E2,-4.566214234E-2,1.290451884E-1,-2.168569900E-2
9.079857014E2,1.656970680E-1,-1.947131455E-1,-1.069013402E-2
9.084857014E2,-7.376192510E-2,8.750637621E-2,1.496618707E-2
9.089857014E2,1.705839932E-1,-4.378373325E-1,-5.803215317E-3
9.094857014E2,-1.238528341E-1,2.487746775E-1,1.618791744E-2
9.099857014E2,8.017600328E-2,-1.886045039E-1,7.635809947E-3
9.104857014E2,-4.688387364E-2,1.070540547E-1,-1.802051067E-2
9.109857014E2,2.397644334E-2,7.162389904E-2,3.054323897E-4
9.114857014E2,5.451968312E-2,5.940660089E-2,-2.046396956E-2
9.119857014E2,-3.588830680E-2,6.429351866E-2,2.107483521E-2
9.124857014E2,1.046105921E-1,-1.311832070E-1,-2.138026757E-3
9.129857014E2,2.641990222E-2,1.053741761E-2,4.306596518E-2
9.134857014E2,2.243400961E-1,-5.722275972E-1,9.560033679E-2
9.139857014E2,9.728021920E-2,-2.093739063E-1,-3.878991306E-2
9.144857014E2,-3.100138716E-2,-5.421425030E-2,-1.435532235E-2
9.149857014E2,-4.123337101E-3,-1.634063199E-2,-3.268126398E-2
9.154857014E2,1.217148080E-1,-2.948949635E-1,-3.756818548E-2
9.159857014E2,-1.629481763E-1,4.515817761E-1,-1.313359290E-2
9.164857014E2,8.506292105E-2,-1.458439678E-1,-2.168569900E-2
9.169857014E2,2.475529462E-1,-4.769326746E-1,3.329212964E-2
9.174857014E2,5.451968312E-2,-2.521344423E-1,4.306596518E-2
9.179857014E2,1.542433538E-2,-4.688387364E-2,2.748891478E-3
9.184857014E2,-1.299614757E-1,3.660607338E-1,4.306596518E-2
9.189857014E2,4.963276163E-2,-1.715002805E-1,-3.512472659E-2
9.194857014E2,2.292270064E-1,-6.467530727E-1,3.054323897E-4
9.199857014E2,2.218966335E-1,-2.533561587E-1,4.673115537E-2
9.204857014E2,-6.566796452E-3,1.327103674E-1,9.193515033E-2
9.209857014E2,-4.199695215E-2,-6.479747891E-1,-1.438586563E-1
9.214857014E2,5.358811021E-1,-3.833176568E-2,4.706713259E-1
9.219857014E2,-4.123337101E-3,9.117157012E-2,1.618791744E-2
9.224857014E2,-2.244928107E-2,2.764163166E-2,-2.138026757E-3
9.229857014E2,1.420260593E-2,6.795870513E-2,3.054323897E-4
9.234857014E2,2.275471389E-2,-2.977965772E-2,-2.412915789E-2
9.239857014E2,8.872810751E-2,1.400407553E-1,-8.246674202E-3
9.244857014E2,-9.010255337E-3,-4.444041103E-2,-9.468403645E-3
9.249857014E2,2.153298259E-2,9.728021920E-2,1.374445762E-2
9.254857014E2,1.420260593E-2,7.773254067E-2,-3.268126398E-2
9.259857014E2,-1.511890348E-2,-2.118173689E-1,4.673115537E-2
9.264857014E2,-5.345067009E-3,1.876882017E-1,-2.412915789E-2
9.269857014E2,2.764163166E-2,-2.594648004E-1,1.496618707E-2
9.274857014E2,2.519817278E-2,1.766926348E-1,-5.589412898E-2
9.279857014E2,-7.788525894E-3,-6.643154472E-2,-8.246674202E-3
9.284857014E2,-1.023198478E-2,-6.398808211E-2,-3.359756200E-3
9.289857014E2,8.093958721E-3,9.483675659E-2,1.985310577E-2
9.294857014E2,6.673697382E-2,8.750637621E-2,-2.168569900E-2
9.299857014E2,6.185005978E-2,-1.372918636E-1,1.130099874E-2
9.304857014E2,7.528908551E-2,-1.641699076E-1,7.635809947E-3
9.309857014E2,-3.344484791E-2,-1.446222365E-1,8.704823256E-2
9.314857014E2,1.175914705E-2,6.872228812E-3,-7.544180006E-2
9.319857014E2,-2.611446939E-2,-1.519526094E-1,4.673115537E-2
9.324857014E2,-4.696022868E-1,7.924443483E-1,1.041524485E-1
9.329857014E2,-6.520981342E-2,-9.330959618E-2,4.184423760E-2
9.334857014E2,8.093958721E-3,4.039343297E-1,-2.779434808E-2
9.339857014E2,1.156061590E-1,2.573267817E-1,-3.268126398E-2
9.344857014E2,-1.653916389E-1,6.140718460E-1,-2.623664141E-1
9.349857014E2,2.915352285E-1,-7.742711157E-2,-1.924224012E-2
9.354857014E2,4.686860144E-1,-7.725912333E-1,6.414080039E-3
9.359857014E2,-1.568395346E-1,3.721693754E-1,2.840521187E-2
9.364857014E2,-1.543960720E-1,6.795870513E-2,-2.657261863E-2
9.369857014E2,9.117157012E-2,-1.763872057E-1,2.596175298E-2
9.374857014E2,1.204930767E-1,3.863719851E-2,1.603520066E-1
9.379857014E2,3.550651670E-1,-8.964440972E-2,3.817904741E-2
9.384857014E2,-7.864884287E-2,-2.790125012E-1,-8.765909821E-2
9.389857014E2,-5.299251899E-2,1.718057245E-1,6.505709887E-2
9.394857014E2,3.135263622E-1,1.908952370E-2,-2.290742844E-2
9.399857014E2,1.009454057E-1,-6.467530727E-1,4.184423760E-2
9.404857014E2,6.872228812E-3,-2.489273995E-2,-1.145371497E-1
9.409857014E2,-3.344484791E-2,9.117157012E-2,3.207040206E-2
9.414857014E2,8.628465235E-2,1.175914705E-2,-4.978547990E-2
9.419857014E2,3.207040019E-3,-2.000582218E-2,7.971785218E-2
9.424857014E2,8.093958721E-3,5.940660089E-2,-2.779434808E-2
9.429857014E2,1.175914705E-2,-5.054906011E-2,3.695731983E-2
9.434857014E2,-7.788525894E-3,-1.756236330E-2,-1.069013402E-2
9.439857014E2,9.315688163E-3,9.361502528E-2,-1.802051067E-2
9.444857014E2,-3.466657549E-2,5.650499370E-3,1.130099874E-2
9.449857014E2,3.497200832E-2,2.153298259E-2,-1.435532235E-2
9.454857014E2,4.428769462E-3,6.795870513E-2,-3.359756200E-3
9.459857014E2,-4.321868345E-2,-4.321868345E-2,3.573558852E-2
9.464857014E2,3.741546720E-2,5.574141070E-2,-2.168569900E-2
9.469857014E2,-4.199695215E-2,-3.711003438E-2,2.596175298E-2
9.474857014E2,3.497200832E-2,3.130681813E-2,-3.359756200E-3
9.479857014E2,-4.688387364E-2,6.429351866E-2,-9.162971983E-4
9.484857014E2,-3.100138716E-2,-4.810560122E-2,2.351829410E-2
9.489857014E2,4.352411628E-2,7.406735420E-2,-3.023780696E-2
9.494857014E2,-3.588830680E-2,-2.733619884E-2,6.414080039E-3
9.499857014E2,4.718930274E-2,8.139773458E-2,-3.145953640E-2
9.504857014E2,-2.611446939E-2,-3.711003438E-2,1.007926930E-2
9.509857014E2,3.375028074E-2,1.046105921E-1,-2.901607752E-2
9.514857014E2,-2.122755162E-2,8.093958721E-3,1.007926930E-2
9.519857014E2,-4.932733253E-2,1.298087649E-2,6.414080039E-3
9.524857014E2,1.908952370E-2,-4.581485991E-4,3.970621154E-3
9.529857014E2,-4.810560122E-2,8.017600328E-2,-5.803215317E-3
9.534857014E2,-4.123337101E-3,-4.444041103E-2,1.374445762E-2
9.539857014E2,-1.145371422E-2,6.918043643E-2,-1.435532235E-2
9.544857014E2,-1.267544460E-2,-4.444041103E-2,1.374445762E-2
9.549857014E2,-1.389717404E-2,1.131627038E-1,-2.412915789E-2
9.554857014E2,-3.955349326E-2,-2.901607659E-3,1.007926930E-2
9.559857014E2,4.718930274E-2,4.230238497E-2,-2.779434808E-2
9.564857014E2,-5.910116807E-2,4.230238497E-2,6.414080039E-3
9.569857014E2,4.474584386E-2,5.451968312E-2,-2.535088919E-2
9.574857014E2,-5.787943676E-2,3.985892609E-2,1.527161920E-3
9.579857014E2,2.764163166E-2,9.850194305E-2,-3.023780696E-2
9.584857014E2,-4.444041103E-2,1.053741761E-2,3.054323897E-4
9.589857014E2,5.818486959E-2,2.764163166E-2,-2.535088919E-2
9.594857014E2,-5.910116807E-2,5.451968312E-2,-9.162971983E-4
9.599857014E2,6.185005978E-2,1.542433538E-2,-1.313359290E-2
9.604857014E2,-5.665770918E-2,3.619373962E-2,1.527161920E-3
9.609857014E2,6.185005978E-2,4.108065739E-2,-2.535088919E-2
9.614857014E2,9.315688163E-3,3.756818548E-2,-3.207040019E-3
9.619857014E2,1.664606482E-2,4.581485875E-3,-4.352411628E-2
9.624857014E2,-6.398808211E-2,1.621845961E-1,3.344484791E-2
9.629857014E2,7.406735420E-2,-4.184423760E-2,2.855792828E-2
9.634857014E2,1.420260593E-2,7.910698652E-2,5.665770918E-2
9.639857014E2,-1.389717404E-2,5.833758786E-2,3.466657549E-2
9.644857014E2,1.156061590E-1,-1.078176349E-1,4.199695215E-2
9.649857014E2,-4.077522457E-2,1.524107605E-1,-4.108065739E-2
9.654857014E2,-4.581485991E-4,-4.795288667E-2,1.267544460E-2
9.659857014E2,2.153298259E-2,1.609628648E-1,7.131846249E-2
9.664857014E2,4.718930274E-2,-8.582650125E-2,-1.542433538E-2
9.669857014E2,-1.666133702E-1,-2.596175298E-2,-1.388190240E-1
9.674857014E2,-9.941824526E-2,7.422006875E-2,-3.130681813E-2
9.679857014E2,2.153298259E-2,-5.894844979E-2,4.581485991E-4
9.684857014E2,-5.054906011E-2,8.277218044E-2,-1.786779426E-2
9.689857014E2,8.506292105E-2,-2.202167511E-1,3.344484791E-2
9.694857014E2,9.239330143E-2,-1.151480079E-1,-1.664606482E-2
9.699857014E2,5.650499370E-3,-1.496618707E-2,-5.818486959E-2
9.704857014E2,1.070540547E-1,1.069013402E-2,-1.786779426E-2
9.709857014E2,5.085449293E-2,-2.202167511E-1,-4.428769462E-3
9.714857014E2,-6.154462695E-2,5.711585656E-2,-6.673697382E-2
9.719857014E2,-2.244928107E-2,1.108719558E-1,-3.741546720E-2
9.724857014E2,-6.520981342E-2,1.924224012E-2,1.878409274E-2
9.729857014E2,2.275471389E-2,-6.139190868E-2,-4.718930274E-2
9.734857014E2,-8.842267841E-2,1.340848207E-1,2.244928107E-2
9.739857014E2,1.156061590E-1,-1.762344837E-1,-5.451968312E-2
9.744857014E2,-1.214093715E-1,-5.720748901E-1,6.520981342E-2
9.749857014E2,-8.231402934E-2,1.328630894E-1,-1.420260593E-2
9.754857014E2,8.628465235E-2,-1.346956789E-1,-2.275471389E-2
9.759857014E2,-9.819651395E-2,3.943132162E-1,-2.153298259E-2
9.764857014E2,-1.067486182E-1,1.731801629E-1,-3.207040019E-3
9.769857014E2,1.908952370E-2,-8.338304609E-2,4.123337101E-3
9.774857014E2,-4.123337101E-3,-1.374445762E-2,4.199695215E-2
9.779857014E2,7.162389904E-2,-2.962694131E-2,-4.428769462E-3
9.784857014E2,3.477347791E-1,-4.792234302E-1,3.588830680E-2
9.789857014E2,-6.398808211E-2,-7.483093441E-2,2.733619884E-2
9.794857014E2,3.375028074E-2,4.734202102E-2,4.123337101E-3
9.799857014E2,1.908952370E-2,-2.840521187E-2,2.000582218E-2
9.804857014E2,2.292270064E-1,-1.737910360E-1,4.123337101E-3
9.809857014E2,1.864664704E-1,-6.869174242E-1,3.466657549E-2
9.814857014E2,-5.856665969E-1,9.221003652E-1,-1.175914705E-2
9.819857014E2,1.241582632E-1,-2.287688553E-1,6.566796452E-3
9.824857014E2,1.786779426E-2,9.743293375E-2,-5.818486959E-2
9.829857014E2,-1.580612659E-1,2.660316229E-1,-3.497200832E-2
9.834857014E2,-1.389717404E-2,5.803215317E-3,-4.596757516E-2
9.839857014E2,-1.360701323E-1,2.330449075E-1,-1.985310577E-3
9.844857014E2,3.863719851E-2,-3.216203153E-1,1.878409274E-2
9.849857014E2,-1.511890348E-2,1.924224012E-2,1.389717404E-2
9.854857014E2,8.093958721E-3,-1.374445762E-2,1.878409274E-2
9.859857014E2,3.741546720E-2,-4.184423760E-2,1.267544460E-2
9.864857014E2,-8.231402934E-2,9.376774728E-2,3.588830680E-2
9.869857014E2,1.510363221E-1,-9.193515033E-2,-2.397644334E-2
9.874857014E2,1.156061590E-1,-1.517999023E-1,5.054906011E-2
9.879857014E2,4.515817761E-1,-9.043853283E-1,5.421425030E-2
9.884857014E2,-2.000582218E-2,1.206457913E-1,7.009673119E-2
9.889857014E2,2.764163166E-2,-1.249218509E-1,-1.664606482E-2
9.894857014E2,2.641990222E-2,-8.704823256E-2,-2.519817278E-2
9.899857014E2,7.651081681E-2,-2.153298408E-1,-6.872228812E-3
9.904857014E2,5.818486959E-2,-1.456912458E-1,3.588830680E-2
9.909857014E2,6.872228812E-3,-7.727439702E-2,5.345067009E-3
9.914857014E2,-3.955349326E-2,1.047633067E-1,2.733619884E-2
