"Time (s)","Linear Acceleration x (m/s^2)","Linear Acceleration y (m/s^2)","Linear Acceleration z (m/s^2)"
7.977266500E-2,-7.897067070E-1,6.192460060E-1,-1.666243553E0
2.814377690E-1,-6.861948967E-1,1.396933556E0,-1.993452549E0
7.814377690E-1,5.976887941E-1,-9.576275349E-1,1.114945412E0
1.281437769E0,1.569165707E0,2.453266621E0,-5.266685486E-1
1.781437769E0,-1.976118088E-1,2.435985327E0,3.285461426E0
2.281437769E0,2.310018539E-1,-1.416903973E0,1.663090467E0
2.781437769E0,-9.278197289E-1,-1.143975735E0,-7.260736823E-1
3.281437769E0,-5.946736336E-1,-1.043255806E0,-9.172111750E-1
3.781437769E0,-6.287446022E-1,-4.334683418E-1,-1.063738823E0
4.281437769E0,-6.766872406E-1,-5.045714378E-1,-8.794139028E-1
4.781437769E0,-2.335419655E-1,-1.030311584E-1,-2.277023196E-1
5.281437769E0,-5.641508102E-2,-1.832294464E-2,2.199321985E-1
5.781437769E0,-1.156587601E-1,-2.343750000E-2,-7.187390327E-2
6.281437769E0,-4.476165771E-2,-1.769065857E-2,-7.319772243E-2
6.781437769E0,-8.174896240E-2,1.762485504E-2,1.024401188E-2
7.281437769E0,-1.798701286E-1,-1.547355652E-1,1.286561489E-1
7.781437769E0,7.455587387E-2,-2.204456329E-1,1.515370607E-1
8.281437769E0,-1.091895103E-1,1.531915665E-1,1.164376736E-1
8.781437769E0,-2.820000648E-1,-1.943006516E-1,-1.473016739E-1
9.281437769E0,-4.524755478E-2,-8.134651184E-2,-1.178387403E-1
9.781437769E0,3.933329582E-1,2.338628769E-1,1.576638222E-2
1.028143777E1,2.013683319E-3,1.429090500E-1,-1.336623430E-1
1.078143777E1,-8.947038651E-2,-1.949157715E-1,2.165666819E-1
1.128143777E1,4.402694702E-1,3.081226349E-2,-1.207454205E-1
1.178143777E1,1.039333344E-1,2.250194550E-3,-3.027451038E-2
1.228143777E1,-8.279323578E-3,5.535316467E-2,1.250537634E-1
1.278143777E1,1.328263283E-1,9.217929840E-2,2.429744005E-1
1.328143777E1,1.532416344E-1,-5.543899536E-2,2.365397811E-1
1.378143777E1,1.051082611E-1,-1.887416840E-2,1.894813776E-1
1.428143777E1,4.107666016E-2,-6.773328781E-2,2.186840773E-1
1.478143777E1,-5.948352814E-2,8.215904236E-4,1.150358319E-1
1.528143777E1,3.686285019E-2,-5.025386810E-3,6.740334630E-2
1.578143777E1,9.581708908E-2,-5.673074722E-2,1.574318111E-1
1.628143777E1,-2.694702148E-2,-9.924888611E-3,1.414916664E-1
1.678143777E1,-7.735490799E-2,-6.001043320E-2,3.290908039E-2
1.728143777E1,-1.642007828E-1,1.489591599E-2,-6.711319089E-2
1.778143777E1,-1.450634003E-2,-3.082561493E-2,-3.865631223E-1
1.828143777E1,-5.813455582E-2,-5.655908585E-2,-3.359837830E-1
1.878143777E1,3.335566521E-1,2.130236626E-1,5.127167702E-2
1.928143777E1,-1.692551374E0,-6.041641235E-1,-1.397506475E0
1.978143777E1,-3.838667870E-1,-1.986360550E-1,-1.026613235E0
2.028143777E1,-4.244570732E-1,-1.708402634E-1,-7.399939299E-1
2.078143777E1,-2.229683399E-1,8.977794647E-2,-3.406765461E-1
2.128143777E1,-1.875565052E-1,1.605224609E-2,-8.521199226E-2
2.178143777E1,-3.267240524E-2,2.862930298E-3,-2.392697334E-1
2.228143777E1,-7.496404648E-2,-1.145238876E-1,-1.634597778E-1
2.278143777E1,-1.688294411E-1,6.396389008E-2,-5.902028084E-2
2.328143777E1,-1.743617058E-1,1.970386505E-1,2.085375786E-2
2.378143777E1,-5.021858215E-2,-3.677654266E-2,-1.019475460E-1
2.428143777E1,-5.782461166E-2,-3.004074097E-2,2.805018425E-2
2.478143777E1,-3.812837601E-2,3.667449951E-2,1.574919224E-1
2.528143777E1,-5.288982391E-2,-1.089630127E-1,6.160020828E-3
2.578143777E1,1.925897598E-2,-8.460044861E-2,3.441786766E-2
2.628143777E1,-7.927560806E-2,-5.214023590E-2,-5.569219589E-3
2.678143777E1,3.177785873E-2,-2.588844299E-2,8.601057529E-2
2.728143777E1,5.708503723E-2,-2.527637482E-1,2.617890835E-1
2.778143777E1,3.236818314E-2,6.406402588E-2,1.886759996E-1
2.828143777E1,2.145004272E-2,-2.637481689E-2,3.126791716E-1
2.878143777E1,2.027845383E-2,-1.768293381E-1,-4.986059666E-2
2.928143777E1,-1.910209656E-3,2.707386017E-2,7.314300537E-2
2.978143777E1,-3.186464310E-2,-6.922721863E-3,3.613156080E-2
3.028143777E1,-6.050586700E-3,-7.364749908E-2,2.946650982E-2
3.078143777E1,1.982831955E-2,-1.015987396E-1,4.086101055E-2
3.128143777E1,-9.035158157E-2,1.473054886E-1,6.687158346E-2
3.178143777E1,-1.932892799E-1,1.607570648E-1,-8.186793327E-2
3.228143777E1,-1.031279564E-1,7.330703735E-2,-3.494417667E-2
3.278143777E1,-9.677410126E-3,1.579952240E-2,-6.203413010E-3
3.328143777E1,-4.267597198E-2,1.136903763E-1,-2.552986145E-3
3.378143777E1,1.395654678E-2,-3.128719330E-2,-4.747152328E-2
3.428143777E1,7.904529572E-3,-2.761363983E-2,-6.012165546E-2
3.478143777E1,-9.557962418E-2,-2.723569870E-1,1.421779394E-2
3.528143777E1,-2.285494804E-1,-4.864025116E-2,5.517834425E-2
3.578143777E1,-6.063032150E-2,3.070163727E-2,8.410215378E-5
3.628143777E1,2.753257751E-3,4.133129120E-2,5.837458372E-2
3.678143777E1,-4.498243332E-2,2.840137482E-2,6.037777662E-2
3.728143777E1,1.468992233E-2,8.890151978E-3,6.130933762E-3
3.778143777E1,9.696483612E-3,4.025459290E-3,1.030695438E-2
3.828143777E1,5.428075790E-2,1.277513504E-1,-2.776581049E-2
3.878143777E1,8.257436752E-2,9.008693695E-2,-4.570484161E-3
3.928143777E1,-5.811071396E-2,1.947851181E-1,-8.971709013E-2
3.978143777E1,-1.874780655E-2,6.288719177E-2,1.362979412E-2
4.028143777E1,-1.378870010E-2,2.041006088E-1,-2.435493469E-2
4.078143777E1,8.218002319E-2,3.461837769E-4,9.021854401E-2
4.128143777E1,-2.048730850E-2,1.466846466E-2,1.424914598E-2
4.178143777E1,-9.837150574E-4,2.962303162E-2,4.523509741E-2
4.228143777E1,-6.768941879E-2,2.462863922E-2,3.786969185E-2
4.278143777E1,-3.969335556E-2,-2.774620056E-2,2.038255334E-2
4.328143777E1,-5.522537231E-2,-5.802154541E-2,3.060618043E-2
4.378143777E1,-1.126585007E-1,8.700180054E-2,-6.712344289E-2
4.428143777E1,1.234760284E-1,-7.959079742E-2,5.560514331E-2
4.478143777E1,-3.132772446E-2,-3.337335587E-2,4.845495522E-2
4.528143777E1,-2.643060684E-2,-1.945590973E-2,5.414709449E-2
4.578143777E1,-2.896976471E-2,-2.112770081E-2,-3.241014481E-2
4.628143777E1,-1.167273521E-1,-9.017372131E-2,1.099557355E-1
4.678143777E1,-1.084437370E-1,-4.317188263E-2,6.392911077E-3
4.728143777E1,-6.570863724E-2,-1.411247253E-1,-1.125361770E-2
4.778143777E1,-2.583837509E-2,8.769512177E-2,7.787344605E-2
4.828143777E1,-1.960167885E-1,2.804288864E-1,1.124748662E-1
4.878143777E1,3.420209885E-2,5.557870865E-2,-9.316744655E-2
4.928143777E1,1.608295441E-1,-1.385631561E-1,6.542708725E-2
4.978143777E1,-5.742168427E-2,-2.816200256E-3,-1.915836334E-2
5.028143777E1,-5.475378036E-2,3.640937805E-2,-7.796667516E-3
5.078143777E1,5.128622055E-2,-1.167392731E-2,-2.534039319E-3
5.128143777E1,-1.707410812E-2,-1.399517059E-2,-2.612217516E-2
5.178143777E1,3.234243393E-2,-8.771705627E-2,-3.610123694E-2
5.228143777E1,2.087554932E-1,-9.744358063E-2,1.609277725E-1
5.278143777E1,2.669405937E-1,1.553344727E-2,4.514321685E-3
5.328143777E1,-3.201994896E-1,4.326558113E-1,-5.139042437E-2
5.378143777E1,1.586050987E-1,-3.718471527E-2,-5.545087159E-2
5.428143777E1,-7.730150223E-2,1.034746170E-1,-4.559560120E-2
5.478143777E1,1.025700569E-1,1.347627640E-1,1.605749130E-3
5.528143777E1,4.499149323E-2,2.918243408E-2,2.681537718E-2
5.578143777E1,8.330821991E-3,3.395223618E-2,2.179792523E-2
5.628143777E1,-2.837991714E-2,-1.852035522E-3,6.041805446E-2
5.678143777E1,-1.414632797E-2,3.191947937E-2,-3.547506034E-2
5.728143777E1,-1.512193680E-2,-2.444171906E-2,1.524179801E-2
5.778143777E1,1.355123520E-2,7.206439972E-2,2.090605348E-2
5.828143777E1,2.149915695E-2,-1.030731201E-2,9.485483170E-4
5.878143777E1,6.715154648E-2,-8.320808411E-3,-4.581547529E-2
5.928143777E1,-5.556344986E-2,-6.421566010E-2,-7.443815470E-2
5.978143777E1,2.964162827E-2,4.982852936E-2,-1.590371430E-1
6.028143777E1,7.005167007E-2,3.087139130E-2,-8.236742020E-2
6.078143777E1,8.627414703E-3,1.253476143E-1,1.239333451E-1
6.128143777E1,1.411581039E-2,1.090693474E-1,2.006993592E-1
6.178143777E1,1.533913612E-1,-1.156330109E-2,1.151605397E-1
6.228143777E1,1.147770882E-1,2.209186554E-3,8.927251399E-2
6.278143777E1,2.224907875E-1,5.905389786E-2,-6.600536406E-3
6.328143777E1,-7.795000076E-2,-4.215431213E-2,-2.749659419E-1
6.378143777E1,-2.592897415E-2,-1.930599213E-1,-1.854837239E-1
6.428143777E1,4.898452759E-2,-7.854080200E-2,3.788068891E-2
6.478143777E1,6.672096252E-2,9.806108475E-2,-1.359057724E-1
6.528143777E1,1.271209717E-1,5.065011978E-2,4.051107168E-2
6.578143777E1,1.953268051E-2,-5.571031570E-2,-1.256674528E-2
6.628143777E1,3.152370453E-3,-3.402566910E-2,4.672408104E-4
6.678143777E1,4.391860962E-2,6.259918213E-3,-9.298935533E-2
6.728143777E1,7.186174393E-2,-2.793612480E-1,2.284616232E-3
6.778143777E1,3.952789307E-2,-3.999233246E-2,-1.959999800E-1
6.828143777E1,1.078271866E-1,5.436706543E-2,-8.286905289E-2
6.878143777E1,1.194729805E-1,-1.961822510E-1,4.760891199E-2
6.928143777E1,-1.824750900E-1,-1.796684265E-1,-2.516681850E-1
6.978143777E1,-7.561397552E-2,1.631979942E-1,-2.730666697E-1
7.028143777E1,1.248273849E-1,-1.196122169E-1,1.888030916E-1
7.078143777E1,5.248069763E-3,7.243824005E-2,8.596952260E-2
7.128143777E1,6.034517288E-2,-1.419558525E-1,8.946035057E-2
7.178143777E1,4.986572266E-2,1.278047562E-1,1.430284083E-1
7.228143777E1,5.543565750E-2,3.883361816E-3,1.581565663E-2
7.278143777E1,-3.604269028E-2,1.070117950E-1,-6.380991638E-2
7.328143777E1,-6.268453598E-2,1.016378403E-2,-6.474335492E-2
7.378143777E1,-2.888154984E-2,8.442640305E-2,-3.367316723E-2
7.428143777E1,2.903985977E-2,-7.311820984E-3,1.308595687E-1
7.478143777E1,-3.418111801E-2,6.589365005E-2,-9.332999587E-3
7.528143777E1,7.734298706E-3,-1.231255531E-1,3.698052093E-2
7.578143777E1,-1.589918137E-2,2.438735962E-2,2.683731169E-2
7.628143777E1,-8.822822571E-2,7.186412811E-2,-7.533164322E-2
7.678143777E1,-3.055620193E-2,-4.150724411E-2,1.892887503E-1
7.728143777E1,-4.927587509E-2,1.333112717E-1,1.329883635E-1
7.778143777E1,-2.949094772E-2,4.908275604E-2,3.530745208E-2
7.828143777E1,5.944204330E-2,-1.992225647E-3,-3.601056337E-2
7.878143777E1,-2.087116241E-2,-4.284858704E-3,4.528780654E-2
7.928143777E1,-8.997440338E-3,-4.726696014E-2,5.419198424E-2
7.978143777E1,-4.185676575E-3,-2.217006683E-2,-8.248974383E-2
8.028143777E1,-6.359434128E-2,1.765680313E-2,-1.217989177E-1
8.078143777E1,-3.621435165E-2,-5.947113037E-2,-5.695681274E-2
8.128143777E1,1.785135269E-2,-5.076456070E-2,7.775670290E-2
8.178143777E1,1.277699471E-1,1.944828033E-2,3.511044383E-2
8.228143777E1,-1.937694550E-1,2.706875801E-1,-6.517436355E-2
8.278143777E1,-2.895689011E-2,-1.048264503E-1,7.317072898E-2
8.328143777E1,1.068930626E-1,-8.295249939E-2,1.145034954E-1
8.378143777E1,-1.579256058E-1,5.303907394E-2,1.425400078E-1
8.428143777E1,2.397155762E-1,2.113437653E-2,-1.208171248E-3
8.478143777E1,7.900238037E-2,7.452869415E-2,-1.746680886E-1
8.528143777E1,-5.670070648E-3,-8.296108246E-2,-1.531676650E-1
8.578143777E1,3.994703293E-2,9.638786316E-2,-1.466960609E-1
8.628143777E1,-1.675200462E-1,-3.132433891E-1,1.578212082E-1
8.678143777E1,4.526004791E-1,-5.191812515E-1,1.782586724E-1
8.728143777E1,-3.908672333E-1,1.229874134E0,2.705746293E-1
8.778143777E1,2.740569115E-1,3.257584572E-1,-1.259624958E-3
8.828143777E1,2.430200577E-2,1.020539761E0,8.073586226E-2
8.878143777E1,-3.074407578E-2,2.790322304E-1,-1.868796349E-2
8.928143777E1,5.927610397E-2,3.903565407E-1,3.019663990E-1
8.978143777E1,3.477110863E-1,-2.269792557E-2,2.866730094E-1
9.028143777E1,-5.037021637E-2,1.781988144E-1,-2.286741138E-1
9.078143777E1,-8.459424973E-2,-1.649565697E-1,-3.558415174E-2
9.128143777E1,2.209978104E-1,3.856086731E-2,-3.213554621E-2
9.178143777E1,-7.870531082E-2,2.142000198E-1,-1.666885614E-2
9.228143777E1,-1.686811447E-2,-1.144967079E-1,-8.894979954E-3
9.278143777E1,1.928949356E-2,-9.416246414E-2,7.357856631E-2
9.328143777E1,-1.045618057E-1,-9.515237808E-2,4.748505354E-2
9.378143777E1,-1.442279816E-1,4.197931290E-2,2.018466294E-1
9.428143777E1,-4.005432129E-4,2.150726318E-2,3.463450074E-2
9.478143777E1,5.941677094E-2,6.737709045E-4,3.510981798E-2
9.528143777E1,9.803009033E-2,1.611089706E-2,-3.677248955E-2
9.578143777E1,-2.683210373E-2,8.257246017E-2,1.287638247E-1
9.628143777E1,9.510564804E-2,2.141776085E-1,8.429884911E-4
9.678143777E1,5.147790909E-2,-5.986976624E-2,1.045165956E-1
9.728143777E1,-1.861047745E-2,1.395401955E-1,-2.756109834E-2
9.778143777E1,3.938722610E-2,-1.821947098E-2,-1.245340705E-2
9.828143777E1,1.617746353E-1,2.069854736E-2,9.883219004E-2
9.878143777E1,-9.027338028E-2,2.459764481E-1,7.398608327E-2
9.928143777E1,5.389595032E-2,-1.308050156E-1,-1.497292519E-2
9.978143777E1,-8.454513550E-2,5.436086655E-2,8.356094360E-3
1.002814378E2,-8.295583725E-2,-2.825021744E-2,-5.883985758E-2
1.007814378E2,-5.436372757E-2,1.091656685E-1,-1.250109076E-1
1.012814378E2,-2.371501923E-1,-3.405494690E-1,5.104976892E-2
1.017814378E2,-3.165721893E-3,1.075158119E-1,-1.425288320E-1
1.022814378E2,3.724718094E-2,-1.213645935E-2,1.327288151E-2
1.027814378E2,3.246212006E-2,4.148483276E-5,1.025650501E-1
1.032814378E2,2.215361595E-1,-1.391091347E-1,-5.469632149E-1
1.037814378E2,-2.500391006E-2,-4.922199249E-2,-6.714636087E-1
1.042814378E2,5.592679977E-2,-1.643037796E-2,-3.942402601E-1
1.047814378E2,-1.433143616E-1,7.424831390E-2,-2.175769806E-1
1.052814378E2,7.274150848E-3,-1.642971039E-1,1.669607759E-1
1.057814378E2,2.633552551E-1,4.064750671E-1,1.690854430E-1
1.062814378E2,-1.912310123E-1,-3.432264328E-1,5.123769045E-1
1.067814378E2,-2.889723778E-1,-1.092309952E-1,1.342798471E-1
1.072814378E2,-2.745394707E-1,1.343727112E-3,2.428847551E-2
1.077814378E2,-4.367160797E-2,-1.008300781E-1,1.097768545E-1
1.082814378E2,-6.005358696E-2,9.748935699E-2,1.402127743E-2
1.087814378E2,1.085639000E-2,-1.752281189E-2,-7.600247860E-2
1.092814378E2,7.848501205E-2,-4.611873627E-2,-2.191430330E-2
1.097814378E2,-4.415345192E-2,-3.321361542E-2,-4.029047489E-2
1.102814378E2,-3.717207909E-2,6.821155548E-2,-1.445108652E-2
1.107814378E2,3.723287582E-2,-9.038639069E-2,-6.010472775E-3
1.112814378E2,-1.179840565E-1,-1.184587479E-1,2.552700043E-2
1.117814378E2,8.670210838E-2,-1.559991837E-1,7.913988829E-2
1.122814378E2,-3.665995598E-2,-1.475877762E-1,-5.697637796E-2
1.127814378E2,-1.709437370E-2,2.055072784E-2,-2.626836300E-2
1.132814378E2,-1.634645462E-2,-5.276012421E-2,-5.556881428E-3
1.137814378E2,-5.496239662E-2,5.408382416E-2,-1.117985249E-1
1.142814378E2,6.061005592E-2,-2.203283310E-1,-5.922245979E-2
1.147814378E2,-1.226143837E-1,-2.301502228E-2,-9.967160225E-2
1.152814378E2,6.031680107E-2,-2.199172974E-2,1.502144337E-2
1.157814378E2,-8.007097244E-2,2.109622955E-2,-6.844651699E-2
1.162814378E2,-9.890985489E-2,1.225852966E-1,-1.537818909E-1
1.167814378E2,-1.981353760E-2,-6.857872009E-2,-1.371061802E-2
1.172814378E2,5.449056625E-2,2.532148361E-1,-1.011753082E-1
1.177814378E2,-2.465157509E-1,4.421997070E-2,6.184411049E-2
1.182814378E2,2.579498291E-2,6.801319122E-2,1.986384392E-2
1.187814378E2,-6.117248535E-2,-2.486143112E-1,1.402941346E-1
1.192814378E2,3.066873550E-2,3.798198700E-2,1.597873569E-1
1.197814378E2,1.573538780E-2,-9.972476959E-2,4.648876190E-2
1.202814378E2,1.981377602E-2,-1.999378204E-2,3.468549252E-2
1.207814378E2,4.204034805E-2,-9.640693665E-3,3.302562237E-2
1.212814378E2,-2.339887619E-2,7.629871368E-2,5.991864204E-2
1.217814378E2,-4.018712044E-2,8.720684052E-2,-4.876852036E-3
1.222814378E2,1.134419441E-2,-9.430694580E-2,-1.084436178E-1
1.227814378E2,2.698206902E-2,1.371126175E-1,2.726113796E-2
1.232814378E2,2.907609940E-2,-1.914310455E-2,-2.261114120E-2
1.237814378E2,-3.742027283E-2,1.422595978E-1,4.669737816E-2
1.242814378E2,1.058504581E-1,-7.770347595E-2,3.460955620E-2
1.247814378E2,-1.561083794E-1,2.148818970E-2,-2.195961475E-1
1.252814378E2,-2.730379105E-1,-2.107219696E-1,-8.418142796E-2
1.257814378E2,-4.677033424E-2,3.178882599E-2,1.164329052E-2
1.262814378E2,-8.454322815E-4,-6.600856781E-2,8.701848984E-2
1.267814378E2,1.154108047E-1,-2.544469833E-1,-2.041238546E-1
1.272814378E2,-1.069619656E-1,1.554746628E-1,-1.505297422E-1
1.277814378E2,-1.024427414E-1,-2.755537033E-1,-2.170590162E-1
1.282814378E2,1.690747738E-1,-1.382856369E-1,-7.085204124E-3
1.287814378E2,-1.702997684E-1,5.447292328E-2,-1.917316914E-1
1.292814378E2,-6.005263329E-2,1.785497665E-1,-2.930362225E-1
1.297814378E2,-3.485155106E-1,-7.252101898E-1,-4.110515118E-1
1.302814378E2,-6.895756721E-2,-1.736593246E-1,-9.329557419E-3
1.307814378E2,7.075071335E-3,1.109972000E-1,-2.707457542E-2
1.312814378E2,1.030380726E-1,-8.290290833E-3,8.467125893E-2
1.317814378E2,7.894277573E-3,-2.119789124E-1,2.911627293E-2
1.322814378E2,1.231160164E-1,-8.575439453E-2,9.136831760E-2
1.327814378E2,2.276813984E-1,-1.078834534E-1,4.083853960E-1
1.332814378E2,-1.829147339E-3,3.152179718E-2,2.715908289E-1
1.337814378E2,1.069591045E-1,1.476583481E-1,2.765256763E-1
1.342814378E2,1.364021301E-1,-4.846763611E-2,1.450152993E-1
1.347814378E2,1.751303673E-2,5.999469757E-2,1.956796348E-1
1.352814378E2,1.225781441E-2,7.129764557E-2,1.071843803E-1
1.357814378E2,6.675577164E-2,-4.986667633E-2,7.030597329E-2
1.362814378E2,-6.674504280E-2,1.926555634E-1,3.506189585E-2
1.367814378E2,-2.238996029E-1,4.713401794E-1,-2.943279743E-1
1.372814378E2,-6.253864765E-1,7.042188644E-1,-9.666554332E-1
1.377814378E2,-5.425548553E-2,7.596683502E-2,-3.233523369E-1
1.382814378E2,1.131064892E-1,-7.712459564E-2,-3.807902336E-1
1.387814378E2,-1.470012665E-1,-1.003742218E-1,-2.188086510E-1
1.392814378E2,-2.580142021E-2,-8.354663849E-2,-3.638386726E-3
1.397814378E2,4.342412949E-2,6.804656982E-2,-1.067483425E-2
1.402814378E2,-4.630899429E-2,6.700897217E-2,-8.867979050E-4
1.407814378E2,5.079960823E-2,-1.962661743E-3,1.232683659E-2
1.412814378E2,-2.213206291E-1,-4.320240021E-2,1.891807318E-1
1.417814378E2,-5.157303810E-2,1.136817932E-1,-1.053106785E-2
1.422814378E2,-9.663820267E-3,-5.189800262E-2,1.409709454E-2
1.427814378E2,-1.392762661E-1,-8.971977234E-2,1.815696955E-1
1.432814378E2,-1.307361126E-1,-2.338314056E-2,-1.306355000E-2
1.437814378E2,3.174107075E-1,1.175060272E-1,1.082381010E-1
1.442814378E2,-1.534104347E-1,-2.675914764E-2,2.778399587E-1
1.447814378E2,-1.951868534E-1,-3.214454651E-2,1.626621485E-1
1.452814378E2,-1.403095722E-1,-1.880359650E-2,4.154431820E-2
1.457814378E2,-4.503393173E-2,-5.463600159E-3,1.267653704E-1
1.462814378E2,3.656530380E-2,-1.070852280E-1,2.498978376E-2
1.467814378E2,-1.077010632E-1,1.531524658E-1,-1.954674721E-2
1.472814378E2,2.185409069E-1,5.593776703E-2,-6.184351444E-2
1.477814378E2,3.489496708E-1,9.914016724E-2,1.744012237E-1
1.482814378E2,3.204121590E-1,-1.386737823E-2,1.845599711E-1
1.487814378E2,2.014522552E-1,-6.956481934E-2,3.811401129E-1
1.492814378E2,2.781033516E-2,-1.505241394E-1,2.988767326E-1
1.497814378E2,-1.603031158E-1,-1.614856720E-2,2.499451041E-1
1.502814378E2,-9.185838699E-2,-2.382011414E-1,1.869775951E-1
1.507814378E2,-3.242397308E-2,3.600406647E-2,2.651417255E-2
1.512814378E2,-4.014492035E-3,-2.560806274E-2,2.453580797E-1
1.517814378E2,-1.323003769E-1,-2.037820816E-1,2.965473533E-1
1.522814378E2,-2.307381630E-1,-1.945905685E-1,2.998012304E-1
1.527814378E2,-3.205304146E-1,-1.917810440E-1,8.988174796E-2
1.532814378E2,-3.710722923E-1,-4.633140564E-2,8.978247643E-4
1.537814378E2,-6.847066879E-1,5.104827881E-2,-8.236175179E-1
1.542814378E2,-1.192853928E0,3.023691177E-1,-8.648270965E-1
1.547814378E2,-1.247429848E0,-1.567573547E-1,-1.697961926E0
1.552814378E2,-8.644828796E-1,-2.493448257E-1,-7.164236903E-1
1.557814378E2,-3.068034649E-1,-1.604709625E-1,-2.207958698E-2
1.562814378E2,-3.289295435E-1,-8.977413177E-2,-5.813324451E-2
1.567814378E2,5.364418030E-5,8.608818054E-3,7.739329338E-2
1.572814378E2,-5.219137669E-2,-2.658157349E-1,1.727833748E-1
1.577814378E2,-1.401340961E-2,1.269350052E-1,-1.815010309E-1
1.582814378E2,-1.047743559E-1,-3.643703461E-2,5.860072374E-2
1.587814378E2,-3.659904003E-2,-5.061912537E-2,1.507732272E-1
1.592814378E2,-2.053142786E-1,-1.140394211E-1,8.362406492E-2
1.597814378E2,-6.637406349E-2,1.939773560E-2,3.920018673E-2
1.602814378E2,2.198159695E-2,2.849578857E-3,-1.607429981E-2
1.607814378E2,1.286561847E0,5.229291916E-1,-5.424529314E-1
1.612814378E2,6.454463005E-1,2.419490814E-1,-3.222772479E-1
1.617814378E2,5.298957825E-1,2.198562622E-1,-6.224253178E-1
1.622814378E2,9.235448837E-1,2.723331451E-1,-8.469896019E-2
1.627814378E2,1.041236758E0,1.868581772E-1,3.026161790E-1
1.632814378E2,-1.379203796E-2,6.711959839E-2,1.921152472E-1
1.637814378E2,1.933460236E-1,4.748249054E-2,-3.958822191E-1
1.642814378E2,1.230719090E-1,1.066741943E-1,2.247595787E-2
1.647814378E2,1.091811657E-1,9.000873566E-2,4.989394546E-2
1.652814378E2,5.611515045E-2,-6.728935242E-2,1.019444615E-1
1.657814378E2,4.566192627E-2,2.449417114E-2,8.921974152E-2
1.662814378E2,5.235671997E-4,5.674266815E-2,-2.028914541E-2
1.667814378E2,3.236985207E-2,-1.030654907E-1,5.798388273E-2
1.672814378E2,2.346467972E-2,6.082630157E-2,-1.159637421E-2
1.677814378E2,2.901649475E-2,6.122589111E-3,-9.578466415E-4
1.682814378E2,-6.455421448E-3,-1.142978668E-2,1.589395106E-2
1.687814378E2,1.601457596E-3,1.314449310E-2,3.924220800E-4
1.692814378E2,8.656978607E-3,-6.957054138E-3,1.492872834E-2
1.697814378E2,-1.158714294E-2,-1.370525360E-2,-1.505589485E-2
1.702814378E2,-3.469753265E-2,-8.992195129E-3,-3.272654116E-2
1.707814378E2,1.598584652E-1,4.509067535E-2,-2.189365029E-2
1.712814378E2,2.530713081E-1,6.999206543E-2,-5.696058273E-2
1.717814378E2,9.226613045E-1,2.959012985E-1,-4.374995530E-1
1.722814378E2,2.124633789E-1,1.039457321E-1,-5.037307739E-3
1.727814378E2,-6.211280823E-2,-5.052947998E-2,1.008405089E-1
1.732814378E2,7.131481171E-2,-1.883792877E-2,8.255690336E-3
1.737814378E2,3.550529480E-2,1.238241196E-1,3.078648448E-2
1.742814378E2,1.756477356E-1,1.602172852E-2,-5.637794733E-2
1.747814378E2,-3.189654350E-1,-1.607275009E-1,2.500951290E-3
1.752814378E2,4.484529495E-1,1.381616592E-1,-1.970666647E-2
1.757814378E2,-1.315979958E-1,-3.495626450E-1,-1.080381870E-1
1.762814378E2,-2.945346832E-1,2.551374435E-1,-1.319637299E-1
1.767814378E2,2.474598885E-1,3.883886337E-1,1.603408158E-1
1.772814378E2,-1.186304092E-1,-1.724901199E-1,1.020321846E-1
1.777814378E2,-2.974781990E-1,2.682633400E-1,-5.157232285E-2
1.782814378E2,4.318408966E-1,-7.713003159E-1,2.530884743E-2
1.787814378E2,9.190416336E-2,-2.955789566E-1,1.555042267E-1
1.792814378E2,-4.753832817E-1,5.093374252E-1,1.056756973E-1
1.797814378E2,-7.072181702E-1,-1.974020004E-1,-1.582169831E-1
1.802814378E2,-6.109251976E-1,-5.469741821E-1,1.328510642E-1
1.807814378E2,-1.784214973E-1,-6.769847870E-2,2.899023890E-2
1.812814378E2,-2.137637138E-1,-2.013006210E-1,-9.329986572E-2
1.817814378E2,-7.498979568E-2,-2.458095551E-2,-4.358536005E-2
1.822814378E2,-4.723072052E-3,4.166316986E-2,1.510781050E-2
1.827814378E2,4.507017136E-2,-1.159315109E-1,3.526216745E-2
1.832814378E2,-5.937242508E-2,4.096508026E-2,5.924040079E-2
1.837814378E2,4.533910751E-2,8.289432526E-2,9.163489938E-2
1.842814378E2,5.342054367E-2,-2.926540375E-2,1.519758403E-1
1.847814378E2,1.190805435E-2,-9.176731110E-2,1.214631125E-1
1.852814378E2,7.106304169E-3,3.571224213E-2,-5.258692801E-2
1.857814378E2,-1.038804054E-1,-8.633518219E-2,1.436804533E-1
1.862814378E2,-3.914022446E-2,-7.091426849E-2,-1.396581531E-2
1.867814378E2,-3.083636761E-1,-1.372432709E-1,-4.420191050E-2
1.872814378E2,-2.688534260E-1,-2.220983505E-1,1.162734032E-1
1.877814378E2,-1.553761959E-1,-1.006507874E-2,4.568421841E-2
1.882814378E2,-9.676694870E-3,2.009868622E-2,-9.140223265E-4
1.887814378E2,-7.344317436E-2,-1.568317413E-2,2.024939656E-2
1.892814378E2,-1.219286919E-1,-6.377983093E-2,3.183972836E-2
1.897814378E2,9.853363037E-3,3.220462799E-2,-1.079245955E-1
1.902814378E2,5.699553490E-1,1.500549316E-1,-5.452787876E-1
1.907814378E2,8.297312260E-1,4.364929199E-1,1.558398604E-1
1.912814378E2,1.527400255E0,6.109666824E-1,-1.306477308E0
1.917814378E2,-5.368759632E-1,-9.619712830E-2,1.113957405E0
1.922814378E2,9.123306274E-1,1.585035324E-1,-1.731467247E-2
1.927814378E2,4.242696762E-1,2.484388351E-1,-2.327002883E-1
1.932814378E2,3.423118591E-2,2.259731293E-2,-6.418192387E-2
1.937814378E2,4.208588600E-2,5.752563477E-2,9.771770239E-2
1.942814378E2,-4.800248146E-2,-8.336353302E-2,2.102403045E-1
1.947814378E2,-1.126899242E0,-2.074308395E-1,2.011250257E-1
1.952814378E2,1.281091213E0,8.799047470E-1,-4.399722815E-1
1.957814378E2,2.249523878E0,6.254873276E-1,-5.858899355E-1
1.962814378E2,-6.967296600E-1,-4.815835953E-1,-1.904189289E-1
1.967814378E2,4.151666164E-1,1.965789795E-1,-2.131927460E-1
1.972814378E2,3.446736336E-1,5.028438568E-2,-1.992878169E-1
1.977814378E2,3.785705566E-2,5.782699585E-2,1.709091663E-2
1.982814378E2,5.118286610E-1,1.094980240E-1,-4.318614006E-1
1.987814378E2,-6.085348129E-2,-1.259803772E-2,6.763406396E-1
1.992814378E2,-1.372478962E0,-7.891502380E-1,5.669202805E-1
1.997814378E2,1.122383595E0,6.201748848E-1,6.998223066E-1
2.002814378E2,6.627092361E-1,4.021997452E-1,-4.081485271E-1
2.007814378E2,8.861150742E-1,6.940441132E-1,-1.731722832E0
2.012814378E2,7.440133095E-1,7.444667816E-1,-3.118042946E-1
2.017814378E2,3.013863564E-1,2.846460342E-1,-1.943869591E-1
2.022814378E2,1.903119087E-1,1.550211906E-1,-1.299619675E-1
2.027814378E2,6.626892090E-2,9.601163864E-2,-5.099773407E-4
2.032814378E2,1.140170097E-1,1.233863831E-2,-5.699253082E-2
2.037814378E2,7.614803314E-2,5.478525162E-2,-1.666591167E-1
2.042814378E2,-8.037805557E-2,-7.660675049E-2,1.074199677E-1
2.047814378E2,-1.186718941E-1,-4.479837418E-2,3.240108490E-4
2.052814378E2,-1.036877632E-1,4.312229156E-2,-2.939469814E-1
2.057814378E2,-1.561512947E-1,-6.546688080E-2,-1.591382027E-1
2.062814378E2,-4.053163528E-2,-1.888036728E-1,-1.941704750E-2
2.067814378E2,-6.645250320E-2,3.348302841E-2,2.900829315E-1
2.072814378E2,-1.477360725E-1,-1.390514374E-1,6.636452675E-2
2.077814378E2,-2.883577347E-2,-6.445264816E-2,1.459124088E-1
2.082814378E2,-1.429500580E-1,3.715419769E-2,7.821941376E-2
2.087814378E2,2.631139755E-2,-1.169199944E-1,4.364871979E-2
2.092814378E2,5.635213852E-2,-5.433416367E-2,1.116549969E-1
2.097814378E2,6.043958664E-2,9.080839157E-2,1.053924561E-1
2.102814378E2,-7.317066193E-3,1.215939522E-1,3.574252129E-2
2.107814378E2,2.817773819E-2,-1.080279350E-1,1.866955757E-1
2.112814378E2,-9.905099869E-2,-1.268320084E-1,1.391721964E-1
2.117814378E2,-6.664562225E-2,-9.481430054E-2,6.520307064E-2
2.122814378E2,-2.372312546E-2,5.370855331E-2,-9.551882744E-3
2.127814378E2,6.329059601E-3,-3.949928284E-2,-5.196332932E-3
2.132814378E2,-1.008272171E-2,-8.561134338E-3,2.356016636E-2
2.137814378E2,1.549243927E-2,-1.687488556E-1,-4.204046726E-2
2.142814378E2,1.511378288E-1,-4.231643677E-1,-2.027313709E-1
2.147814378E2,-9.403371811E-2,2.712068558E-1,3.826475143E-2
2.152814378E2,4.086494446E-4,5.757904053E-2,-4.553794861E-5
2.157814378E2,9.848976135E-2,-4.611301422E-2,4.728007317E-2
2.162814378E2,1.401295662E-1,1.049704552E-1,-8.577144146E-2
2.167814378E2,-9.620666504E-3,-1.945257187E-1,-1.469776630E-1
2.172814378E2,1.425013542E-1,-2.515125275E-1,-1.026141644E-1
2.177814378E2,-1.598405838E-2,-1.341447830E-1,-4.696726799E-3
2.182814378E2,-6.799840927E-2,-1.315526962E-1,1.001318693E-1
2.187814378E2,-4.404115677E-2,-5.681133270E-2,-2.169096470E-2
2.192814378E2,-8.943128586E-2,-1.700210571E-2,-6.115651131E-2
2.197814378E2,-6.706666946E-2,5.502605438E-2,-3.135204315E-2
2.202814378E2,-4.453992844E-2,-4.748058319E-2,-3.367650509E-2
2.207814378E2,-1.892094612E-1,-9.637737274E-2,-6.767272949E-3
2.212814378E2,-1.378703117E-1,-4.590129852E-2,8.423566818E-2
2.217814378E2,-4.038143158E-2,8.192062378E-3,6.456780434E-2
2.222814378E2,-3.843641281E-2,-4.047012329E-2,1.422595978E-2
2.227814378E2,1.496744156E-2,4.869174957E-2,2.336180210E-2
2.232814378E2,4.815912247E-2,-3.874778748E-2,5.909454823E-2
2.237814378E2,2.953910828E-2,1.585960388E-2,9.870183468E-2
2.242814378E2,4.633235931E-2,-4.190635681E-2,4.033231735E-2
2.247814378E2,2.144336700E-3,1.204805374E-1,8.545994759E-3
2.252814378E2,1.611757278E-2,3.333282471E-2,-7.358300686E-2
2.257814378E2,-4.757261276E-2,-4.342937469E-2,-8.588027954E-2
2.262814378E2,-5.174446106E-2,-7.756805420E-2,-9.806656837E-2
2.267814378E2,-1.085360050E-1,3.796958923E-2,-1.217682362E-1
2.272814378E2,-7.860684395E-2,-7.233428955E-2,-1.039061546E-1
2.277814378E2,-7.880997658E-2,-8.766460419E-2,3.830671310E-3
2.282814378E2,-1.213304996E-1,1.002788544E-2,3.379821777E-3
2.287814378E2,-6.742024422E-2,-9.694385529E-2,-1.483988762E-2
2.292814378E2,-1.673121452E-1,-2.380371094E-1,3.388792276E-1
2.297814378E2,-5.855751038E-2,-3.468036652E-2,1.274800301E-2
2.302814378E2,8.744239807E-2,-1.202678680E-2,2.865389585E-1
2.307814378E2,4.197597504E-3,6.840705872E-3,1.708035469E-1
2.312814378E2,-3.155722618E-1,1.078453064E-1,4.379637241E-1
2.317814378E2,8.305101395E-1,5.013456345E-1,1.383957863E-1
2.322814378E2,-1.419951916E-1,-5.163516998E-1,2.470510006E-1
2.327814378E2,5.050730705E-2,9.596347809E-2,-2.489578724E-2
2.332814378E2,-3.034451008E-1,-6.975364685E-2,2.768544853E-1
2.337814378E2,-1.472537518E-1,-3.056240082E-2,1.383762807E-1
2.342814378E2,-7.522149086E-1,-9.440488815E-1,2.386238575E-1
2.347814378E2,1.103998184E0,6.661138535E-1,-8.099210262E-1
2.352814378E2,-6.990864277E-1,6.295585632E-2,7.473140359E-1
2.357814378E2,-2.264609337E-1,1.669855118E-1,-9.762216210E-1
2.362814378E2,8.263654709E-1,6.265077591E-1,-3.456867337E-1
2.367814378E2,5.079851151E-1,3.625478745E-1,-1.282519698E-1
2.372814378E2,2.590880394E-1,1.689071655E-1,-4.585532844E-2
2.377814378E2,2.625355721E-1,9.843635559E-2,1.586982608E-2
2.382814378E2,3.125691414E-1,1.493883133E-1,-1.233215183E-1
2.387814378E2,4.220743179E-1,2.795915604E-1,-9.570078552E-2
2.392814378E2,8.616795540E-1,5.522403717E-1,-6.221485734E-1
2.397814378E2,4.116244316E-1,1.254358292E-1,-8.132320642E-1
2.402814378E2,2.773690224E-1,4.389925003E-1,6.820623875E-1
2.407814378E2,8.536615372E-1,4.396104813E-1,4.123336375E-1
2.412814378E2,3.025035858E-1,2.070283890E-1,-2.313212119E-2
2.417814378E2,2.237372398E-1,-9.118652344E-2,-2.765679955E-1
2.422814378E2,5.733547211E-1,1.117633343E0,-1.037321448E0
2.427814378E2,8.932261467E-1,4.325327873E-1,-3.712815642E-1
2.432814378E2,4.750933647E-1,3.132939339E-1,-1.288876981E-1
2.437814378E2,3.360924721E-1,9.952640533E-2,-2.051562071E-1
2.442814378E2,-2.383861542E-1,-8.927822113E-2,-1.274287701E-1
2.447814378E2,-7.480096817E-2,-4.683256149E-2,1.271592081E-1
2.452814378E2,1.477208138E-1,1.888127327E-1,-3.922089934E-2
2.457814378E2,-6.506967545E-2,-2.295589447E-2,1.166207939E-1
2.462814378E2,-6.559658051E-2,-6.669759750E-2,1.857448965E-1
2.467814378E2,3.101396561E-2,6.586408615E-2,-4.112629890E-1
2.472814378E2,-2.445135117E-1,-4.867296219E-1,2.467466593E-1
2.477814378E2,-1.687397957E-1,-9.614706039E-2,5.468969345E-1
2.482814378E2,-1.462802887E-1,-4.154729843E-2,2.821925282E-1
2.487814378E2,-1.894168854E-1,-1.820249557E-1,-1.726441681E-1
2.492814378E2,7.588434219E-2,-4.316568375E-2,-1.590620875E-1
2.497814378E2,-5.739688873E-3,2.366633415E-1,-2.419056892E-1
2.502814378E2,-2.037196159E-1,-5.309305191E-1,-8.079743385E-1
2.507814378E2,-1.638283730E-1,-2.099514008E-2,-3.319337964E-1
2.512814378E2,-3.178200722E-1,1.089191437E-2,-3.508049250E-1
2.517814378E2,-2.741045952E-1,-1.782541275E-1,-2.322080135E-1
2.522814378E2,-1.346240044E-1,8.773803711E-4,-1.817382574E-1
2.527814378E2,-1.660780907E-1,3.218555450E-2,-7.343411446E-2
2.532814378E2,7.773923874E-2,-1.042108536E-1,2.425169945E-1
2.537814378E2,3.664255142E-2,2.709298134E-1,2.111308575E-1
2.542814378E2,5.730152130E-3,-2.940559387E-2,5.737662315E-2
2.547814378E2,1.469368935E-1,9.574890137E-4,2.641981840E-1
2.552814378E2,-7.025241852E-3,-1.325511932E-2,-4.730308056E-2
2.557814378E2,3.445196152E-2,-7.506370544E-3,4.948723316E-2
2.562814378E2,1.438474655E-2,-1.030254364E-2,-6.934463978E-2
2.567814378E2,-9.082317352E-3,7.941913605E-2,-8.764529228E-2
2.572814378E2,-9.071207047E-2,5.776596069E-2,-6.520867348E-2
2.577814378E2,-1.137604713E-1,1.260519028E-1,-3.285646439E-2
2.582814378E2,-5.578565598E-2,7.132530212E-2,1.662360430E-1
2.587814378E2,1.396470070E-1,1.859855652E-2,1.407341957E-1
2.592814378E2,9.863519669E-2,2.902841568E-2,2.096110880E-1
2.597814378E2,8.940172195E-2,1.139898300E-1,1.006449163E-1
2.602814378E2,-9.015989304E-2,3.269052505E-2,1.236367226E-2
2.607814378E2,-3.529977798E-2,2.556562424E-2,-2.181384563E-1
2.612814378E2,-8.006715775E-2,-1.099157333E-1,1.311677694E-2
2.617814378E2,-6.642484665E-2,-1.562786102E-2,-5.224376917E-2
2.622814378E2,-7.916450500E-3,6.344366074E-2,1.140111685E-2
2.627814378E2,-1.737880707E-2,6.908750534E-2,-5.608183146E-2
2.632814378E2,-4.062461853E-2,5.172491074E-2,-5.057418346E-2
2.637814378E2,-4.760503769E-2,3.273010254E-3,-1.318317652E-2
2.642814378E2,-8.004331589E-2,3.521633148E-2,-8.609545231E-2
2.647814378E2,-9.318828583E-3,-1.142401695E-1,-4.638946056E-2
2.652814378E2,9.879446030E-2,-7.947921753E-2,8.717590570E-2
2.657814378E2,3.070688248E-2,-2.381753922E-2,8.699393272E-2
2.662814378E2,-2.060747147E-2,7.494115829E-2,4.390132427E-2
2.667814378E2,4.964590073E-2,4.788970947E-2,6.464827061E-2
2.672814378E2,-5.255174637E-2,7.848501205E-2,-7.067024708E-3
2.677814378E2,-5.393505096E-3,2.188777924E-2,1.954674721E-3
2.682814378E2,1.459074020E-2,2.142667770E-2,5.250525475E-2
2.687814378E2,1.303911209E-2,-5.905818939E-2,-3.319895267E-2
2.692814378E2,2.376890182E-2,-8.211517334E-2,4.474580288E-3
2.697814378E2,4.713010788E-2,-1.089124680E-1,-2.755731344E-2
2.702814378E2,-1.113462448E-1,-6.393623352E-2,-2.592664957E-2
2.707814378E2,1.487112045E-2,-1.464262009E-1,-2.593910694E-2
2.712814378E2,-2.121305466E-2,5.001497269E-2,-2.314645052E-2
2.717814378E2,5.467176437E-2,-4.549169540E-2,-6.075799465E-3
2.722814378E2,1.414775848E-2,3.975629807E-2,2.513927221E-2
2.727814378E2,4.947280884E-2,-5.398416519E-2,8.196455240E-2
2.732814378E2,-2.055644989E-3,4.034042358E-4,-1.338690519E-2
2.737814378E2,-4.793643951E-2,5.465507507E-3,-6.586790085E-2
2.742814378E2,1.100397110E-2,3.670215607E-2,8.697444201E-2
2.747814378E2,5.742406845E-2,-9.383583069E-2,5.955624580E-2
2.752814378E2,-2.626895905E-3,1.710367203E-2,-1.170903444E-2
2.757814378E2,7.959842682E-3,-6.479024887E-2,-1.353460550E-2
2.762814378E2,-2.385568619E-2,3.741931915E-2,-8.974522352E-2
2.767814378E2,9.928226471E-3,1.181282997E-1,-1.653128862E-2
2.772814378E2,-1.103734970E-2,-2.408552170E-2,-2.589726448E-2
2.777814378E2,3.895902634E-2,-5.213737488E-2,3.781545162E-2
2.782814378E2,5.024480820E-2,-1.037454605E-2,3.619241714E-2
2.787814378E2,-5.994749069E-2,1.113133430E-1,-5.330383778E-2
2.792814378E2,4.281044006E-3,7.454252243E-2,3.876280785E-2
2.797814378E2,8.433151245E-2,-1.447672844E-1,2.625179291E-2
2.802814378E2,-9.535264969E-2,3.063488007E-2,5.105197430E-3
2.807814378E2,-1.315069199E-2,-8.867359161E-2,-1.601839066E-2
2.812814378E2,-3.814697266E-6,3.446531296E-2,-3.401660919E-2
2.817814378E2,3.065586090E-2,-1.253318787E-2,3.168594837E-2
2.822814378E2,5.561351776E-3,-9.799718857E-2,3.251212835E-2
2.827814378E2,3.699922562E-2,-1.103181839E-1,1.371234655E-2
2.832814378E2,-6.894636154E-2,1.829957962E-1,-2.844631672E-3
2.837814378E2,8.296823502E-2,-1.815795898E-1,-5.623102188E-4
2.842814378E2,-1.640028954E-1,-5.743026733E-3,5.474650860E-2
2.847814378E2,-1.002478600E-1,-1.233816147E-1,4.710513353E-2
2.852814378E2,2.512931824E-4,-6.003665924E-2,7.467013597E-2
2.857814378E2,-6.832599640E-2,-1.225376129E-2,-7.483661175E-3
2.862814378E2,2.669811249E-3,-8.042240143E-2,7.484179735E-2
2.867814378E2,-3.183412552E-2,4.451274872E-2,-4.266285896E-2
2.872814378E2,-6.596326828E-2,7.477569580E-2,-2.080422640E-2
2.877814378E2,-1.177453995E-2,-2.309989929E-2,-5.692988634E-2
2.882814378E2,-9.366512299E-3,-1.604032516E-1,-2.359563112E-2
2.887814378E2,-1.904535294E-2,-9.524536133E-2,-5.277061462E-2
2.892814378E2,-5.861091614E-2,1.043071747E-1,2.048546076E-2
2.897814378E2,-1.219353676E-1,2.939305305E-1,2.227079868E-2
2.902814378E2,2.185044289E-1,4.859924316E-3,2.572417259E-2
2.907814378E2,9.987592697E-2,-4.302501678E-2,-1.668724418E-1
2.912814378E2,1.648387909E-1,-1.462745667E-2,5.987226963E-3
2.917814378E2,2.256579399E-1,-4.245638847E-1,-6.684440374E-2
2.922814378E2,4.110240936E-2,-4.983901978E-3,-1.036822796E-2
2.927814378E2,1.341786385E-1,-3.644952774E-1,4.236936569E-3
2.932814378E2,4.661798477E-2,-1.739311218E-1,-2.562952042E-2
2.937814378E2,-6.424570084E-2,1.041231155E-1,7.758748531E-2
2.942814378E2,2.471923828E-3,-4.895877838E-2,-4.367947578E-3
2.947814378E2,-4.357194901E-2,5.961704254E-2,1.568979025E-2
2.952814378E2,-2.450370789E-2,1.373672485E-2,1.180881262E-2
2.957814378E2,2.722740173E-2,-4.611968994E-3,2.553910017E-2
2.962814378E2,1.760005951E-2,-6.728172302E-3,3.603512049E-2
2.967814378E2,-2.684450150E-2,-1.232051849E-2,-7.856845856E-3
2.972814378E2,-3.362751007E-2,3.989887238E-2,1.959592104E-2
2.977814378E2,-1.029777527E-2,4.903316498E-2,-1.123249531E-3
2.982814378E2,7.326126099E-3,-4.689884186E-2,-1.868247986E-3
2.987814378E2,3.090858459E-3,1.884269714E-2,3.962200880E-2
2.992814378E2,-4.045248032E-2,4.529953003E-3,4.057770967E-2
2.997814378E2,-3.393411636E-2,-1.158761978E-1,1.203042269E-2
3.002814378E2,-7.294940948E-2,7.488250732E-2,-1.060718298E-2
3.007814378E2,1.112866402E-1,4.168033600E-2,3.966695070E-2
3.012814378E2,2.214860916E-2,-5.321693420E-2,-7.156461477E-2
3.017814378E2,3.289651871E-2,-7.462692261E-2,-1.713240147E-2
3.022814378E2,-2.344560623E-2,8.137416840E-2,-3.850865364E-2
3.027814378E2,-1.377725601E-2,8.900642395E-3,-3.498053551E-2
3.032814378E2,1.980304718E-3,-5.171012878E-2,-8.738040924E-4
3.037814378E2,-2.061891556E-2,6.994819641E-2,-3.142929077E-2
3.042814378E2,5.024290085E-2,-8.045291901E-2,2.476358414E-2
3.047814378E2,1.247882843E-3,3.094005585E-2,2.254366875E-3
3.052814378E2,-4.318952560E-2,1.017093658E-2,3.484499454E-2
3.057814378E2,3.730630875E-2,7.854461670E-3,3.171241283E-2
3.062814378E2,-2.833318710E-2,-1.884460449E-2,4.841679335E-2
3.067814378E2,2.970218658E-2,5.617713928E-2,4.016792774E-2
3.072814378E2,-8.504867554E-3,-5.609512329E-2,-5.420851707E-2
3.077814378E2,-2.561140060E-2,2.405929565E-2,2.699613571E-3
3.082814378E2,2.181291580E-2,-1.777048111E-1,2.006804943E-2
3.087814378E2,-2.178668976E-3,2.193164825E-2,5.067980289E-2
3.092814378E2,-8.146905899E-2,9.781265259E-2,-1.884126663E-2
3.097814378E2,1.723623276E-2,2.056598663E-2,1.601791382E-2
3.102814378E2,2.866220474E-2,-3.475570679E-2,1.531791687E-2
3.107814378E2,-6.721496582E-3,5.082988739E-2,5.447506905E-3
3.112814378E2,4.559564590E-2,-3.109169006E-2,2.114355564E-2
3.117814378E2,-1.395130157E-2,5.606937408E-2,2.386927605E-3
3.122814378E2,4.826307297E-2,1.557540894E-2,4.354715347E-2
3.127814378E2,-3.753328323E-2,5.299663544E-2,1.842297316E-1
3.132814378E2,-2.421331406E-2,-1.808643341E-2,1.367717981E-2
3.137814378E2,5.478382111E-2,6.918907166E-3,2.874630690E-2
3.142814378E2,4.751539230E-2,9.677886963E-3,1.642376184E-2
3.147814378E2,4.681968689E-2,-3.908920288E-2,3.098732233E-2
3.152814378E2,3.589010239E-2,-7.254695892E-2,4.945451021E-2
3.157814378E2,3.527593613E-2,-7.203769684E-2,1.251339912E-2
3.162814378E2,-1.064872742E-2,-2.314472198E-2,1.406073570E-3
3.167814378E2,-1.841402054E-2,-1.200618744E-1,-1.828635335E-1
3.172814378E2,-8.723735809E-3,-5.154800415E-2,-1.876384020E-2
3.177814378E2,1.182050705E-1,7.872295380E-2,5.156845450E-1
3.182814378E2,9.135198593E-2,3.449440002E-3,2.785290778E-1
3.187814378E2,2.239370346E-2,-7.226848602E-2,-1.970157027E-2
3.192814378E2,-1.669864655E-1,8.992290497E-2,-1.556523442E-1
3.197814378E2,3.136968613E-2,-1.227893829E-1,-4.629833102E-1
3.202814378E2,-1.715493202E-1,2.148466110E-1,-2.277994156E-1
3.207814378E2,-6.413459778E-3,-1.368761063E-1,-2.488557100E-1
3.212814378E2,9.122276306E-2,-1.305017471E-1,-2.908194065E-2
3.217814378E2,-1.521120071E-1,9.848117828E-2,-1.045850515E-1
3.222814378E2,-5.384922028E-2,2.218818665E-2,-9.965562820E-2
3.227814378E2,-2.917098999E-2,1.122932434E-1,1.241079569E-1
3.232814378E2,-5.285310745E-2,2.019672394E-1,1.228404045E-2
3.237814378E2,-1.437644958E-1,-3.060903549E-1,-2.770521641E-1
3.242814378E2,-6.209945679E-2,-1.468343735E-1,-1.614346504E-1
3.247814378E2,4.720163345E-2,-3.594303131E-2,8.467447758E-2
3.252814378E2,-5.457067490E-2,-3.843593597E-2,9.491443634E-2
3.257814378E2,-1.992988586E-2,-1.385040283E-1,1.125860214E-1
3.262814378E2,-2.031388283E-1,6.821079254E-1,-1.900172234E-1
3.267814378E2,6.728649139E-2,-4.568004608E-2,-8.482086658E-2
3.272814378E2,-5.185651779E-2,1.972651482E-1,5.971467495E-2
3.277814378E2,-5.369043350E-2,5.958590508E-1,5.682554245E-1
3.282814378E2,-6.587076187E-2,3.341407776E-1,1.672536731E-1
3.287814378E2,2.909450531E-1,3.257260323E-1,3.443754613E-1
3.292814378E2,-1.766104698E-1,5.313987732E-1,1.219427586E-2
3.297814378E2,1.579709053E-1,-2.823519707E-1,-3.173180223E-1
3.302814378E2,2.068495750E-1,-4.099884033E-1,-1.155296564E-1
3.307814378E2,-6.989431381E-2,1.596555710E-1,6.694078445E-3
3.312814378E2,5.317831039E-2,-6.090068817E-2,-1.105260849E-2
3.317814378E2,2.454185486E-2,9.598112106E-2,-2.715981007E-2
3.322814378E2,1.331901550E-2,4.948902130E-2,1.691201329E-1
3.327814378E2,-3.831386566E-3,3.919887543E-2,5.886256695E-2
3.332814378E2,-1.602072716E-1,-8.221721649E-2,3.430825472E-2
3.337814378E2,-1.716399193E-1,2.566351891E-1,-1.516536474E-1
3.342814378E2,-6.637763977E-2,-8.101463318E-3,-1.280895472E-1
3.347814378E2,1.923990250E-2,-1.379137039E-1,-5.610585213E-3
3.352814378E2,-5.470609665E-2,3.039932251E-2,-2.269697189E-2
3.357814378E2,-1.055264473E-1,1.002178192E-1,-3.191888332E-2
3.362814378E2,-4.064559937E-3,-1.143579483E-1,4.144763947E-2
3.367814378E2,9.375000000E-2,-1.447753906E-1,9.844219685E-2
3.372814378E2,-5.954647064E-2,8.526039124E-2,5.677592754E-2
3.377814378E2,-7.289123535E-2,-7.117271423E-3,-4.699981213E-2
3.382814378E2,-2.118206024E-2,2.104678154E-1,-4.913318157E-2
3.387814378E2,1.429100037E-1,-2.505970001E-1,-1.628553867E-2
3.392814378E2,5.021572113E-3,-1.018772125E-1,1.492941380E-2
3.397814378E2,-3.286838531E-3,9.507083893E-2,3.849661350E-2
3.402814378E2,-3.736019135E-3,-1.775264740E-2,-4.079544544E-2
3.407814378E2,-8.767795563E-2,3.171920776E-2,-8.739447594E-2
3.412814378E2,-8.235120773E-2,1.025724411E-1,2.412045002E-2
3.417814378E2,8.975505829E-3,3.871631622E-2,3.934621811E-3
3.422814378E2,3.030920029E-2,-5.434513092E-2,-2.570462227E-2
3.427814378E2,-8.507728577E-2,1.035661697E-1,2.292621136E-2
3.432814378E2,3.210306168E-2,-3.522157669E-1,9.722292423E-2
3.437814378E2,-6.702928543E-1,3.767514229E-1,-5.735316277E-1
3.442814378E2,-1.442756653E-1,2.248811722E-2,-3.255321383E-1
3.447814378E2,2.392196655E-1,5.846886635E-1,2.732703686E-1
3.452814378E2,-1.378245354E-1,3.992800713E-1,-3.432989120E-3
3.457814378E2,-3.025484085E-2,2.693281174E-1,2.954304218E-2
3.462814378E2,5.243349075E-2,-5.167722702E-2,-1.961612701E-2
3.467814378E2,1.273407936E-1,-1.608777046E-1,-1.003836393E-1
3.472814378E2,6.607007980E-2,-2.643308640E-1,-9.245634079E-2
3.477814378E2,-1.126723289E-1,1.240339279E-1,1.322031021E-3
3.482814378E2,-6.218671799E-2,1.836490631E-2,7.122015953E-2
3.487814378E2,6.767416000E-2,-1.465301514E-1,6.242692471E-2
3.492814378E2,-3.403234482E-2,3.130960464E-2,3.152906895E-2
3.497814378E2,-1.315236092E-1,2.466773987E-2,2.714526653E-2
3.502814378E2,5.104494095E-2,-5.202627182E-2,-1.773583889E-2
3.507814378E2,1.178317070E-1,-1.780319214E-2,-1.139522791E-1
3.512814378E2,-9.825801849E-2,3.591585159E-2,1.479479074E-1
3.517814378E2,4.193115234E-2,-1.281647682E-1,7.101881504E-2
3.522814378E2,-4.891347885E-2,-1.679754257E-2,-8.803260326E-2
3.527814378E2,-3.665971756E-2,2.917051315E-2,-3.027045727E-2
3.532814378E2,-7.412433624E-3,9.168195724E-2,-2.543175220E-2
3.537814378E2,6.268453598E-2,-1.431627274E-1,-1.347281933E-1
3.542814378E2,1.615667343E-2,3.464794159E-2,6.900703907E-2
3.547814378E2,7.697486877E-2,-7.329702377E-2,4.906904697E-2
3.552814378E2,-1.094341278E-3,6.216812134E-2,2.605199814E-3
3.557814378E2,3.217267990E-2,2.151346207E-2,4.917359352E-2
3.562814378E2,7.306861877E-2,-2.059984207E-2,8.292591572E-2
3.567814378E2,-4.437208176E-2,3.535032272E-2,-1.903402805E-2
3.572814378E2,2.441596985E-2,-9.475040436E-2,-6.933474541E-2
3.577814378E2,-2.994203568E-2,9.658098221E-2,4.521715641E-2
3.582814378E2,4.122400284E-2,-3.264713287E-2,2.652812004E-2
3.587814378E2,-2.038288116E-2,6.680774689E-2,5.017042160E-3
3.592814378E2,2.260684967E-2,-1.277132034E-1,-1.281726360E-2
3.597814378E2,-3.422594070E-2,-7.312107086E-2,8.113026619E-3
3.602814378E2,4.298639297E-2,-4.248142242E-2,5.252957344E-3
3.607814378E2,-5.515432358E-2,8.625984192E-3,1.049327850E-2
3.612814378E2,4.446172714E-2,3.297805786E-3,3.303420544E-2
3.617814378E2,2.482223511E-2,2.450275421E-2,-7.169902325E-2
3.622814378E2,-1.112093925E-1,-2.673339844E-2,-2.459490299E-2
3.627814378E2,-6.659555435E-2,-1.365156174E-1,-8.157026768E-2
3.632814378E2,-8.152818680E-2,4.723072052E-2,2.607107162E-4
3.637814378E2,4.937982559E-2,-6.528282166E-2,6.041753292E-2
3.642814378E2,-2.197647095E-2,1.557826996E-2,3.010129929E-2
3.647814378E2,4.923820496E-3,-1.580810547E-2,3.624320030E-3
3.652814378E2,3.445482254E-2,-2.881050110E-3,3.512406349E-2
3.657814378E2,1.750278473E-2,-1.101169586E-1,3.811311722E-2
3.662814378E2,-1.459507942E-1,-1.724529266E-2,5.360591412E-2
3.667814378E2,1.423263550E-2,-7.010459900E-3,2.892720699E-2
3.672814378E2,-7.081270218E-2,-3.636074066E-2,-8.516776562E-2
3.677814378E2,-1.931667328E-3,1.579284668E-2,2.257704735E-2
3.682814378E2,-3.754234314E-2,3.766155243E-2,-5.939233303E-2
3.687814378E2,5.899000168E-2,-1.047163010E-1,7.545828819E-3
3.692814378E2,-1.859188080E-2,1.810865402E-1,1.607334614E-2
3.697814378E2,-1.280784607E-3,-9.270763397E-2,-1.346266270E-2
3.702814378E2,-1.370620728E-2,3.937530518E-2,-1.953518391E-2
3.707814378E2,-5.293321609E-2,6.108474731E-2,1.225912571E-2
3.712814378E2,3.901958466E-3,6.125736237E-2,-1.007914543E-3
3.717814378E2,-6.642675400E-2,1.616868973E-1,6.708288193E-2
3.722814378E2,7.250642776E-2,-2.765178680E-2,1.062401533E-1
3.727814378E2,-1.424741745E-2,1.032190323E-1,1.296831369E-1
3.732814378E2,1.567621231E-1,2.582645416E-2,8.516967297E-2
3.737814378E2,5.957746506E-2,8.715248108E-2,7.560384274E-2
3.742814378E2,5.063867569E-2,7.390022278E-3,-1.065088511E-1
3.747814378E2,-1.064729691E-2,2.850627899E-2,-3.165620565E-1
3.752814378E2,6.941270828E-2,-1.348590851E-1,-2.698770761E-1
3.757814378E2,-1.571176052E-1,1.696634293E-1,-1.754248142E-1
3.762814378E2,-4.461421967E-1,-2.668752670E-1,-1.346569061E-1
3.767814378E2,9.563922882E-2,-5.279254913E-2,-4.497026205E-1
3.772814378E2,-1.909205914E-1,1.885652542E-1,1.874289513E-1
3.777814378E2,-1.756048203E-1,-4.866209030E-1,6.401661634E-1
3.782814378E2,5.263676643E-1,-2.099504471E-1,-2.285640240E-1
3.787814378E2,5.461263657E-1,-6.218624115E-2,-3.094170094E-1
3.792814378E2,-3.491702080E-1,-1.478004456E-1,-6.961372495E-1
3.797814378E2,-8.935751915E-1,-8.354620934E-1,-4.219827056E-1
3.802814378E2,1.332225800E-1,7.580018044E-1,-4.966342449E-2
3.807814378E2,8.553237915E-1,4.236478806E-1,8.272122145E-1
3.812814378E2,2.683653831E-1,-9.018850327E-2,5.283036232E-1
3.817814378E2,5.730199814E-1,-1.634202003E-1,8.925888538E-1
3.822814378E2,1.174319267E0,1.950144768E-1,5.939960480E-1
3.827814378E2,4.710559845E-1,5.625200272E-1,8.409500122E-2
3.832814378E2,1.536397934E-1,1.296868324E-1,7.072949409E-2
3.837814378E2,2.444391251E-1,2.836942673E-2,6.349170208E-1
3.842814378E2,1.769361496E-1,-2.610378265E-1,6.377134323E-1
3.847814378E2,-5.030775070E-1,-1.863517761E-1,-2.347292900E-1
3.852814378E2,-2.537269592E-1,-4.198212624E-1,-5.311250687E-1
3.857814378E2,-2.459859848E-2,-6.097745895E-2,-2.540779114E-2
3.862814378E2,-5.590596199E-1,-4.013667107E-1,-4.336495399E-1
3.867814378E2,-5.420222282E-1,-3.782882690E-1,-5.427145958E-1
3.872814378E2,4.511837959E-1,1.179766178E0,-1.196462870E0
3.877814378E2,1.923489571E-1,-6.044578552E-2,8.913809061E-2
3.882814378E2,1.235241890E-1,1.197099686E-2,-1.194549203E-1
3.887814378E2,7.380628586E-2,-1.488704681E-1,6.944663525E-1
3.892814378E2,-9.517240524E-2,-8.812522888E-2,5.393458009E-1
3.897814378E2,-2.893509865E-1,-1.842594147E-1,-2.236464024E-1
3.902814378E2,-1.694397926E-1,-2.460002899E-2,-2.595849037E-1
3.907814378E2,-7.203102112E-2,-2.078819275E-2,-7.183647156E-2
3.912814378E2,-5.722093582E-2,-1.502161026E-1,-1.045060158E-2
3.917814378E2,-9.598255157E-2,-1.192264557E-1,-4.219746590E-2
3.922814378E2,-7.878065109E-2,8.732795715E-3,-2.326157093E-1
3.927814378E2,-1.991224289E-2,2.167224884E-2,-1.069760323E-2
3.932814378E2,1.998996735E-2,1.010065079E-1,1.236174107E-1
3.937814378E2,-3.494882584E-2,1.660060883E-2,-5.758094788E-2
3.942814378E2,-3.116557598E-1,2.587232590E-1,-8.275523186E-1
3.947814378E2,8.889055252E-2,-2.970790863E-2,-1.026053429E-1
3.952814378E2,2.587461472E-2,1.058311462E-1,-1.294252872E-1
3.957814378E2,2.528333664E-2,-6.578636169E-2,-5.754494667E-2
3.962814378E2,-6.104707718E-2,-4.082679749E-3,-4.577231407E-2
3.967814378E2,1.302146912E-2,-9.760665894E-2,-4.251766205E-2
3.972814378E2,-2.324771881E-2,1.138105392E-1,6.478595734E-2
3.977814378E2,-6.996464729E-2,1.106357574E-1,1.166222095E-1
3.982814378E2,-9.451746941E-2,2.222471237E-1,7.416200638E-2
3.987814378E2,-1.987934113E-2,-2.413034439E-1,-2.520895004E-2
3.992814378E2,-8.371329308E-2,1.619625092E-2,9.213280678E-2
3.997814378E2,8.216714859E-2,1.596069336E-2,2.733910084E-1
4.002814378E2,4.600906372E-2,6.515216827E-2,8.619046211E-2
4.007814378E2,6.481218338E-2,3.232765198E-2,2.579140663E-2
4.012814378E2,-1.312508583E-1,-3.736209869E-2,-5.219888687E-2
4.017814378E2,1.043491364E-1,-5.874347687E-2,4.177355766E-2
4.022814378E2,4.899501801E-2,-1.517400742E-1,7.448029518E-2
4.027814378E2,-5.284309387E-2,-1.742839813E-2,1.353394985E-1
4.032814378E2,2.244329453E-2,-9.780883789E-3,6.557750702E-2
4.037814378E2,5.573749542E-2,-1.354007721E-1,2.442693710E-2
4.042814378E2,3.784132004E-2,4.903125763E-2,-7.631778717E-3
4.047814378E2,9.301662445E-3,3.926849365E-2,-4.433202744E-2
4.052814378E2,-4.763746262E-2,-6.208133698E-2,-2.086377144E-2
4.057814378E2,-1.754045486E-2,-2.250671387E-4,-8.195400238E-3
4.062814378E2,6.439781189E-2,-2.178831100E-1,-2.657461166E-2
4.067814378E2,-1.692533493E-2,-7.572841644E-2,6.011962891E-2
4.072814378E2,1.208195686E-1,5.970954895E-3,6.676650047E-2
4.077814378E2,2.434015274E-2,-5.917549133E-3,-1.023712158E-1
4.082814378E2,-5.822801590E-2,-1.820468903E-2,-7.534265518E-3
4.087814378E2,-5.389451981E-2,1.081352234E-1,-8.024668694E-2
4.092814378E2,-1.792521477E-1,4.895348549E-1,2.322769165E-2
4.097814378E2,5.038309097E-2,7.913589478E-2,8.487868309E-2
4.102814378E2,2.748727798E-2,1.895618439E-1,-2.361512184E-2
4.107814378E2,1.583652496E-1,-5.600166321E-2,1.943969727E-2
4.112814378E2,1.075887680E-2,-9.869194031E-2,-2.971982956E-2
4.117814378E2,7.085323334E-2,-2.247753143E-1,-2.362680435E-2
4.122814378E2,7.609891891E-2,-2.914247513E-1,6.588387489E-2
4.127814378E2,-1.092095375E-1,1.145429611E-1,1.254456043E-1
4.132814378E2,-1.878323555E-1,2.499675751E-1,-9.968042374E-3
4.137814378E2,1.020112038E-1,-2.401132584E-1,-2.135682106E-2
4.142814378E2,1.801443100E-2,-7.942485809E-2,-6.570696831E-2
4.147814378E2,5.149936676E-2,-4.613494873E-2,1.451444626E-2
4.152814378E2,-2.911806107E-2,4.224872589E-2,-3.368616104E-3
4.157814378E2,-8.235120773E-2,-9.683513641E-2,-1.177716255E-2
4.162814378E2,1.586437225E-3,-3.243350983E-2,5.780863762E-2
4.167814378E2,-1.205625534E-1,1.201210022E-1,2.845525742E-3
4.172814378E2,6.926536560E-3,-1.346902847E-1,-1.686756611E-1
4.177814378E2,1.870870590E-2,5.872821808E-2,9.120702744E-2
4.182814378E2,-6.732463837E-3,-3.036117554E-2,1.384854317E-2
4.187814378E2,2.425432205E-2,6.636714935E-2,2.794265747E-2
4.192814378E2,2.626228333E-2,7.044506073E-2,7.430434227E-2
4.197814378E2,3.101778030E-2,-1.304407120E-1,-5.745482445E-2
4.202814378E2,-1.038298607E-1,-8.732795715E-3,-1.523947716E-1
4.207814378E2,3.560543060E-3,3.376007080E-4,5.443525314E-2
4.212814378E2,-2.940464020E-2,1.541481018E-1,-7.488441467E-2
4.217814378E2,1.693930626E-1,-6.590843201E-3,1.080584526E-1
4.222814378E2,1.015224457E-1,2.278614044E-2,4.122853279E-2
4.227814378E2,-3.745508194E-2,1.236457825E-1,7.897639275E-2
4.232814378E2,5.703973770E-2,-1.425647736E-2,6.536173820E-2
4.237814378E2,1.779031754E-2,8.910894394E-2,8.872437477E-2
4.242814378E2,1.381936073E-1,-1.174840927E-1,1.972575188E-1
4.247814378E2,-4.068851471E-3,1.211748123E-1,7.672178745E-2
4.252814378E2,4.843664169E-2,-2.190303802E-1,1.179900169E-1
4.257814378E2,-3.646135330E-2,-2.140903473E-2,2.123754025E-1
4.262814378E2,-4.500865936E-2,-1.210908890E-1,2.900719643E-3
4.267814378E2,-3.069448471E-2,-1.285247803E-1,5.299651623E-2
4.272814378E2,-3.584527969E-2,1.952171326E-2,3.165304661E-2
4.277814378E2,-4.948616028E-2,5.854511261E-2,2.487647533E-2
4.282814378E2,-2.339839935E-3,-2.535724640E-2,4.780554771E-2
4.287814378E2,-3.847455978E-2,7.055759430E-2,-4.667353630E-2
4.292814378E2,9.824180603E-2,-9.367942810E-2,-4.238545895E-2
4.297814378E2,-4.998540878E-2,5.428314209E-2,-5.929076672E-2
4.302814378E2,1.820993423E-2,-6.600093842E-2,9.107226133E-2
4.307814378E2,-3.145837784E-2,-3.808689117E-2,1.137211323E-1
4.312814378E2,-9.609270096E-2,-4.647159576E-2,-1.748729944E-1
4.317814378E2,-7.156467438E-2,7.494926453E-3,-3.645995855E-1
4.322814378E2,-3.790125847E-1,3.178219795E-1,-9.929697514E-1
4.327814378E2,-3.264956474E-1,2.863473892E-1,-1.176362991E0
4.332814378E2,-8.918333054E-2,-6.752300262E-2,-2.884979248E-1
4.337814378E2,-1.017632484E-1,3.337378502E-1,1.063966751E-2
4.342814378E2,4.730558395E-2,-2.294301987E-2,-1.041946411E-1
4.347814378E2,-1.199798584E-1,-1.074972153E-1,-3.623917103E-1
4.352814378E2,-1.259965897E-1,1.927146912E-1,2.946424484E-2
4.357814378E2,6.657028198E-2,-1.925907135E-1,8.795475960E-2
4.362814378E2,-7.220602036E-2,3.849411011E-2,2.438068390E-3
4.367814378E2,5.107307434E-2,-3.984165192E-2,6.792974472E-2
4.372814378E2,-7.099246979E-2,1.200199127E-1,6.496524811E-2
4.377814378E2,2.301740646E-2,4.035186768E-2,8.741712570E-2
4.382814378E2,1.077904701E-1,-3.671264648E-2,1.056737900E-1
4.387814378E2,-4.593420029E-2,-2.862644196E-2,1.007714272E-1
4.392814378E2,-7.315683365E-2,6.903123856E-2,7.215619087E-2
4.397814378E2,-9.674072266E-3,1.274271011E-1,-4.977178574E-2
4.402814378E2,6.984949112E-2,-3.288307190E-1,-1.816036701E-1
4.407814378E2,-1.719241142E-1,3.531126976E-1,-2.507209778E-2
4.412814378E2,9.812402725E-2,-3.370504379E-1,-1.153588295E-2
4.417814378E2,-4.305219650E-2,4.953384399E-2,5.030512810E-2
4.422814378E2,2.444744110E-2,-6.622600555E-2,5.238819122E-2
4.427814378E2,-8.204221725E-2,-2.894115448E-2,-9.356975555E-3
4.432814378E2,-1.746163368E-1,5.943584442E-2,7.469654083E-2
4.437814378E2,1.220846176E-2,-9.869861603E-2,5.492734909E-2
4.442814378E2,-4.090976715E-2,2.391338348E-2,4.510760307E-2
4.447814378E2,-4.050540924E-2,1.716041565E-2,2.051472664E-2
4.452814378E2,-4.150676727E-2,1.532125473E-1,8.232116699E-3
4.457814378E2,4.777860641E-2,-1.596670151E-1,-8.167386055E-2
4.462814378E2,-4.604291916E-2,9.548664093E-2,-2.993416786E-2
4.467814378E2,4.638147354E-2,-2.873897552E-2,8.587002754E-2
4.472814378E2,-1.212358475E-2,-4.443645477E-2,-6.721210480E-2
4.477814378E2,-1.449823380E-2,-4.395103455E-2,-2.741837502E-2
4.482814378E2,-4.122638702E-2,8.991909027E-2,2.303147316E-2
4.487814378E2,-2.433586121E-2,2.923011780E-3,1.076245308E-2
4.492814378E2,-2.677464485E-2,-1.778602600E-3,8.469605446E-2
4.497814378E2,-7.424664497E-2,-7.231616974E-2,-6.733870506E-2
4.502814378E2,-4.721069336E-2,3.345775604E-2,-3.360397816E-1
4.507814378E2,1.399064064E-2,-5.587100983E-2,-1.022813320E-1
4.512814378E2,2.782106400E-3,8.666324615E-2,-4.845356941E-2
4.517814378E2,-8.024859428E-2,-8.755397797E-2,9.979796410E-2
4.522814378E2,6.458187103E-2,3.671646118E-4,-2.635741234E-2
4.527814378E2,-5.676596165E-1,-3.593816757E-1,-1.236803532E-1
4.532814378E2,-1.420345306E-1,-7.173156738E-2,1.378369331E-2
4.537814378E2,6.891274452E-2,1.886367798E-3,-9.759640694E-2
4.542814378E2,-1.834113598E-1,5.197906494E-2,-3.422975540E-3
4.547814378E2,3.289103508E-2,-8.423995972E-2,9.521579742E-2
4.552814378E2,-1.528122425E-1,-9.208869934E-2,1.037783623E-1
4.557814378E2,5.775315762E-1,4.692020416E-1,2.700891495E-1
4.562814378E2,8.654518127E-1,4.455275536E-1,3.507945538E-1
4.567814378E2,9.472925663E-1,2.269239426E-1,3.890199661E-1
4.572814378E2,4.452795982E-1,2.165746689E-1,3.495225906E-1
4.577814378E2,1.760315895E-1,1.612277031E-1,5.163675547E-1
4.582814378E2,-5.018186569E-2,-2.643032074E-1,4.313564301E-2
4.587814378E2,6.133222580E-2,-1.068468094E-1,1.699280739E-2
4.592814378E2,1.473193169E-1,-5.770778656E-2,5.735015869E-2
4.597814378E2,-1.419115067E-2,5.153555870E-1,1.527647972E-1
4.602814378E2,1.316924095E-1,1.253509521E-1,-3.778338432E-2
4.607814378E2,-5.887269974E-2,2.838311195E-1,2.084872723E-1
4.612814378E2,1.169238091E-1,-3.312091827E-1,4.550719261E-2
4.617814378E2,1.082072258E-1,-4.390659332E-1,-7.122800350E-1
4.622814378E2,-6.016891003E-1,9.277229309E-1,-1.024173737E0
4.627814378E2,-1.209748983E0,-6.200656891E-1,-9.925005436E-1
4.632814378E2,-1.252966166E0,-6.832151413E-1,-9.498786926E-1
4.637814378E2,-3.509030342E-1,6.804156303E-1,-1.522755623E-2
4.642814378E2,2.081437111E-1,-3.672714233E-1,5.373083353E-1
4.647814378E2,1.121802330E-1,-1.506519318E-1,1.714420319E-1
4.652814378E2,-1.310830116E-1,8.934307098E-2,-1.485657692E-2
4.657814378E2,1.050901413E-1,-6.056632996E-1,-7.189562321E-1
4.662814378E2,-3.739304543E-1,3.224802017E-1,-7.220401764E-1
4.667814378E2,-7.008016109E-1,-4.626522064E-1,-1.081637859E0
4.672814378E2,-4.015018940E-1,7.270131111E-1,-9.467005730E-1
4.677814378E2,-2.263379097E-1,7.749152184E-1,-4.912235737E-1
4.682814378E2,-2.049050331E-1,2.991366386E-1,-2.344787121E-1
4.687814378E2,-4.259591103E-1,-2.935819626E-1,-2.843689919E-2
4.692814378E2,-2.245907784E-1,-4.088993073E-1,3.903841972E-2
4.697814378E2,-7.794327736E-1,-3.887023926E-1,4.430270195E-1
4.702814378E2,-5.815653801E-1,-2.956895828E-1,3.250429630E-1
4.707814378E2,-1.690125465E-2,-1.806802750E-1,1.176493168E-1
4.712814378E2,-1.460182667E-1,1.963710785E-2,1.510317326E-1
4.717814378E2,-2.664914131E-1,8.285045624E-2,5.259299278E-2
4.722814378E2,7.160758972E-2,-1.821470261E-1,-7.430601120E-2
4.727814378E2,6.435823441E-2,8.515834808E-2,2.015113831E-3
4.732814378E2,5.298852921E-2,1.278181076E-1,9.066653252E-2
4.737814378E2,1.717543602E-2,2.262592316E-2,5.249238014E-2
4.742814378E2,-8.658647537E-3,-3.562831879E-2,-3.539204597E-2
4.747814378E2,-2.054786682E-2,-6.245899200E-2,1.369392872E-1
4.752814378E2,4.177665710E-2,5.720138550E-3,-4.470634460E-2
4.757814378E2,9.182636738E-1,1.431173801E0,-1.201040745E0
4.762814378E2,1.819037557E0,4.912128448E-1,-9.837567806E-2
4.767814378E2,1.177052259E-1,6.164932251E-1,-1.195760369E0
4.772814378E2,7.160789967E-1,3.488779068E-1,-7.544795275E-1
4.777814378E2,9.352553487E-1,2.909975052E-1,-1.216279507E0
4.782814378E2,4.287124574E-1,1.155605316E-1,-6.964006424E-1
4.787814378E2,1.727001965E-1,1.321287155E-1,-6.817760468E-1
4.792814378E2,-9.894328564E-2,-7.984828949E-2,-1.263399124E-1
4.797814378E2,2.066339850E-1,3.468513489E-3,-3.585345149E-1
4.802814378E2,4.126181901E-1,5.728092194E-1,1.107896209E0
4.807814378E2,1.862396449E-1,1.132030487E-1,9.349367023E-2
4.812814378E2,3.331138492E-1,-7.905197144E-1,1.367951035E-1
4.817814378E2,5.398547649E-1,-6.739377975E-1,5.304576159E-1
4.822814378E2,-2.939037681E-1,3.487377167E-1,2.022408247E-1
4.827814378E2,-6.673026085E-1,4.581699371E-1,1.595803142E0
4.832814378E2,2.544044256E-1,1.121196747E-1,3.278577626E-1
4.837814378E2,-1.015778542E0,-4.938983917E-2,5.046607852E-1
4.842814378E2,-4.552454948E-1,-3.055667877E-2,-1.504409909E-1
4.847814378E2,2.883014679E-1,1.908330917E-1,-1.919692755E-2
4.852814378E2,-4.119445384E-1,-1.758003235E-1,1.332058787E0
4.857814378E2,8.581380844E-1,1.359968185E-1,-1.357083797E0
4.862814378E2,-1.072056219E-1,-1.890058517E-1,1.573546529E0
4.867814378E2,8.789110780E-1,-3.985490799E-1,1.113440394E-1
4.872814378E2,6.146246195E-1,5.412673950E-2,2.899520874E0
4.877814378E2,-1.502968550E0,-6.271257401E-1,6.320356727E-1
4.882814378E2,-7.666652203E-1,-1.102442741E0,-1.942430854E0
4.887814378E2,-2.362143993E0,-1.151843548E0,7.968418598E-1
4.892814378E2,1.975803375E0,1.941694140E0,-1.054612875E0
4.897814378E2,-4.211611748E-1,5.323664665E0,1.083772898E0
4.902814378E2,3.074700356E0,-2.318698883E0,3.697891831E-1
4.907814378E2,7.983727455E-1,-8.491048813E-1,-2.118464112E-1
4.912814378E2,-2.035775185E-1,-1.136327744E0,2.663308978E-1
4.917814378E2,1.386982441E0,1.649144650E0,1.272552729E0
4.922814378E2,6.232156754E-1,-4.346847534E-2,-2.982083559E-1
4.927814378E2,7.627358437E-1,-2.224839687E0,-1.955754995E0
4.932814378E2,-1.884767056E0,-1.351007938E0,1.192865610E0
4.937814378E2,1.341938972E0,7.514753342E-1,2.069817543E0
4.942814378E2,6.576499939E-1,6.777877808E-1,1.305931360E-1
4.947814378E2,-3.042063713E-1,2.227907181E-1,-1.864066601E0
4.952814378E2,-4.064931870E-1,-1.691532135E-1,2.939187527E0
4.957814378E2,2.414703369E-1,-1.949970245E0,-5.123003125E-1
4.962814378E2,7.932214737E-1,-7.979125977E-1,-3.350601196E-1
4.967814378E2,-5.059242249E-2,-1.452496052E-1,-2.193113863E-1
4.972814378E2,9.866333008E-1,-7.937438488E-1,4.192405939E-1
4.977814378E2,-8.328247070E-2,-3.135154545E-1,-7.377344370E-2
4.982814378E2,5.584793091E-1,1.605625868E0,-3.490701318E-2
4.987814378E2,-9.856891632E-2,1.659028888E0,4.635822773E-2
4.992814378E2,-2.184505463E-1,5.967723131E-1,-2.059108019E-2
4.997814378E2,-1.216951370E0,1.404300928E0,-1.441506147E-1
5.002814378E2,1.753059387E0,1.780635715E0,5.377770066E-1
5.007814378E2,6.180458069E-1,8.158757687E-1,-3.581447601E-1
5.012814378E2,1.486825943E-1,1.051540017E0,-5.611795783E-1
5.017814378E2,3.365640640E-1,3.671169281E-3,-5.973935127E-2
5.022814378E2,9.006671906E-1,1.619920492E0,1.586761475E-1
5.027814378E2,-6.305551529E-1,-1.909055710E0,-4.495229721E-1
5.032814378E2,7.622337341E-2,-7.647298574E-1,-2.925117016E-1
5.037814378E2,-7.224941254E-2,-3.595414162E-1,-1.813333988E0
5.042814378E2,1.743431091E-1,-1.202028394E-1,2.776013911E-1
5.047814378E2,2.606620789E-1,3.565943241E-2,4.068095684E-1
5.052814378E2,-1.297216415E-1,-2.864420414E-2,8.192713559E-2
5.057814378E2,1.085405350E-1,-3.813558817E-2,6.052518636E-2
5.062814378E2,-5.858421326E-3,-1.620355844E-1,-3.581786156E-2
5.067814378E2,1.585054398E-1,3.597811460E-1,2.181702107E-1
5.072814378E2,-2.418079376E-1,-3.203682303E-1,-3.069598079E-1
5.077814378E2,1.238698959E-1,-1.799214482E-1,-2.617652416E-1
5.082814378E2,-1.650285721E-1,-1.597332358E-1,-2.993091941E-1
5.087814378E2,-2.286720276E-2,3.252470493E-2,-8.773630857E-2
5.092814378E2,-1.376562119E-1,-6.342953444E-2,5.182623863E-3
5.097814378E2,-4.760837555E-2,3.038400412E-2,1.043707132E-2
5.102814378E2,4.353523254E-3,-3.416258097E-2,-9.076035023E-2
5.107814378E2,1.759529114E-1,7.198035717E-3,-2.475601435E-2
5.112814378E2,-7.713794708E-2,-2.579265833E-2,8.998826146E-2
5.117814378E2,2.225675583E-1,2.490780801E-1,-2.504053712E-1
5.122814378E2,-1.737775803E-1,1.161663651E0,-1.296221018E0
5.127814378E2,-2.080154419E-1,-2.071696222E-1,-2.071724236E-1
5.132814378E2,3.918027878E-1,9.901341796E-2,-4.096040130E-2
5.137814378E2,1.269617081E-1,8.486239910E-1,5.881606340E-1
5.142814378E2,-5.759620667E-2,-1.396828175E0,-6.413863897E-1
5.147814378E2,1.875753403E-1,-3.146001697E-1,-2.337118685E-1
5.152814378E2,-4.771137238E-2,-1.640215516E-1,-1.904050708E-1
5.157814378E2,-9.950542450E-2,-9.088289738E-2,1.829594374E-2
5.162814378E2,3.948116302E-2,9.460508823E-3,-2.201846838E-1
5.167814378E2,-1.161575317E-2,-4.305416346E-2,1.717956662E-1
5.172814378E2,1.334896088E-1,3.444868326E-2,5.022823811E-3
5.177814378E2,-5.627632141E-3,-3.068199754E-2,3.051757812E-4
5.182814378E2,-3.552436829E-3,4.237559438E-2,6.383442879E-2
5.187814378E2,1.650857925E-1,2.899119258E-2,-3.863531351E-2
5.192814378E2,-7.360267639E-2,-7.134109735E-2,2.765904367E-1
5.197814378E2,-9.212779999E-2,-2.171111107E-2,-6.959068775E-2
5.202814378E2,1.211738586E-2,-4.061967134E-2,6.080967188E-2
5.207814378E2,1.145353317E-1,4.109489918E-2,9.716722369E-2
5.212814378E2,-1.072597504E-2,8.530318737E-3,-1.576896906E-1
5.217814378E2,-2.675628662E-2,-1.962780952E-2,6.733375788E-2
5.222814378E2,9.201717377E-2,1.916623116E-2,-2.364006042E-1
5.227814378E2,-8.488941193E-2,-5.797535181E-2,-3.963461518E-2
5.232814378E2,3.439903259E-2,-1.157212257E-2,3.313678503E-2
5.237814378E2,-1.513433456E-1,-2.423226833E-3,-2.209792733E-1
5.242814378E2,8.724498749E-2,8.599773049E-2,3.149098754E-1
5.247814378E2,-5.388069153E-2,1.033374369E-1,-4.484331310E-1
5.252814378E2,9.101486206E-2,-2.735078335E-3,3.344121203E-2
5.257814378E2,2.429580688E-2,1.400133967E-2,1.374808550E-1
5.262814378E2,-8.103847504E-2,7.247021794E-2,1.630933583E-2
5.267814378E2,-3.741168976E-2,-3.086066246E-2,-7.739396393E-2
5.272814378E2,5.047607422E-2,1.722544432E-2,1.809208095E-2
5.277814378E2,3.753185272E-2,-3.193190694E-2,-2.349369228E-2
5.282814378E2,-7.276248932E-2,-5.666863918E-2,1.799357682E-1
5.287814378E2,6.044673920E-2,4.955661297E-2,-2.343989015E-1
5.292814378E2,2.080240250E-1,-2.721884847E-1,6.073492765E-2
5.297814378E2,5.911350250E-2,-3.097558022E-2,-6.942478418E-1
5.302814378E2,-5.831069946E-1,8.409297466E-2,-1.307754278E0
5.307814378E2,1.964359283E-1,2.136430144E-1,-3.764137626E-1
5.312814378E2,-1.759786606E-1,2.153438330E-1,-9.457949400E-1
5.317814378E2,-1.109132767E-1,1.604284048E-1,-1.813358068E-1
5.322814378E2,-1.011634827E0,7.576793432E-2,2.156419754E-1
5.327814378E2,-5.277242661E-1,-1.773893833E-3,-8.576374650E-1
5.332814378E2,4.264020920E-1,-5.877745152E-2,7.970452905E-1
5.337814378E2,-4.741764069E-1,-2.110868692E-2,-1.875449121E-1
5.342814378E2,2.306060791E-1,-3.215211630E-2,8.780841231E-1
5.347814378E2,-8.745384216E-2,8.381861448E-2,3.435830176E-1
5.352814378E2,1.382255554E-2,-5.334228277E-2,-1.189561784E-1
5.357814378E2,-2.165317535E-2,-1.754498482E-2,5.745839477E-1
5.362814378E2,4.250526428E-3,2.191305161E-2,1.460926831E-1
5.367814378E2,-7.333660126E-2,-1.161330938E-2,-7.220330834E-2
5.372814378E2,2.264146805E-1,-6.990164518E-2,1.396959126E-1
5.377814378E2,-2.696294785E-1,2.389788628E-2,1.149868146E-1
5.382814378E2,-2.728385925E-1,5.356532335E-2,-4.109916091E-1
5.387814378E2,1.002225876E-1,2.620518208E-3,4.830537736E-2
5.392814378E2,-1.116466522E-2,1.929050684E-2,5.480912328E-2
5.397814378E2,-2.592468262E-2,-3.526633978E-2,-1.309567690E-1
5.402814378E2,4.723834991E-2,-3.478366137E-2,2.294573188E-1
5.407814378E2,-1.408948898E-1,-1.831793785E-2,-8.437786996E-2
5.412814378E2,3.927326202E-2,-5.424201488E-2,4.302691668E-2
5.417814378E2,1.151227951E-1,-2.092796564E-2,-3.112232685E-2
5.422814378E2,-1.584568024E-1,1.778429747E-2,1.159343123E-2
5.427814378E2,2.332468033E-1,-3.820747137E-2,-2.129859924E-1
5.432814378E2,-1.990146637E-1,-2.954411507E-2,-4.837065935E-3
5.437814378E2,-2.723026276E-2,-9.422302246E-3,2.368582785E-2
5.442814378E2,1.562271118E-1,3.504216671E-2,5.916365981E-2
5.447814378E2,-2.017002106E-1,-3.901839256E-3,-1.507784128E-1
5.452814378E2,6.135272980E-2,2.584898472E-2,-1.043589711E-1
5.457814378E2,-7.411479950E-2,8.889496326E-3,1.049676538E-2
5.462814378E2,2.563066483E-1,1.217492223E-1,7.698994279E-1
5.467814378E2,-5.027856827E-1,1.407206059E-3,-1.293426901E-1
5.472814378E2,1.316862106E-1,4.753053188E-3,-2.481517196E-1
5.477814378E2,-1.600770950E-1,-4.622757435E-3,7.055649161E-2
5.482814378E2,1.749525070E-1,1.013030410E-1,6.137353182E-2
5.487814378E2,3.764247894E-2,7.700383663E-3,-1.351310015E-1
5.492814378E2,-5.154323578E-2,7.298469543E-3,2.836851478E-1
5.497814378E2,2.143421173E-1,1.180630922E-2,1.871876419E-2
5.502814378E2,-3.337860107E-3,-7.973915339E-2,-7.684606314E-2
5.507814378E2,-1.180353165E-1,5.613744259E-2,-3.035059571E-2
5.512814378E2,-2.239322662E-2,-1.182436943E-2,7.443997264E-2
5.517814378E2,1.811056137E-1,5.040884018E-3,6.239980459E-3
5.522814378E2,-1.145515442E-1,-9.018635750E-2,2.501738071E-2
5.527814378E2,1.971149445E-1,1.482754946E-1,-1.716970205E-1
5.532814378E2,2.705345154E-1,1.795029640E-2,-2.223033309E-1
5.537814378E2,-2.078046799E-1,2.445477247E-2,2.178835869E-2
5.542814378E2,8.994770050E-2,8.302909136E-2,-8.199557662E-2
5.547814378E2,-5.779170990E-2,-3.705555201E-2,7.003992796E-3
5.552814378E2,1.559190750E-1,7.578015327E-3,-8.110067248E-2
5.557814378E2,-6.572437286E-2,-2.772837877E-2,2.168960124E-1
5.562814378E2,8.097648621E-2,3.870558739E-2,-1.812484264E-1
5.567814378E2,-2.953624725E-2,-2.083623409E-2,9.253281355E-2
5.572814378E2,-3.783416748E-2,-1.696699858E-2,1.773810387E-2
5.577814378E2,-3.810596466E-2,1.607394218E-2,-1.777428985E-1
5.582814378E2,7.328128815E-2,-3.653377295E-2,3.085702658E-2
5.587814378E2,-5.904102325E-2,4.722285271E-2,-9.107792377E-2
5.592814378E2,7.865333557E-2,-5.827111006E-2,1.294264197E-1
5.597814378E2,-5.488777161E-2,1.512134075E-2,-5.672731996E-2
5.602814378E2,-7.230567932E-2,4.733860493E-3,2.261049747E-1
5.607814378E2,1.007566452E-1,-1.241506934E-1,2.250158042E-1
5.612814378E2,7.716464996E-2,1.454993486E-1,-2.601890564E-1
5.617814378E2,7.370662689E-2,-7.147121429E-2,2.099284381E-1
5.622814378E2,1.557703018E-1,8.142107725E-2,5.932901800E-2
5.627814378E2,1.361198425E-1,6.172376871E-2,-8.396024257E-2
5.632814378E2,4.752159119E-3,-4.337078333E-2,2.263199091E-1
5.637814378E2,4.762554169E-2,-3.028100729E-2,-1.332780570E-1
5.642814378E2,-9.965133667E-2,5.064886808E-2,-7.034906745E-2
5.647814378E2,8.737564087E-2,6.448268890E-3,-5.385121703E-2
5.652814378E2,-4.609489441E-2,-1.216769218E-3,-4.526087642E-2
5.657814378E2,1.577281952E-2,-1.966267824E-2,3.492705822E-1
5.662814378E2,-1.341142654E-1,2.256101370E-2,4.134663939E-2
5.667814378E2,3.543949127E-2,3.631651402E-3,2.434119582E-3
5.672814378E2,-9.194469452E-2,-3.611260653E-2,1.949591935E-2
5.677814378E2,-1.164245605E-2,6.870484352E-2,-1.166845858E-1
5.682814378E2,-1.705541611E-1,-3.383022547E-2,7.884572446E-2
5.687814378E2,2.119455338E-1,-1.666965485E-1,1.884228736E-2
5.692814378E2,-1.592741013E-1,-5.562031269E-2,1.368415654E-1
5.697814378E2,1.570606232E-2,-4.913151264E-2,-1.014486998E-1
5.702814378E2,5.925464630E-2,3.134191036E-2,-6.561870873E-2
5.707814378E2,5.920505524E-2,-6.324458122E-2,3.269883990E-1
5.712814378E2,2.328109741E-2,1.836624742E-1,-4.167217016E-1
5.717814378E2,6.543540955E-2,5.738252401E-2,-2.898942530E-1
5.722814378E2,-1.843595505E-1,6.928509474E-2,9.840314090E-2
5.727814378E2,1.397771835E-1,3.097295761E-2,-1.459200680E-1
5.732814378E2,-3.731822968E-2,-4.890412092E-2,2.119220197E-1
5.737814378E2,4.214286804E-3,4.818892479E-2,-5.288764834E-2
5.742814378E2,1.056003571E-2,1.681983471E-3,-1.068232059E-1
5.747814378E2,6.022167206E-2,-5.998134613E-3,1.067025661E-1
5.752814378E2,-8.488750458E-2,5.868083239E-2,-1.393012702E-1
5.757814378E2,6.872558594E-2,-5.089944601E-2,1.200182810E-1
5.762814378E2,-4.300785065E-2,-3.013551235E-3,-2.815407515E-2
5.767814378E2,-1.590490341E-1,2.082252502E-2,1.711401194E-1
5.772814378E2,-3.878879547E-2,-1.255083084E-2,-1.971141994E-1
5.777814378E2,-4.511356354E-2,1.811385155E-3,-1.464004815E-1
5.782814378E2,-3.009510040E-2,8.182942867E-3,-2.759265900E-2
5.787814378E2,-2.712945938E-1,2.502053976E-2,-1.416373551E-1
5.792814378E2,2.322854996E-1,-2.975821495E-3,1.779882461E-1
5.797814378E2,-1.075839996E-1,5.407232046E-2,3.051006794E-2
5.802814378E2,-1.501617432E-1,-1.277170181E-1,-1.890892535E-1
5.807814378E2,6.691017151E-1,-1.041054726E-1,5.265523791E-1
5.812814378E2,2.057170868E-2,-7.850366831E-2,-6.032839417E-1
5.817814378E2,-3.489856720E-1,4.280269146E-2,-1.043094397E-1
5.822814378E2,-1.751127243E-1,-1.893390417E-1,4.765506089E-2
5.827814378E2,-1.197528839E-2,2.119228244E-1,-4.359086454E-1
5.832814378E2,2.120685577E-2,6.159478426E-2,-1.049613059E-1
5.837814378E2,-1.697444916E-2,2.117931843E-3,-7.551306486E-2
5.842814378E2,-9.105014801E-2,5.054116249E-2,-1.639849246E-1
5.847814378E2,8.030891418E-3,1.200377941E-3,1.462536156E-1
5.852814378E2,1.054840088E-1,4.726487398E-2,2.274718285E-1
5.857814378E2,-1.458654404E-1,3.923225403E-2,-9.910923243E-2
5.862814378E2,6.296539307E-2,3.685235977E-3,6.530040503E-2
5.867814378E2,2.470769882E-1,-5.146205425E-3,1.012591720E-1
5.872814378E2,-3.629589081E-2,-9.534537792E-2,7.627984881E-2
5.877814378E2,3.003263474E-1,-1.214593649E-1,3.395362496E-1
5.882814378E2,-4.342451096E-1,-9.272456169E-2,-4.502991438E-1
5.887814378E2,-1.032648087E-1,-1.037560701E-1,-2.902512252E-1
5.892814378E2,-6.923770905E-2,-1.176049709E-1,3.226732016E-1
5.897814378E2,-1.159896851E-1,1.262623072E-1,-4.754234850E-2
5.902814378E2,-3.222465515E-3,2.681469917E-2,-4.780354351E-2
5.907814378E2,-3.551769257E-2,-3.093719482E-3,2.124621160E-2
5.912814378E2,-7.177639008E-2,1.894271374E-2,7.459643483E-2
5.917814378E2,-1.508951187E-1,7.109290361E-2,-2.013456821E-2
5.922814378E2,9.017753601E-2,-1.033574343E-2,1.603122950E-1
5.927814378E2,-2.130508423E-3,2.798831463E-2,-1.820297390E-1
5.932814378E2,4.265689850E-2,1.028627157E-2,1.156873405E-1
5.937814378E2,-7.882118225E-2,-2.449536324E-2,-4.038937390E-2
5.942814378E2,-5.113601685E-2,-3.348845243E-2,5.152213573E-2
5.947814378E2,9.180545807E-2,-5.271011591E-2,2.301518917E-1
5.952814378E2,-1.290788651E-1,3.241896629E-3,-1.260682642E-1
5.957814378E2,4.817676544E-2,-2.843266726E-2,-8.152182400E-2
5.962814378E2,-1.630554199E-1,-1.530349255E-1,9.167428315E-2
5.967814378E2,-1.453304291E-2,-3.129827976E-2,5.873726681E-3
5.972814378E2,-1.580724716E-1,-7.056486607E-2,3.048136830E-3
5.977814378E2,2.002325058E-1,1.260399818E-3,7.429778576E-2
5.982814378E2,-1.992216110E-1,1.871228218E-3,-5.656138808E-2
5.987814378E2,9.296798706E-2,1.453042030E-2,-1.545938104E-1
5.992814378E2,-3.469085693E-2,-9.296298027E-3,1.190786064E-1
5.997814378E2,5.284404755E-2,4.033267498E-2,-1.336540282E-1
6.002814378E2,8.731079102E-2,-3.049516678E-2,8.183674514E-2
6.007814378E2,1.000528336E-1,3.021800518E-2,-7.695215195E-2
6.012814378E2,-6.000041962E-2,-5.980861187E-2,3.041328117E-2
6.017814378E2,1.593923569E-1,1.446127892E-2,9.795363247E-2
6.022814378E2,-4.090690613E-2,-1.135889292E-1,-7.766606659E-2
6.027814378E2,3.100395203E-2,-1.542270184E-2,8.624254167E-2
6.032814378E2,1.066083908E-1,7.344126701E-3,-8.860957623E-2
6.037814378E2,1.162872314E-1,-2.711808681E-2,2.123504877E-2
6.042814378E2,-1.109666824E-1,-4.977178574E-2,-1.380050480E-1
6.047814378E2,1.535615921E-1,3.340160847E-2,-1.285472065E-1
6.052814378E2,-1.948070526E-2,-1.235215664E-1,2.095552236E-1
6.057814378E2,-8.730888367E-3,-4.922270775E-2,-6.853751093E-2
6.062814378E2,-3.348350525E-3,-6.761336327E-2,-3.054988198E-2
6.067814378E2,-4.401206970E-3,-1.711714268E-2,-2.961893678E-1
6.072814378E2,-1.979389191E-1,-6.385195255E-2,6.797939539E-2
6.077814378E2,-1.299867630E-1,1.615118980E-2,-7.903911173E-2
6.082814378E2,8.253955841E-2,-2.363080978E-1,-2.568498254E-1
6.087814378E2,-2.886581421E-1,-3.610761166E-1,2.732183039E-1
6.092814378E2,-1.162652969E-1,-1.011631489E-1,-1.763150096E-2
6.097814378E2,-1.670999527E-1,1.564588547E-1,1.369087994E-1
6.102814378E2,9.292030334E-2,1.375524998E-1,-4.078030214E-2
6.107814378E2,1.987180710E-1,-6.756329536E-2,5.671365559E-2
6.112814378E2,-7.507610321E-2,-2.201461792E-2,1.862196624E-2
6.117814378E2,1.371765137E-1,-7.477045059E-3,2.062494867E-3
6.122814378E2,-1.828384399E-2,-2.866196632E-2,-1.306398213E-1
6.127814378E2,-4.989147186E-2,-3.939604759E-2,4.333485663E-2
6.132814378E2,3.742218018E-2,-6.797003746E-2,4.812946916E-2
6.137814378E2,-1.023101807E-2,-2.821135521E-1,8.730506897E-2
6.142814378E2,-1.185178757E-1,-3.356978893E-1,-4.568304121E-2
6.147814378E2,-2.372741699E-3,-1.185064316E-1,-1.985502243E-2
6.152814378E2,-1.305837631E-1,-1.941297054E-1,-4.336787760E-2
6.157814378E2,-5.254459381E-2,1.936817169E-2,-9.528256208E-2
6.162814378E2,1.714992523E-2,5.155777931E-2,-6.936755776E-2
6.167814378E2,1.371183395E-1,3.481338024E-1,5.062196851E-1
6.172814378E2,1.767120361E-1,9.135367870E-1,-9.489109516E-1
6.177814378E2,7.560729980E-3,3.657538891E-1,-2.453520894E-1
6.182814378E2,9.375953674E-2,3.170324564E-1,-3.650954962E-1
6.187814378E2,3.643608093E-1,1.237913132E0,5.582599640E-1
6.192814378E2,4.299259186E-2,1.104230642E0,1.349727511E-1
6.197814378E2,1.360273361E-1,5.004911423E-1,7.819890976E-2
6.202814378E2,2.268791199E-2,4.320313931E-1,7.072800398E-2
6.207814378E2,-3.158187866E-2,2.644073665E-1,1.021665335E-2
6.212814378E2,1.069831848E-2,-3.213882446E-3,2.583694458E-2
6.217814378E2,4.716396332E-2,-6.768646836E-2,1.453489065E-2
6.222814378E2,1.632499695E-2,3.993874788E-2,7.614304125E-2
6.227814378E2,-1.771335602E-1,-2.143301368E-1,-5.765919685E-1
6.232814378E2,2.643394470E-2,-2.973932624E-1,-3.901789784E-1
6.237814378E2,-7.722949982E-2,-1.467113048E-1,-2.639583349E-1
6.242814378E2,-2.501258850E-1,-5.254039913E-2,-7.226155996E-1
6.247814378E2,-4.127216339E-2,-7.169736922E-2,-4.455416203E-1
6.252814378E2,-1.938333511E-1,7.450415194E-2,-6.370260715E-1
6.257814378E2,3.576335907E-1,1.967980862E-1,-2.354046106E-1
6.262814378E2,-2.986049652E-2,8.679565787E-2,1.141040325E-1
6.267814378E2,-7.719364166E-1,-1.303462982E-1,-4.718608856E-1
6.272814378E2,4.810218811E-1,-1.580063403E-1,-2.892521620E-1
6.277814378E2,-2.468662262E-1,-2.371154726E-1,-5.460883379E-1
6.282814378E2,-1.182851791E-1,-4.625314176E-1,-3.408142328E-1
6.287814378E2,1.369028091E-1,-1.301414073E-1,-1.425477266E-1
6.292814378E2,2.714347839E-2,-2.091453820E-1,2.313846350E-2
6.297814378E2,2.108249664E-1,-1.269383729E-1,1.435631216E-1
6.302814378E2,-2.400045395E-1,2.308389544E-2,-8.768439293E-4
6.307814378E2,-7.906303406E-1,-8.140104264E-2,-9.427428246E-2
6.312814378E2,2.934865952E-1,-1.086789668E-1,7.071665525E-1
6.317814378E2,-2.428941727E-1,1.280779243E-1,1.765431404E0
6.322814378E2,2.283763885E-2,-1.813511103E-1,-2.827209830E-1
6.327814378E2,1.140460968E-1,-2.927348316E-1,-3.570099473E-1
6.332814378E2,4.973888397E-2,-4.788015485E-1,-9.718617201E-1
6.337814378E2,7.833080292E-1,-2.651141584E-1,6.893284321E-1
6.342814378E2,-6.598758698E-1,-3.940719664E-1,-2.668333054E-1
6.347814378E2,7.165517807E-1,-2.058008015E-1,3.864269257E-1
6.352814378E2,-4.584045410E-1,-2.999316454E-1,-3.252587318E-1
6.357814378E2,1.898574829E-1,-2.288240790E-1,1.837587357E-1
6.362814378E2,-2.320289612E-2,-3.495358527E-1,6.118941307E-2
6.367814378E2,7.933616638E-3,-6.179597974E-1,1.334121227E-1
6.372814378E2,-1.814613342E-1,-6.098501682E-1,3.591210842E-1
6.377814378E2,6.825160980E-2,-3.648921847E-2,3.442881107E-1
6.382814378E2,-5.364933014E-1,-6.020811200E-2,2.082479000E-1
6.387814378E2,-2.792959213E-1,2.973139286E-3,1.201467514E-1
6.392814378E2,-2.289848328E-1,-9.226968884E-2,9.270334244E-2
6.397814378E2,-1.918191910E-1,-1.124074459E-1,2.058672905E-1
6.402814378E2,-1.258296967E-1,-1.494863331E-1,1.286435127E-1
6.407814378E2,5.041885376E-2,-7.290144265E-2,1.850428581E-1
6.412814378E2,-3.110885620E-2,-1.266609877E-1,-9.721326828E-2
6.417814378E2,-9.818458557E-2,-1.036796719E-1,-1.831574440E-1
6.422814378E2,1.126470566E-1,-1.337266713E-1,1.372828484E-1
6.427814378E2,-9.705543518E-2,-4.124240577E-2,1.588821411E-3
6.432814378E2,-8.387279510E-2,-1.675614417E-1,5.521345139E-2
6.437814378E2,2.097139359E-1,-1.607000232E-1,3.628239632E-1
6.442814378E2,-2.603626251E-1,-1.726328135E-1,-5.388417244E-1
6.447814378E2,9.144687653E-2,-2.160609812E-1,-1.262774467E-1
6.452814378E2,-2.385768890E-1,-1.643798351E-1,-2.672901154E-1
6.457814378E2,3.014030457E-1,-1.427262127E-1,-2.547950745E-1
6.462814378E2,4.560184479E-2,-2.270336449E-2,-3.494937420E-1
6.467814378E2,1.170129776E-1,-5.908738077E-2,-1.948165894E-1
6.472814378E2,-1.236906052E-1,8.562266827E-3,-3.374643326E-1
6.477814378E2,4.196834564E-2,-5.089638382E-2,-6.790399551E-2
6.482814378E2,-4.853630066E-2,1.415848732E-3,-1.302664280E-1
6.487814378E2,1.612281799E-2,-8.896159381E-2,-3.309891224E-1
6.492814378E2,-1.151542664E-1,-5.600147843E-1,-1.431899071E-1
6.497814378E2,8.952617645E-2,-1.900837421E-1,-1.122102737E-1
6.502814378E2,-1.556854248E-1,-5.154019594E-2,-6.289982796E-2
6.507814378E2,-7.189083099E-2,-1.782220602E-2,-3.898382187E-2
6.512814378E2,1.701259613E-1,-1.444506645E-2,9.682583809E-2
6.517814378E2,-7.729530334E-2,7.457733154E-3,6.945133209E-3
6.522814378E2,-1.393737793E-1,3.288173676E-2,-5.656075478E-2
6.527814378E2,1.403522491E-2,3.607118130E-2,-9.922933578E-2
6.532814378E2,7.301712036E-2,-7.142976522E-1,-9.436988831E-2
6.537814378E2,-2.037820816E-1,-1.123544335E0,-1.153993607E-2
6.542814378E2,-9.060764313E-2,-7.554243803E-1,2.560782433E-2
6.547814378E2,3.967952728E-2,-4.437398911E-2,5.773520470E-2
6.552814378E2,3.191471100E-2,-2.724092007E-1,8.606672287E-3
6.557814378E2,4.461383820E-2,-3.505468369E-2,2.008676529E-3
6.562814378E2,-2.449989319E-3,1.337940693E-1,2.579593658E-2
6.567814378E2,6.482124329E-3,5.976080894E-2,-4.734277725E-2
6.572814378E2,-3.973865509E-2,2.150615454E-1,-4.519271851E-2
6.577814378E2,6.308174133E-2,-2.720177174E-1,-1.625514030E-2
6.582814378E2,-5.570888519E-2,-2.301287651E-2,-4.631948471E-2
6.587814378E2,-2.632331848E-2,9.964251518E-2,-2.654123306E-2
6.592814378E2,3.488731384E-2,-9.987354279E-3,-1.658082008E-2
6.597814378E2,-7.275581360E-3,1.534771919E-2,-1.257276535E-2
6.602814378E2,5.175685883E-2,1.342777014E-1,-9.730386734E-2
6.607814378E2,-5.461025238E-2,2.938187122E-2,4.458260536E-2
6.612814378E2,8.683204651E-3,2.088010311E-2,9.682393074E-2
6.617814378E2,-1.895332336E-2,4.092693329E-3,1.399397850E-2
6.622814378E2,9.998321533E-3,3.622281551E-2,1.377892494E-2
6.627814378E2,8.040428162E-2,7.048883438E-1,8.154177666E-2
6.632814378E2,4.582405090E-3,3.990556002E-1,-8.327960968E-3
6.637814378E2,1.127719879E-2,1.438043714E-1,1.805877686E-2
6.642814378E2,5.913734436E-3,2.071321011E-2,5.177736282E-3
6.647814378E2,8.741378784E-3,1.936709881E-2,1.735305786E-2
6.652814378E2,1.792907715E-4,9.958446026E-3,-7.090806961E-3
6.657814378E2,6.106376648E-3,7.605552673E-3,1.736164093E-3
6.662814378E2,1.185417175E-3,1.338601112E-3,-2.591609955E-3
6.667814378E2,-1.811981201E-4,-1.932978630E-4,4.808902740E-4
6.672814378E2,3.781318665E-3,-3.161609173E-3,-6.441116333E-3
6.677814378E2,4.659652710E-3,3.689587116E-3,8.058547974E-3
6.682814378E2,8.868217468E-3,1.011490822E-3,-5.342960358E-4
6.687814378E2,-2.911567688E-3,4.632413387E-3,5.677938461E-3
6.692814378E2,2.680778503E-3,2.795517445E-3,-2.350807190E-3
6.697814378E2,-7.136344910E-3,9.863972664E-4,-2.769231796E-3
6.702814378E2,3.670692444E-3,-3.543317318E-3,-1.817131042E-2
6.707814378E2,8.566856384E-3,-6.187617779E-3,-1.261258125E-2
6.712814378E2,-1.231002808E-2,1.927793026E-3,-8.777379990E-3
6.717814378E2,1.141548157E-2,2.400517464E-3,5.529165268E-3
6.722814378E2,-2.074241638E-3,2.427041531E-3,-9.849071503E-4
6.727814378E2,9.636878967E-3,1.174986362E-3,1.010489464E-2
6.732814378E2,1.972198486E-3,2.457559109E-3,-2.101898193E-3
6.737814378E2,1.641273499E-3,1.620948315E-3,-7.357835770E-3
6.742814378E2,-7.388210297E-2,-1.697552204E-2,1.509678364E-1
6.747814378E2,6.110000610E-2,2.794378996E-2,-1.779828072E-1
6.752814378E2,-9.127616882E-3,2.180570364E-2,-8.138895035E-3
6.757814378E2,-2.392101288E-2,5.020081997E-3,4.176259041E-2
6.762814378E2,-6.841659546E-3,4.781186581E-3,2.195978165E-2
6.767814378E2,6.444931030E-3,3.856498003E-2,-7.971525192E-3
6.772814378E2,-1.942920685E-2,-8.110165596E-2,6.892967224E-2
6.777814378E2,1.502323151E-2,2.719414234E-2,-3.021717072E-2
6.782814378E2,5.167007446E-3,7.188317180E-2,-1.992750168E-2
6.787814378E2,-1.716136932E-2,6.675472856E-2,8.661270142E-3
6.792814378E2,7.662010193E-2,8.368105888E-1,8.024191856E-2
6.797814378E2,3.175735474E-3,6.717181206E-1,-1.111268997E-2
6.802814378E2,3.983592987E-2,2.673018575E-1,2.172231674E-3
6.807814378E2,-4.029273987E-3,-8.984684944E-2,-1.694679260E-2
6.812814378E2,2.170467377E-2,1.261815429E-1,-1.845693588E-2
6.817814378E2,-3.946208954E-2,-1.264017820E-2,-2.645318508E-1
6.822814378E2,1.907634735E-2,-4.530260265E-1,-3.134598732E-1
6.827814378E2,1.892375946E-1,-2.854773700E-1,-4.035136700E-1
6.832814378E2,1.407442093E-1,-6.674146652E-2,-3.937945366E-1
6.837814378E2,-2.646732330E-2,-1.354277730E-1,-3.331394196E-1
6.842814378E2,4.253797531E-1,7.401090860E-2,-8.187094927E-1
6.847814378E2,4.077396393E-1,6.143011451E-1,-1.275896549E0
6.852814378E2,-4.711217880E-1,4.761809111E-2,-2.865912914E-1
6.857814378E2,-3.222188950E-1,-3.538327813E-1,5.108587742E-1
6.862814378E2,5.798492432E-1,-3.451775908E-1,4.888751507E-1
6.867814378E2,7.251739502E-2,-6.787112355E-1,-4.087269306E-1
6.872814378E2,-1.734638214E-1,-5.664361119E-1,4.436116219E-1
6.877814378E2,-2.103481293E-1,-3.502125740E-1,2.015967369E-1
6.882814378E2,-5.018234253E-2,-1.916023493E-1,3.976702690E-1
6.887814378E2,-5.947875977E-2,6.848919392E-2,4.803323746E-2
6.892814378E2,-2.466869354E-2,-8.836627007E-2,1.722579002E-1
6.897814378E2,-3.932952881E-3,-8.875358105E-2,2.745723724E-2
6.902814378E2,-1.370382309E-2,-7.250922918E-2,4.895448685E-2
6.907814378E2,1.103544235E-2,-2.649968863E-2,1.096329689E-1
6.912814378E2,3.486156464E-2,3.104603291E-2,1.616950035E-1
6.917814378E2,3.603839874E-2,-2.058953047E-2,-5.948543549E-3
6.922814378E2,-4.006290436E-2,-7.361739874E-2,-1.034636497E-1
6.927814378E2,-9.958982468E-2,-3.029960394E-2,2.377843857E-2
6.932814378E2,-7.905006409E-3,-1.368564367E-2,-9.978389740E-2
6.937814378E2,-2.313613892E-2,8.365094662E-3,-2.963862419E-1
6.942814378E2,4.493665695E-1,1.363977790E-1,2.250976562E-1
6.947814378E2,-2.228865623E-1,-4.499064088E-1,-1.678180695E-1
6.952814378E2,-1.040062904E-1,-4.707326889E-1,-1.685013771E-1
6.957814378E2,1.501359940E-1,-1.484469026E-1,4.062509537E-2
6.962814378E2,-1.530618668E-1,-7.172382623E-2,6.174564362E-3
6.967814378E2,2.679824829E-4,-1.987110823E-2,-1.888012886E-1
6.972814378E2,3.878593445E-2,6.375789642E-3,-1.841287613E-1
6.977814378E2,-4.280519485E-2,-4.477955401E-3,1.268153191E-1
6.982814378E2,-1.290946007E-1,-2.983677387E-2,-1.742305756E-1
6.987814378E2,-4.147768021E-2,-3.487373888E-2,9.371423721E-2
6.992814378E2,-2.347526550E-1,-4.475130141E-2,-1.425986290E-1
6.997814378E2,1.145534515E-1,-3.724007010E-1,8.133649826E-2
7.002814378E2,-8.813953400E-2,-4.095534086E-1,-1.020073891E-1
7.007814378E2,4.667758942E-2,-1.345896721E-1,1.281867027E-1
7.012814378E2,2.586288452E-1,7.066820264E-1,3.308525085E-1
7.017814378E2,-2.465896606E-1,5.548498631E-1,-3.915452957E-2
7.022814378E2,2.173328400E-2,3.045533895E-1,2.217435837E-1
7.027814378E2,-1.565465927E-1,6.350871921E-2,-3.093385696E-2
7.032814378E2,-3.034591675E-2,4.842582345E-2,1.606979370E-1
7.037814378E2,1.761016846E-1,5.627733469E-2,-4.481792450E-3
7.042814378E2,1.192541122E-1,-4.007476568E-2,-8.706998825E-2
7.047814378E2,2.989034653E-1,7.830220461E-2,6.423950195E-3
7.052814378E2,-2.998166084E-1,-7.818964124E-2,-3.561835289E-1
7.057814378E2,7.730770111E-2,-3.487599492E-1,-3.170275688E-1
7.062814378E2,1.050271988E-1,-2.912122607E-1,-2.809090614E-1
7.067814378E2,1.129217148E-1,-1.313045621E-2,-1.416063309E-2
7.072814378E2,-6.575298309E-2,-6.011696160E-2,-5.219697952E-2
7.077814378E2,-1.178321838E-1,-4.384224117E-2,5.747842789E-2
7.082814378E2,-7.005596161E-2,-4.074764997E-2,4.177093506E-3
7.087814378E2,-6.158828735E-2,-1.548036188E-2,1.017889977E-1
7.092814378E2,-2.543067932E-2,3.463813663E-2,-4.020071030E-2
7.097814378E2,9.675121307E-2,-1.640238613E-1,9.374380112E-2
7.102814378E2,5.125141144E-2,-1.865464076E-2,2.901029587E-2
7.107814378E2,-7.371711731E-2,-5.765391588E-1,6.028027534E-1
7.112814378E2,3.162097931E-2,-1.990828276E0,-1.128935814E-2
7.117814378E2,3.080662012E0,-2.267959833E0,-1.717529297E0
7.129955104E2,-1.074302197E-1,-3.486051559E-1,-5.660300255E-1
7.134955104E2,1.226639748E-1,-4.525818825E-1,-6.821665764E-1
7.139955104E2,5.948526859E-1,2.330207825E-2,1.599316597E-1
7.144955104E2,1.789403558E-1,1.724386215E-1,-1.111429691E0
7.149955104E2,7.845352888E-1,-4.581060410E-1,-3.348617554E-1
7.154955104E2,4.272197485E-1,-4.451560974E-1,-4.230546951E-2
7.159955104E2,5.259633064E-2,-6.855993271E-1,-2.242975235E-1
7.164955104E2,-4.292602539E-1,-3.327202797E-1,-1.728878498E0
7.169955104E2,-1.827182770E-1,-9.405148029E-1,6.549358368E-3
7.174955104E2,1.035743713E0,3.312447071E-1,9.682917595E-1
7.179955104E2,-2.148008347E-1,-4.193685055E-1,1.783351898E-1
7.184955104E2,9.497928619E-2,3.669333458E-2,1.073429108E0
7.189955104E2,4.621796608E-1,-2.716493607E-2,5.340456963E-1
7.194955104E2,5.289888382E-2,-1.244122982E0,-1.555145741E0
7.199955104E2,2.049527168E-1,8.035285473E-1,8.477396965E-1
7.204955104E2,3.531980515E-1,3.361682892E-1,-3.486728668E-2
7.209955104E2,7.399663925E-1,-6.558892727E-1,-1.072732687E0
7.214955104E2,7.501492500E-1,-2.141370773E-1,2.276692390E-1
7.219955104E2,1.415214539E-1,-4.732644558E-1,-1.473751545E0
7.224955104E2,2.324380875E-1,-1.855258942E-1,-9.333095551E-1
7.229955104E2,9.576034546E-2,3.153645992E-1,1.115985394E0
7.234955104E2,6.499862671E-2,-4.711550474E-1,-5.050497055E-1
7.239955104E2,1.287097931E-1,-2.400436401E-1,-9.357061386E-1
7.244955104E2,2.146244049E-2,3.610358238E-1,1.014956474E0
7.249955104E2,3.108749390E-1,1.021199942E0,1.522674084E0
7.254955104E2,5.361566544E-1,-9.555606842E-1,1.062215805E0
7.259955104E2,-1.621761322E-1,-7.652505636E-1,-1.039305687E0
7.264955104E2,3.236207962E-1,-4.089176655E-1,7.581968307E-1
7.269955104E2,9.031772614E-2,-1.736344337E0,1.972611904E0
7.274955104E2,1.604404449E-1,-1.869779944E0,-2.856416702E-1
7.279955104E2,1.303926468E0,-2.786701322E-1,-4.441738129E-2
7.284955104E2,7.310581207E-2,3.792380691E-1,-3.082380295E-1
7.289955104E2,-2.057308197E0,-1.849466562E-1,-1.497222543E0
7.294955104E2,-2.142229080E-1,-4.080186412E-2,-3.216910362E-2
7.299955104E2,1.842880249E-1,-1.525870562E-1,-4.276602268E-1
7.304955104E2,-8.838653564E-3,-8.560033143E-2,6.711313725E-1
7.309955104E2,2.311887741E-1,-6.639331579E-2,1.109092474E0
7.314955104E2,3.257904053E-1,2.281743288E-1,-4.207665920E-1
7.319955104E2,-1.148509979E-2,-1.827915311E-1,-6.421875954E-1
7.324955104E2,-5.357551575E-2,-7.545888424E-3,-1.973171234E-1
7.329955104E2,1.236629486E-1,-2.233941555E-1,5.393056870E-1
7.334955104E2,5.030050278E-1,-1.145278513E-1,-1.390409470E-1
7.339955104E2,2.324781418E-1,3.957623243E-2,7.200574875E-1
7.344955104E2,7.478618622E-1,-3.184555173E-1,8.965754509E-1
7.349955104E2,9.031200409E-2,-3.692940176E-1,3.477854729E-1
7.354955104E2,1.895828247E-1,3.920196742E-2,-4.395115376E-1
7.359955104E2,5.164241791E-2,6.395508349E-2,-1.150232553E0
7.364955104E2,1.940078735E-1,1.330628991E-1,3.136219978E-1
7.369955104E2,4.149513245E-1,-6.699229479E-1,-3.762917519E-1
7.374955104E2,-2.154960632E-1,5.246061087E-2,5.371069908E-1
7.379955104E2,9.801101685E-2,-1.658722758E-1,1.942129135E-1
7.384955104E2,-2.890682220E-2,-3.123488426E-1,-6.282603741E-1
7.389955104E2,-6.637630463E-1,-1.620137691E-1,4.299545288E-2
7.394955104E2,-1.659870148E-1,7.623445988E-2,5.692958832E-1
7.399955104E2,1.113033295E-1,-1.261998415E-1,-6.898179054E-1
7.404955104E2,1.063089371E-1,3.048797846E-1,7.352905273E-1
7.409955104E2,-3.294429779E-1,1.309558630E0,-9.772253036E-2
7.414955104E2,-4.810333252E-2,5.257061124E-1,-2.305440903E-1
7.419955104E2,4.112415314E-1,3.821200728E-1,5.355935097E-1
7.424955104E2,-2.162866592E-1,3.514152765E-2,-2.803339958E-1
7.429955104E2,-1.529693604E-3,8.969157934E-2,1.108679771E-1
7.434955104E2,-4.130039215E-1,-1.037290692E-2,-1.137545109E-1
7.439955104E2,4.739274979E-1,-6.369405240E-2,-7.235574722E-2
7.444955104E2,-8.160839081E-1,7.980632782E-2,-6.725668907E-2
7.449955104E2,7.030048370E-1,4.578161985E-2,1.999733448E-1
7.454955104E2,-8.717880249E-1,-4.730707407E-2,-4.889099598E-1
7.459955104E2,3.504209518E-1,5.222861469E-2,1.769573689E-1
7.464955104E2,-4.570188522E-1,-2.469576895E-2,-3.939065933E-1
7.469955104E2,4.148054123E-1,-7.093585283E-2,2.376708984E-1
7.474955104E2,-3.190555573E-1,-1.759991050E-2,-3.065001965E-1
7.479955104E2,5.695972443E-1,-2.489580214E-2,2.523729801E-1
7.484955104E2,-2.803306580E-1,5.229386687E-2,-4.480547905E-1
7.489955104E2,6.990413666E-1,9.179391712E-2,9.684157372E-2
7.494955104E2,-5.655717850E-1,1.385457516E-1,-5.858438015E-1
7.499955104E2,8.486652374E-1,1.149093881E-1,2.320013046E-1
7.504955104E2,-5.646104813E-1,-4.918368906E-2,-5.323970318E-1
7.509955104E2,4.709415436E-1,7.014004141E-2,3.014659882E-1
7.514955104E2,-1.563425064E-1,3.234506845E-1,-5.565543175E-1
7.519955104E2,1.779022217E-1,9.482403398E-1,1.504869461E-1
7.524955104E2,-2.483215332E-1,1.312669516E-1,5.815896988E-1
7.529955104E2,-9.339332581E-3,-5.424439907E-2,7.449340820E-1
7.534955104E2,-2.987747192E-1,8.350193501E-2,-1.023244619E0
7.539955104E2,-7.960138321E-1,-1.904644966E-1,5.281858444E-1
7.544955104E2,7.322454453E-1,3.546433449E-1,3.089227676E-1
7.549955104E2,-9.373121262E-1,-1.622239351E-1,2.868151665E-1
7.554955104E2,1.550245285E-1,5.311605930E-1,4.732446671E-1
7.559955104E2,4.246482849E-1,3.586894274E-1,-1.295994043E0
7.564955104E2,-1.951084137E-1,6.057965755E-2,1.353993416E-1
7.569955104E2,1.064821243E0,5.554080009E-3,2.129125595E-2
7.574955104E2,7.014303207E-1,2.358384132E-1,-4.994869232E-3
7.579955104E2,1.099205017E-1,1.522064209E-1,-1.004097462E-1
7.584955104E2,7.434234619E-1,-9.173297882E-2,-4.686677456E-1
7.589955104E2,-1.134138107E0,-4.838306904E-1,-9.726042747E-1
7.594955104E2,-9.718255997E-1,-3.636407852E-2,-1.067842722E0
7.599955104E2,1.415786743E-1,-4.241547585E-1,6.106331348E-1
7.604955104E2,6.400709152E-1,9.778983891E-2,4.167379439E-2
7.609955104E2,1.414461136E-1,2.858206034E-1,1.375797242E-1
7.614955104E2,-9.784278870E-1,-5.340051651E-2,4.087640047E-1
7.619955104E2,-1.925277710E-1,-1.554618597E0,5.823205709E-1
7.624955104E2,-1.381912231E-1,-1.025146961E0,-1.482447982E0
7.629955104E2,5.674686432E-1,-5.585199594E-1,-1.001138687E-1
7.634955104E2,-2.792263031E-1,-3.106031418E-1,2.007271051E-1
7.639955104E2,4.612922668E-2,-1.876475811E-1,-4.292932451E-1
7.644955104E2,4.708290100E-1,-4.369078875E-1,-9.785475135E-1
7.649955104E2,-8.717317581E-1,-5.488729477E-1,-1.113156796E0
7.654955104E2,1.217951775E0,-7.831830978E-1,2.648642063E0
7.659955104E2,-2.133550644E-1,5.903172493E-2,1.762855649E-1
7.664955104E2,-4.640417099E-1,-4.517345428E-1,5.432850122E-1
7.669955104E2,-2.876386642E-1,-1.766843796E-1,7.308400869E-1
7.674955104E2,1.737337112E0,-3.784662485E-1,-4.080780149E-1
7.679955104E2,-1.017401695E0,3.173013926E-1,-7.998775244E-1
7.684955104E2,5.425748825E-1,4.305131435E-1,-1.461542726E0
7.689955104E2,-3.813018799E-1,1.104665279E0,-6.361268163E-1
7.694955104E2,8.963794708E-1,-1.292551756E-1,1.372078776E0
7.699955104E2,3.848886490E-1,6.473878622E-1,-4.341492951E-1
7.704955104E2,-1.868000031E-1,6.717966795E-1,1.992810369E-1
7.709955104E2,-3.803539276E-2,3.074158430E-1,5.989807844E-2
7.714955104E2,1.897325516E-1,2.496799827E-1,-4.271852970E-1
7.719955104E2,2.997779846E-2,-1.073393226E-1,-1.769994795E-1
7.724955104E2,-4.622678757E-1,-4.899808764E-1,5.715095997E-2
7.729955104E2,-3.495597839E-2,-7.723751068E-1,1.253954411E0
7.734955104E2,7.237176895E-1,-7.968628407E-1,1.261520386E0
7.739955104E2,4.600572586E-1,-1.471817493E-1,3.298828602E-1
7.744955104E2,-2.723407745E-1,-2.962511778E-1,2.627178431E-1
7.749955104E2,-1.118322372E0,-6.256520748E-2,-9.731692076E-2
7.754955104E2,4.783058167E-1,-5.793535709E-2,1.133758307E0
7.759955104E2,-1.721940041E0,6.664896011E-2,-8.866497874E-2
7.764955104E2,1.641946793E0,-1.141861677E-1,2.953668356E0
7.769955104E2,-6.021785736E-1,1.258901358E-1,-1.075492263E0
7.774955104E2,1.031913757E-1,3.493752480E-1,6.711763144E-1
7.779955104E2,2.296323776E-1,-1.471557617E-1,4.178362489E-1
7.784955104E2,4.394369125E-1,-2.636150122E-1,7.955867052E-1
7.789955104E2,4.242095947E-1,-1.331533194E-1,2.450058460E-1
7.794955104E2,-8.344335556E-1,-6.501746178E-2,-5.155920386E-1
7.799955104E2,-6.929502487E-1,-1.438663006E-1,-5.535269380E-1
7.804955104E2,1.804027557E0,-1.127872467E-1,2.377005100E0
7.809955104E2,5.940580368E-1,-1.007965803E-1,-5.237674713E-2
7.814955104E2,-8.730087280E-1,-1.901364326E-2,4.445444047E-1
7.819955104E2,-1.091108322E-1,-4.853618145E-2,-5.014978647E-1
7.824955104E2,1.115089417E0,8.680832386E-2,1.580615520E0
7.829955104E2,1.104928970E0,-4.527611732E-1,5.225098133E-1
7.834955104E2,3.319902420E-1,-4.345844984E-1,-6.728509665E-1
7.839955104E2,7.791519165E-3,-4.017379284E-1,-1.546623707E-1
7.844955104E2,-1.211309433E-1,-2.921279669E-1,-8.226716518E-2
7.849955104E2,-4.027080536E-2,5.963516235E-2,2.494807243E-1
7.854955104E2,-1.016901016E0,-2.612792253E-1,-2.645422816E-1
7.859955104E2,-2.281293869E-1,2.029911280E-1,-4.012540579E-1
7.864955104E2,4.159641266E-2,-5.603661537E-1,-6.797492504E-2
7.869955104E2,-5.412235260E-1,7.772374153E-2,-1.203004122E-1
7.874955104E2,-1.834201813E-1,2.347552776E-1,-9.418032169E-1
7.879955104E2,-2.067117691E-1,3.292716742E-1,-4.009205103E-1
7.884955104E2,-2.124357224E-1,1.406890154E-1,-3.543334007E-1
7.889955104E2,-2.871990204E-2,-2.308871150E-1,-1.298098564E-1
7.894955104E2,2.277660370E-1,7.391039729E-1,2.032327652E-1
7.899955104E2,-1.752614975E-1,-5.710451603E-1,1.313881874E-1
7.904955104E2,1.550750732E-1,-5.713528395E-2,5.920362473E-1
7.909955104E2,3.207035065E-1,1.843039989E-1,3.685974777E-1
7.914955104E2,1.784572601E-1,2.277602255E-1,9.746047258E-1
7.919955104E2,1.259784698E-1,-1.149869859E-1,6.034116745E-1
7.924955104E2,-2.878503799E-1,-3.081179261E-1,-2.831493318E-1
7.929955104E2,2.358026505E-1,-7.911365032E-1,1.950986087E-1
7.934955104E2,-4.180231094E-1,-2.570919991E-1,-6.780524254E-1
7.939955104E2,2.285318375E-1,-3.393404484E-1,-5.196477175E-1
7.944955104E2,-7.282352448E-1,-2.980254889E-1,-7.236374617E-1
7.949955104E2,6.342916489E-1,2.249562740E-2,-9.496995211E-1
7.954955104E2,-2.344169617E-1,8.951139450E-2,8.920652866E-1
7.959955104E2,-4.084367752E-1,-1.278032064E-1,1.671660542E-1
7.964955104E2,-9.262046814E-1,-6.409168243E-2,-2.363713980E-1
7.969955104E2,3.117837906E-1,-4.152646065E-1,5.372496843E-1
7.974955104E2,7.973766327E-2,-6.433320045E-2,-1.157358289E-2
7.979955104E2,-3.091506958E-1,-5.273270607E-1,-1.573531330E-1
7.984955104E2,-2.802791595E-1,2.858066559E-1,3.953490555E-1
7.989955104E2,3.180446625E-1,2.765395641E-1,-2.814114094E-3
7.994955104E2,-2.630615234E-1,-1.971626282E-2,-3.793682754E-1
7.999955104E2,-8.909893036E-2,8.357701302E-1,6.164084673E-1
8.004955104E2,8.366394043E-2,3.444929123E-1,-2.334065139E-1
8.009955104E2,1.235952377E-1,1.345415115E-1,2.776949704E-1
8.014955104E2,-2.857666016E-1,1.475753784E-1,-1.606030166E-1
8.019955104E2,3.131685257E-1,3.157103062E-2,1.474016905E-1
8.024955104E2,-1.707544327E-1,-4.684960842E-2,-3.135314584E-1
8.029955104E2,3.327541351E-1,-2.016556263E-2,8.176523447E-2
8.034955104E2,-2.673349380E-1,5.104207993E-2,-1.954251230E-1
8.039955104E2,3.779325485E-1,4.568189383E-2,1.231431961E-4
8.044955104E2,-4.580974579E-2,-1.450997591E-1,-6.455123425E-2
8.049955104E2,-5.551147461E-1,1.387586594E-1,2.530834675E-1
8.054955104E2,6.433324814E-1,-8.211040497E-2,-8.859631419E-2
8.059955104E2,-7.181282043E-1,2.181622386E-1,1.674820483E-1
8.064955104E2,3.436632156E-1,-1.640069485E-2,-1.993104219E-1
8.069955104E2,-8.641004562E-1,9.428262711E-2,2.193019092E-1
8.074955104E2,5.136394501E-1,-3.093606234E-2,-1.964214742E-1
8.079955104E2,-7.319898605E-1,9.410572052E-2,2.040688992E-1
8.084955104E2,2.200059891E-1,-1.454743743E-1,4.197165370E-2
8.089955104E2,9.633064270E-3,-3.288286924E-2,1.970207691E-2
8.094955104E2,-1.534976959E-1,-8.378273249E-2,-4.526439309E-2
8.099955104E2,-1.266088486E-1,3.561681509E-2,2.022540271E-1
8.104955104E2,8.926391602E-3,-1.151033640E-1,-6.606602669E-2
8.109955104E2,2.846488953E-1,-5.759310722E-2,1.475272477E-1
8.114955104E2,-6.108293533E-1,-5.125308037E-2,-1.725429147E-1
8.119955104E2,2.648153305E-1,2.390587330E-2,1.558634341E-1
8.124955104E2,2.935838699E-1,5.577969551E-2,1.448983848E-1
8.129955104E2,-3.079442978E-1,4.459182620E-1,-2.112218589E-1
8.134955104E2,-2.903003693E-1,4.830598831E-1,2.715097666E-1
8.139955104E2,-5.519866943E-2,2.907874286E-1,4.561678469E-1
8.144955104E2,6.768226624E-3,-2.732518017E-1,5.028527975E-1
8.149955104E2,-4.042234421E-1,-4.678605199E-1,-5.037055612E-1
8.154955104E2,-5.619621277E-2,-2.844166756E-1,3.309847713E-1
8.159955104E2,-2.540397644E-2,-1.369339228E-1,3.081809282E-1
8.164955104E2,-1.653404236E-1,-1.555768251E-1,-1.227167249E-2
8.169955104E2,4.155540466E-2,1.368701458E-2,-2.934467494E-1
8.174955104E2,-7.250337601E-1,-3.096747398E-2,5.282405019E-1
8.179955104E2,-2.721986771E-1,3.477684259E-1,-1.189105213E-1
8.184955104E2,2.846803665E-1,3.265457153E-1,1.676707268E-1
8.189955104E2,-1.508207321E-1,2.079870403E-1,1.169320047E-1
8.194955104E2,-3.952655792E-1,1.125255525E-1,-1.338043213E-1
8.199955104E2,3.283805847E-1,-1.493694037E-1,-3.376952410E-1
8.204955104E2,9.242630005E-2,2.693357766E-1,8.172033429E-1
8.209955104E2,3.425855637E-1,-3.932275772E-1,-4.217900038E-1
8.214955104E2,-4.652872086E-1,-4.778720140E-1,-1.103067875E0
8.219955104E2,1.104822159E-1,-1.266382635E-1,-6.290113926E-1
8.224955104E2,2.807111740E-1,3.267698586E-1,-4.879078865E-1
8.229955104E2,-2.790403366E-1,1.461547464E-1,-6.481084824E-1
8.234955104E2,2.213563919E-1,2.497749329E-1,-1.433343887E-1
8.239955104E2,2.287473679E-1,-1.814321578E-1,2.809991837E-1
8.244955104E2,-3.340377808E-1,-4.632249475E-2,-6.536343098E-1
8.249955104E2,3.228178024E-1,-3.291909397E-1,3.850130439E-1
8.254955104E2,-4.149255753E-1,-2.121356130E-2,4.798796773E-1
8.259955104E2,1.367645264E-1,2.164238691E-1,9.968456030E-1
8.264955104E2,8.982830048E-1,1.855908632E-1,-5.161018372E-1
8.269955104E2,3.888988495E-1,1.472110450E-1,1.204419613E0
8.274955104E2,-7.537631989E-1,1.041358858E-1,-1.021170020E0
8.279955104E2,5.930747986E-1,-1.807239354E-1,1.220946074E0
8.284955104E2,4.819707870E-1,-2.321759611E-1,2.051708698E-1
8.289955104E2,6.477642059E-1,-5.609853864E-1,7.954500914E-1
8.294955104E2,-2.364807129E-1,-2.900326848E-1,4.363345504E-1
8.299955104E2,-1.889543533E-1,-1.835404038E-1,4.276788235E-1
8.304955104E2,-3.245906830E-1,2.674015760E-1,2.510290742E-1
8.309955104E2,8.787240982E-1,2.784674168E-1,1.836436391E-1
8.314955104E2,2.981729507E-1,-7.140552998E-2,2.582280040E-1
8.319955104E2,2.447156906E-1,2.626205683E-1,1.824964285E-1
8.324955104E2,-6.459712982E-2,-2.185552120E-1,6.853572726E-1
8.329955104E2,1.304979324E-1,1.726903915E-1,-5.420260429E-1
8.334955104E2,6.211280823E-1,3.878939152E-1,7.115662098E-2
8.339955104E2,4.035949707E-2,-1.424074173E-3,-1.316041350E-1
8.344955104E2,-1.946067810E-1,-2.959799767E-2,-1.268247128E0
8.349955104E2,-2.279796600E-1,2.167648077E-2,-4.150187969E-2
8.354955104E2,-3.622512817E-1,2.226281166E-2,3.443455100E-1
8.359955104E2,-4.693059921E-1,-3.709170818E-1,1.901192665E-1
8.364955104E2,-5.176544189E-1,-2.141505480E-1,4.665319920E-1
8.369955104E2,3.674983978E-2,3.875064850E-2,-9.983062744E-3
8.374955104E2,2.826442719E-1,2.161735296E-1,3.593153954E-1
8.379955104E2,6.781291962E-2,5.257623792E-1,-5.276089907E-1
8.384955104E2,-3.079862595E-1,-3.356653452E-1,6.349574327E-1
8.389955104E2,1.032342911E-1,-1.606426239E-1,4.024410248E-1
8.394955104E2,1.891365051E-1,1.954711676E-1,-2.827609777E-1
8.399955104E2,2.229518890E-1,2.144086361E-2,-6.393301487E-1
8.404955104E2,3.379783630E-1,6.695508957E-2,-3.951222897E-1
8.409955104E2,8.391504288E-1,9.590852261E-2,1.521659642E-2
8.414955104E2,-3.957271576E-1,1.125791669E-1,-5.443854928E-1
8.419955104E2,2.161130905E-1,9.496390820E-3,-6.169993877E-1
8.424955104E2,1.294322968E0,4.793087542E-1,-2.630734444E-2
8.429955104E2,-1.198587418E-1,7.655109167E-1,1.822633147E-1
8.434955104E2,-1.611700058E-1,3.817395270E-1,7.431427240E-1
8.439955104E2,-6.112070084E-1,-4.914683402E-1,-2.537333965E-2
8.444955104E2,1.871500015E-1,-7.019892335E-2,-9.626913071E-2
8.449955104E2,4.977302551E-1,-2.909916937E-1,3.945541382E-2
8.454955104E2,1.239681244E-2,5.490033627E-1,2.784075737E-1
8.459955104E2,8.010864258E-4,-2.691039145E-1,-1.214280128E-1
8.464955104E2,4.246053696E-1,-1.105230153E-1,-1.255098581E-1
8.469955104E2,5.184335709E-1,3.915850818E-2,1.177038550E-1
8.474955104E2,-2.106952667E-2,-3.095152974E-2,6.004596353E-1
8.479955104E2,5.249490738E-1,2.762642801E-1,-2.917093039E-2
8.484955104E2,-6.016540527E-2,7.098257542E-2,-1.683115661E-1
8.489955104E2,5.096902847E-1,-2.107900977E-1,5.085719228E-1
8.494955104E2,5.375509262E-1,-6.744021177E-2,3.014541864E-1
8.499955104E2,1.583747864E-1,-7.957327366E-2,8.383506536E-1
8.504955104E2,-2.164306641E-1,-2.488325834E-1,-4.953547418E-1
8.509955104E2,-1.131343842E-1,-5.705605745E-1,-8.107635975E-1
8.514955104E2,7.441711426E-1,-8.391492367E-1,-6.947492361E-1
8.519955104E2,-2.368631363E-1,-6.733024120E-1,3.281670809E-1
8.524955104E2,-2.110023499E-1,-3.920956850E-1,5.835998058E-1
8.529955104E2,-4.725866318E-1,-7.491044998E-1,-3.194371462E-1
8.534955104E2,1.014184952E-1,4.178535938E-1,3.300917149E-1
8.539955104E2,-5.720539093E-1,4.107589722E-1,-1.666827202E-1
8.544955104E2,4.837837219E-1,-4.749941826E-2,5.835316181E-1
8.549955104E2,-1.870765686E-1,-7.817989588E-2,-1.542024612E-1
8.554955104E2,2.437229156E-1,7.348526120E-1,-1.478519440E-1
8.559955104E2,1.129552841E0,-2.038767934E-1,-3.199124336E-2
8.564955104E2,-2.031726837E-1,9.928274900E-2,5.170748234E-1
8.569955104E2,-8.951244354E-1,3.920244575E-1,-1.370670795E-1
8.574955104E2,1.306285858E-1,-1.223215554E-2,6.193976402E-1
8.579955104E2,-3.161697388E-1,-1.957464814E-1,-7.719033957E-1
8.584955104E2,-8.863162994E-2,9.613685310E-3,-6.809027195E-1
8.589955104E2,-3.855485916E-1,-3.022184372E-1,-3.628306389E-1
8.594955104E2,9.625911713E-2,-2.958938479E-3,6.798911095E-2
8.599955104E2,5.459108353E-1,-6.540941000E-1,-1.107931137E-1
8.604955104E2,-7.389507294E-1,-1.195959747E-2,-7.212659717E-1
8.609955104E2,-1.133565903E-1,-2.181131691E-1,-3.939642906E-1
8.614955104E2,-3.500461578E-2,-2.030954659E-1,-7.133615017E-2
8.619955104E2,-5.304431915E-2,4.720835388E-2,7.677537203E-1
8.624955104E2,6.843748093E-1,1.066964567E-1,-1.367759705E-2
8.629955104E2,-5.684022903E-1,4.830652773E-1,-1.330640316E-1
8.634955104E2,-1.944541931E-3,9.493657947E-2,-4.144855738E-1
8.639955104E2,1.256561279E-1,-3.531890213E-1,-2.698731422E-2
8.644955104E2,8.751144409E-1,-2.036902159E-1,1.618135691E0
8.649955104E2,4.784936905E-1,-8.787330985E-2,-3.321812391E0
8.654955104E2,-1.288042068E-1,-4.351390600E-1,-5.850042105E-1
8.659955104E2,-1.079893112E-1,-3.663968742E-1,-4.126559496E-1
8.664955104E2,2.815084457E-1,-3.753612638E-1,-1.037442684E0
8.669955104E2,-3.213520050E-1,-1.600722969E-1,1.122059822E-1
8.674955104E2,1.168695450E0,-2.576916814E-1,7.992696762E-2
8.679955104E2,-9.094486237E-1,-3.401068449E-1,-1.202203393E0
8.684955104E2,5.444259644E-1,-8.478334546E-2,2.292513847E-2
8.689955104E2,8.301734924E-1,-2.865719795E-2,-8.508609533E-1
8.694955104E2,9.177875519E-2,-4.572563767E-1,-3.010185957E-1
8.699955104E2,1.186285019E-1,-7.064606547E-1,1.546207666E-1
8.704955104E2,1.123128891E0,-2.525685430E-1,2.959991693E-1
8.709955104E2,-8.174037933E-2,-1.927567720E-1,4.327807426E-1
8.714955104E2,3.359251022E-1,-2.079966664E-1,1.036059737E0
8.719955104E2,6.379928589E-1,1.774771214E-1,1.432691813E-1
8.724955104E2,-1.400423050E-1,-1.034933329E-1,-2.755236626E-1
8.729955104E2,-3.181924820E-1,-4.555814266E-1,-3.371108770E-1
8.734955104E2,-1.210144043E0,-2.052325010E-1,-1.514761925E0
8.739955104E2,-5.227117538E-1,-4.176890850E-1,-2.905033827E-1
8.744955104E2,2.442874908E-1,2.897894382E-1,2.823849916E-1
8.749955104E2,3.608350754E-1,-1.573514938E-1,8.344664574E-1
8.754955104E2,-5.770263672E-1,8.176326752E-3,-2.397904396E-1
8.759955104E2,-3.492193222E-1,-1.239095926E-1,3.453559875E-1
8.764955104E2,2.341270447E-2,1.092211008E-1,-3.261103630E-1
8.769955104E2,-8.139133453E-2,6.351006031E-1,-2.499992847E-1
8.774955104E2,4.562768936E-1,1.434575319E-1,1.519205093E0
8.779955104E2,-5.335626602E-1,2.218882442E-1,1.185882092E0
8.784955104E2,-1.255750656E-1,2.665171027E-1,1.534276724E0
8.789955104E2,2.816200256E-3,3.145055473E-1,9.633607864E-1
8.794955104E2,-2.022123337E-1,1.164961606E-1,5.061616898E-1
8.799955104E2,2.438259125E-2,-2.310295254E-1,2.936213017E-1
8.804955104E2,-5.490179062E-1,-5.282507539E-1,-4.310231209E-1
8.809955104E2,-1.046619415E-1,-3.096947074E-1,7.669267654E-1
8.814955104E2,1.834468842E-1,-2.771127224E-2,8.135867119E-1
8.819955104E2,4.959335327E-1,-5.341395140E-1,-4.010772705E-2
8.824955104E2,-2.056026459E-2,-7.377289534E-1,1.632107258E0
8.829955104E2,9.527120590E-1,-1.736113191E0,2.658410072E-1
8.834955104E2,3.471727371E-1,-5.609890819E-1,-7.063145638E-1
8.839955104E2,1.076594353E0,-7.094838023E-1,-1.133079290E0
8.844955104E2,-3.557376862E-1,-5.243348479E-1,-9.966585636E-1
8.849955104E2,-2.457942963E-1,-6.307968497E-1,-1.077668667E0
8.854955104E2,1.392889023E-1,2.226194441E-1,-2.145912647E-1
8.859955104E2,-4.149055481E-2,2.330213785E-2,-5.728191733E-1
8.864955104E2,-4.016685486E-2,1.824105084E-1,-1.223928928E-1
8.869955104E2,-8.457279205E-2,1.538847387E-2,-9.718453884E-2
8.874955104E2,3.481636047E-1,3.671774268E-1,-9.557652473E-2
8.879955104E2,3.232841492E-1,3.574867249E-1,1.881778240E-2
8.884955104E2,1.019935608E-1,3.548936248E-1,-2.897145748E-1
8.889955104E2,1.134063721E0,-1.550041586E-1,4.572842121E-1
8.894955104E2,-1.078420639E0,-7.858036458E-2,-5.936290026E-1
8.899955104E2,-1.098797798E0,7.632441074E-2,-1.044002056E0
8.904955104E2,3.588581085E-2,1.785013974E-1,-2.095437050E-1
8.909955104E2,3.352108002E-1,4.040932655E-2,-6.726360321E-2
8.914955104E2,2.602996826E-1,-3.050785959E-1,-2.087986469E-2
8.919955104E2,-1.061515808E-1,-1.292678118E-1,4.814240932E-1
8.924955104E2,2.186460495E-1,-1.625414491E-1,-5.535321236E-1
8.929955104E2,-4.145612717E-1,-8.530978858E-2,3.042918444E-1
8.934955104E2,9.217844009E-1,-3.622391224E-1,8.022006750E-1
8.939955104E2,-4.124441147E-1,-1.164296508E0,-1.660128832E-1
8.944955104E2,-1.233270645E0,-3.158257902E-1,6.614089012E-3
8.949955104E2,-3.505153656E-1,-7.388898730E-2,-5.779755116E-2
8.954955104E2,-1.211863518E0,-2.911764979E-1,-1.258320332E0
8.959955104E2,6.550416946E-1,-4.502077103E-1,4.751385450E-1
8.964955104E2,7.108554840E-1,-1.079002023E-2,-2.427384853E-1
8.969955104E2,4.137992859E-2,3.769131899E-1,-1.843494177E-1
8.974955104E2,1.455459595E-1,-3.926825225E-1,2.547762394E-1
8.979955104E2,7.548789978E-1,-2.933716774E-1,6.646349430E-1
8.984955104E2,-6.174449921E-1,-2.641989887E-1,2.304816246E-2
8.989955104E2,6.338958740E-1,-1.830055714E-1,-5.282402039E-3
8.994955104E2,-9.577035904E-1,7.964640856E-2,-8.454902172E-1
8.999955104E2,2.200326920E-1,-3.184634447E-2,-4.323892593E-1
9.004955104E2,-7.009057999E-1,-4.063603282E-1,1.308520079E0
9.009955104E2,1.612195969E-1,-7.058954239E-2,-8.158586025E-1
9.014955104E2,-7.704067230E-2,1.829075813E-2,-9.936888218E-1
9.019955104E2,5.143213272E-1,-9.891438484E-2,1.037356138E0
9.024955104E2,3.958988190E-2,-2.286714315E-1,9.260089397E-1
9.029955104E2,1.925773621E-1,9.521949291E-2,7.977037430E-1
9.034955104E2,-1.615584373E0,5.016368628E-2,-3.869910240E-1
9.039955104E2,2.107703209E0,2.500324249E-1,3.691279888E-1
9.044955104E2,-1.120138168E0,-4.837861657E-1,1.557029724E0
9.049955104E2,-1.770733356E0,2.732872069E-1,-8.197504282E-1
9.054955104E2,1.977195740E-1,3.545204401E-1,1.139497757E-2
9.059955104E2,-1.223335266E-1,2.491380572E-1,1.515583992E-1
9.064955104E2,-1.670148849E0,-5.794894695E-2,1.155760288E-1
9.069955104E2,5.815458298E-1,1.119756997E-1,-2.804152727E0
9.074955104E2,1.467990875E-2,2.189374566E-1,4.886198044E-1
9.079955104E2,9.418373108E-1,3.919407427E-1,-1.407304287E0
9.084955104E2,-1.204366684E-1,2.874857187E-2,9.519040585E-1
9.089955104E2,2.110748291E-1,1.714239120E-1,-1.929113150E0
9.094955104E2,-3.801040649E-1,2.765733004E-2,5.717511177E-1
9.099955104E2,-2.920513153E-1,2.179800868E-1,-7.091588974E-1
9.104955104E2,-2.004032135E-1,5.652040243E-2,6.588077545E-2
9.109955104E2,-6.215181351E-1,1.188926697E-1,2.286934853E-1
9.114955104E2,3.288116455E-1,-6.888061762E-2,-2.973647118E-1
9.119955104E2,-1.772098541E-1,1.612516046E-1,2.615394592E-1
9.124955104E2,9.957771301E-1,-8.427774906E-2,4.441359043E-1
9.129955104E2,3.176593781E-1,-1.046122313E-1,-1.013510227E-1
9.134955104E2,-3.556375504E-1,1.014332175E-1,-2.938662052E0
9.139955104E2,1.924238205E-1,2.031326294E-2,-8.697071075E-1
9.144955104E2,2.671718597E-2,1.034241319E-1,-3.508992195E-1
9.149955104E2,3.053092957E-1,2.998268604E-2,-9.599648714E-1
9.154955104E2,-8.086528778E-1,-1.109971404E-1,-1.204362512E0
9.159955104E2,2.784337997E-1,1.152964830E-1,1.010126591E0
9.164955104E2,-2.031955719E-1,-1.974981129E-1,9.726214409E-2
9.169955104E2,5.392589569E-1,1.233351529E-1,-9.729068279E-1
9.174955104E2,-2.739152908E-1,-1.572146118E-1,2.651629448E-1
9.179955104E2,-8.209228516E-2,2.017611861E-1,1.569993496E-1
9.184955104E2,2.851810455E-1,4.130883813E-1,1.562187672E0
9.189955104E2,-9.772396088E-2,2.893909514E-1,-1.592039347E0
9.194955104E2,-3.581457138E-1,1.652134955E-1,-3.310816288E-1
9.199955104E2,-6.085138321E-1,2.280950546E-2,-4.662922621E-1
9.204955104E2,-4.054737091E-2,-9.250986576E-2,-2.262866497E-2
9.209955104E2,1.213203430E0,2.298790216E-1,6.434323788E-1
9.214955104E2,5.212517738E0,4.789022446E0,-1.524430275E0
9.219955104E2,3.383169174E-1,-1.593542099E-1,-4.169251919E-1
9.224955104E2,7.388973236E-2,-1.760745049E-2,-1.501727700E-1
9.229955104E2,-1.688404083E-1,-1.647663116E-2,-7.404659986E-1
9.234955104E2,-4.684686661E-1,-2.584795952E-1,-1.242750525E0
9.239955104E2,8.674440384E-1,-3.185545206E-1,-8.341853619E-1
9.244955104E2,-4.516477585E-1,-7.508778572E-2,1.278707385E-1
9.249955104E2,9.815082550E-1,-5.647597313E-1,-4.873764515E-2
9.254955104E2,-6.575145721E-1,-2.822301388E-1,4.901708364E-1
9.259955104E2,9.006681442E-1,-3.095901012E-2,4.649104476E-1
9.264955104E2,-6.063842773E-2,-4.854226112E-2,4.934688509E-1
9.269955104E2,-3.856267929E-1,1.302903891E-1,-2.942203283E-1
9.274955104E2,-1.422901154E-1,-3.016802073E-1,-2.120325267E-1
9.279955104E2,-3.322267532E-1,4.284119606E-2,-2.964071035E-1
9.284955104E2,-5.281467438E-1,2.722716331E-2,-1.513677835E-2
9.289955104E2,3.927173615E-1,-1.180123091E-1,1.770591140E-1
9.294955104E2,-1.776409149E-1,-2.764853239E-1,-2.773762941E-1
9.299955104E2,-1.070177078E0,-3.554952145E-2,-5.963412523E-1
9.304955104E2,-7.622747421E-1,-1.312553883E-2,-8.269309998E-1
9.309955104E2,-7.186050415E-1,-1.688435078E-1,1.132341862E0
9.314955104E2,-3.288669586E-1,-8.213036060E-1,-1.109635353E0
9.319955104E2,-7.351493835E-1,-3.670735359E-1,-2.920712829E-1
9.324955104E2,-5.173978806E-1,-4.519240856E-1,-1.401891708E0
9.329955104E2,6.645965576E-2,3.545014858E-1,2.432012558E-2
9.334955104E2,-1.475973129E-1,2.107262611E-1,2.197537422E-1
9.339955104E2,-5.027770996E-1,-7.613921165E-2,-8.550014496E-1
9.344955104E2,-1.004845619E0,-3.653259277E-1,-3.466501236E-1
9.349955104E2,-2.130889893E-2,-3.191940784E-1,-1.186922312E0
9.354955104E2,-3.977890015E-1,-1.464998722E-1,-1.843230724E0
9.359955104E2,-2.625274658E-2,-6.055343151E-2,2.788941860E-1
9.364955104E2,4.894256592E-1,-2.000249624E-1,5.066847801E-2
9.369955104E2,3.910436630E-1,-5.408391953E-1,1.424007416E-1
9.374955104E2,-8.858680725E-1,-1.003445625E0,-1.028541923E0
9.379955104E2,-7.987403870E-1,-4.942269325E-1,1.412207603E0
9.384955104E2,2.450141907E-1,4.338845015E-1,-5.254411697E-1
9.389955104E2,-5.354499817E-2,-4.855167866E-2,2.310848236E-1
9.394955104E2,-1.381520271E0,-8.186643124E-1,-1.244631290E0
9.399955104E2,1.115829468E0,-1.380051374E0,-1.470320821E0
9.404955104E2,1.436758041E-1,-9.326028824E-1,4.491100311E-1
9.409955104E2,6.684780121E-2,-5.548689365E-1,3.163661957E-1
9.414955104E2,-1.043119431E-1,3.856754303E-2,-6.697242260E-1
9.419955104E2,-2.416381836E-1,-2.762467861E-1,5.433535576E-2
9.424955104E2,1.838321686E-1,1.461260319E-1,-8.186841011E-2
9.429955104E2,8.614759445E-1,1.256085873E0,3.552043438E-1
9.434955104E2,-4.362096786E-1,5.397554636E-1,6.242752075E-2
9.439955104E2,-2.168111801E-1,4.640891552E-1,-1.642408371E-1
9.444955104E2,7.641963959E-1,1.079403162E-1,3.839447498E-1
9.449955104E2,-6.557550430E-1,2.649402618E-2,-2.724382877E-1
9.454955104E2,3.451995850E-1,-4.084837437E-2,-7.848238945E-2
9.459955104E2,6.985330582E-1,-6.731486320E-2,6.748619080E-1
9.464955104E2,-5.805215836E-1,1.923044920E-1,-4.259247780E-1
9.469955104E2,4.344263077E-1,-1.016362906E-1,5.979661942E-1
9.474955104E2,1.580018997E-1,-1.734049320E-1,-3.397657871E-1
9.479955104E2,-5.535507202E-1,1.665623188E-1,1.567480564E-1
9.484955104E2,9.311599731E-1,2.648305893E-2,4.409561157E-1
9.489955104E2,-1.090109825E0,1.038453579E-1,-4.021134377E-1
9.494955104E2,5.076255798E-1,3.231674433E-2,5.096759796E-1
9.499955104E2,-1.194045067E0,7.853943110E-2,-5.271406174E-1
9.504955104E2,5.353126526E-1,1.886796951E-2,3.986864090E-1
9.509955104E2,-1.101721764E0,8.814674616E-2,-5.003869534E-1
9.514955104E2,7.254276276E-1,-8.276557922E-2,2.876992226E-1
9.519955104E2,-4.332523346E-1,8.050179482E-2,4.074349403E-1
9.524955104E2,2.531862259E-1,-1.648457050E-1,-7.948350906E-2
9.529955104E2,-7.293148041E-1,1.209446192E-1,2.847180367E-1
9.534955104E2,7.257232666E-1,-1.030895710E-1,2.305214405E-1
9.539955104E2,-8.289031982E-1,1.373944283E-1,6.181502342E-2
9.544955104E2,8.895063400E-1,-4.206657410E-3,3.117346764E-1
9.549955104E2,-7.761859894E-1,1.661381721E-1,7.364988327E-3
9.554955104E2,8.462457657E-1,6.115531921E-2,3.771178722E-1
9.559955104E2,-7.415542603E-1,1.225432158E-1,-4.397888184E-1
9.564955104E2,6.405935287E-1,9.150850773E-2,4.387722015E-1
9.569955104E2,-7.598333359E-1,9.701406956E-2,-5.304763317E-1
9.574955104E2,6.576938629E-1,8.976298571E-2,5.143098831E-1
9.579955104E2,-1.016701698E0,7.890552282E-2,-3.533382416E-1
9.584955104E2,5.550594330E-1,7.348978519E-2,3.538784981E-1
9.589955104E2,-8.604469299E-1,5.982339382E-2,-5.514812469E-1
9.594955104E2,3.742704391E-1,5.586284399E-2,5.895614624E-1
9.599955104E2,-8.542594910E-1,6.015962362E-2,-7.142522335E-1
9.604955104E2,4.057950974E-1,4.615068436E-3,5.172910690E-1
9.609955104E2,-9.534940720E-1,1.477015018E-2,-6.568114758E-1
9.614955104E2,-4.346303940E-1,2.926436663E-1,-2.485249043E-1
9.619955104E2,-6.232166290E-2,8.098848462E-1,-1.168138981E-1
9.624955104E2,-3.647947311E-1,2.956221700E-1,8.297238350E-1
9.629955104E2,-2.380514145E-1,4.840162694E-1,-1.794250011E-1
9.634955104E2,1.419610977E-1,-4.018723965E-3,6.258263588E-1
9.639955104E2,-1.902523041E-1,-3.813652098E-1,1.222431660E0
9.644955104E2,-3.316202164E-1,-2.908354998E-2,3.385534286E-1
9.649955104E2,-6.355075836E-1,-1.061402261E-1,1.771224022E0
9.654955104E2,4.415740967E-1,4.567191601E-1,3.114895821E-1
9.659955104E2,-3.169679642E-1,-7.956303954E-1,-7.363359928E-1
9.664955104E2,-2.185497284E-1,-2.328087091E-1,-9.305682182E-1
9.669955104E2,-4.645471573E-1,-1.251884103E-1,-1.023590565E-1
9.674955104E2,1.308089256E0,1.241374612E-1,-5.343627930E-1
9.679955104E2,-2.184543610E-1,-8.079984188E-1,-7.540686131E-1
9.684955104E2,-1.712646484E-1,7.608169317E-2,5.528633595E-1
9.689955104E2,1.393566132E-1,-3.264715970E-1,-2.849185467E-1
9.694955104E2,-1.173992157E-1,-2.591812909E-1,-6.105897427E-1
9.699955104E2,8.274078369E-2,-4.969452322E-1,-3.683786392E-1
9.704955104E2,-3.089647293E-1,3.556680381E-1,-1.078432798E0
9.709955104E2,7.537841797E-1,-2.470374554E-1,-4.033699036E-1
9.714955104E2,-1.579389572E-1,2.783642709E-2,4.238502979E-1
9.719955104E2,-1.456208229E0,-4.538684338E-2,-6.925497055E-1
9.724955104E2,7.783498764E-1,1.119831353E-1,6.103053093E-1
9.729955104E2,-7.259082794E-2,-4.151161313E-1,-6.259038448E-1
9.734955104E2,-1.387643814E-1,4.776182771E-2,1.787805557E-1
9.739955104E2,-1.121268272E0,2.143057138E-1,-9.505136013E-1
9.744955104E2,-9.651184082E-4,-5.965657234E-1,1.791161060E0
9.749955104E2,7.748489380E-1,-3.897779584E-1,1.323238611E0
9.754955104E2,-6.059246063E-1,3.565838635E-1,-3.348906040E-1
9.759955104E2,-7.814626694E-1,-3.091816902E-1,-5.516116619E-1
9.764955104E2,-8.316993713E-3,-7.324620485E-1,9.144968987E-1
9.769955104E2,1.005064964E0,-6.049289703E-1,5.666296482E-1
9.774955104E2,1.345987320E-1,-6.338954568E-1,-6.652951241E-2
9.779955104E2,5.358076096E-1,-2.629033923E-1,-4.349412918E-1
9.784955104E2,8.038387299E-1,2.133703977E-2,-3.467884064E-1
9.789955104E2,3.603048325E-1,-3.987333775E-1,1.057182789E0
9.794955104E2,-1.018265724E0,-3.514856696E-1,-1.212389946E0
9.799955104E2,-1.176433563E-1,-2.658371925E-1,-2.009587765E0
9.804955104E2,-1.126394272E-1,-9.054538608E-2,-1.281390667E0
9.809955104E2,8.523988724E-1,-4.327596724E-1,-4.709641933E-1
9.814955104E2,4.596948624E-1,6.778800488E-1,-6.530475616E-2
9.819955104E2,-4.124326706E-1,-7.393627167E-1,-9.657173157E-1
9.824955104E2,-1.278676987E0,-2.653314769E-1,-1.133155584E0
9.829955104E2,1.222366333E0,-3.358343244E-1,1.795946598E0
9.834955104E2,-2.667350769E-1,-2.266194224E-1,-6.182374954E-1
9.839955104E2,2.750196457E-1,-1.205444336E-3,5.563113689E-1
9.844955104E2,2.247905731E-1,-2.514804602E-1,-3.764748573E-1
9.849955104E2,2.853593826E-1,-3.056035042E-1,4.125676155E-1
9.854955104E2,2.539615631E-1,-2.888497710E-1,2.140846252E0
9.859955104E2,5.722799301E-1,-1.008099914E-1,3.484520912E-1
9.864955104E2,-5.437850952E-2,1.646981239E-1,8.658285141E-1
9.869955104E2,-3.171920776E-3,6.737822294E-2,4.388771057E-1
9.874955104E2,-6.645107269E-1,7.503008842E-2,6.436252594E-2
9.879955104E2,-2.649126053E-1,-2.270021439E-1,-1.419554949E-1
9.884955104E2,3.337726593E-1,6.792759895E-2,3.299165964E-1
9.889955104E2,3.362617493E-1,1.779063940E-1,-4.808645844E-1
9.894955104E2,-3.237056732E-2,1.370078325E-1,-3.250906467E-1
9.899955104E2,-6.784610748E-1,-1.234626770E-2,-5.795779824E-1
9.904955104E2,-4.893598557E-1,-3.845393658E-2,-3.454647064E-1
9.909955104E2,1.441049576E-1,2.096188068E-2,-8.366793394E-2
9.914955104E2,4.046058655E-1,1.512992382E-2,5.544710159E-1
9.919955104E2,-1.396188736E-1,5.408453941E-2,-5.980634689E-1
