"Time (s)","Acceleration x (m/s^2)","Acceleration y (m/s^2)","Acceleration z (m/s^2)"
4.287837070E-1,6.699903607E-1,7.164111137E0,6.671189308E0
9.287837070E-1,8.997012973E-1,7.743174076E0,6.857829571E0
1.428783707E0,-6.173482537E-1,5.431707382E0,8.618947029E0
1.928783707E0,1.497906923E0,5.455635548E0,2.254039049E0
2.428783707E0,4.364508629E0,6.379265308E0,5.312066078E0
2.928783707E0,5.623133183E0,3.235096216E0,2.306680918E0
3.428783707E0,9.126225471E0,-2.368894339E0,-7.657032609E-1
3.928783707E0,9.006584167E0,-8.135596663E-2,7.417750359E-1
4.428783707E0,1.008814049E1,3.732803464E-1,9.571290761E-2
4.928783707E0,9.221938133E0,-8.374879360E-1,8.566305041E-1
5.428783707E0,9.475577354E0,6.412764788E-1,-2.474178553E0
5.928783707E0,8.087740898E0,7.609176040E-1,-1.344766378E0
6.428783707E0,8.738588333E0,1.770688742E-1,-1.095912814E0
6.928783707E0,9.379864693E0,1.196411327E-1,-9.284151793E-1
7.428783707E0,8.695517540E0,-4.977070987E-1,-1.454836130E0
7.928783707E0,1.189711380E1,2.809173822E0,-1.584048629E0
8.428783707E0,9.714859962E0,-2.344966233E-1,-2.545963287E0
8.928783707E0,9.217152596E0,-8.135596663E-2,-1.435693622E0
9.428783707E0,1.024128056E1,-4.307080805E-1,-1.402194023E0
9.928783707E0,9.757930756E0,-6.556333899E-1,-7.848458290E-1
1.042878371E1,1.038485050E1,4.307080805E-1,-1.086341500E0
1.092878371E1,8.762516975E0,-8.231309652E-1,2.105683982E-1
1.142878371E1,9.958928108E0,2.967100143E-1,-5.838487148E-1
1.192878371E1,9.499505997E0,-2.775674164E-1,-7.130611539E-1
1.242878371E1,9.480362892E0,-4.019941986E-1,-1.339980721E0
1.292878371E1,8.934800148E0,-6.652047038E-1,-1.234696507E0
1.342878371E1,1.010249710E1,1.914258115E-2,-5.647061467E-1
1.392878371E1,9.676574707E0,4.785645381E-2,-1.674975902E-1
1.442878371E1,1.105484104E1,1.004985496E-1,-1.330409408E0
1.492878371E1,8.374878883E0,-8.135596663E-2,-1.842473388E0
1.542878371E1,9.097511292E0,1.196411327E-1,-1.502692580E0
1.592878371E1,9.528220177E0,3.780659735E-1,-4.737788737E-1
1.642878371E1,9.332008362E0,-4.067798555E-1,-1.234696507E0
1.692878371E1,1.048534870E1,-1.052841991E-1,-8.327022791E-1
1.742878371E1,1.009771156E1,-3.302095234E-1,-1.095912814E0
1.792878371E1,9.820143700E0,-3.924229145E-1,-6.891329288E-1
1.842878371E1,9.734002113E0,-1.249053478E0,-1.320838094E0
1.892878371E1,9.547362328E0,-3.780659735E-1,-6.269195080E-1
1.942878371E1,9.738788605E0,-7.034898400E-1,-1.320838094E0
1.992878371E1,1.024606609E1,-5.072783828E-1,-1.205982566E0
2.042878371E1,9.332008362E0,-8.087740541E-1,-1.100698471E0
2.092878371E1,9.513862610E0,-6.699903309E-2,-1.459621787E0
2.142878371E1,9.274580956E0,-5.982056856E-1,-1.794616938E0
2.192878371E1,9.719645500E0,-2.967100143E-1,-1.359123230E0
2.242878371E1,9.499505997E0,-6.125625968E-1,-1.335195065E0
2.292878371E1,1.050449181E1,-6.317051649E-1,-6.652047038E-1
2.342878371E1,9.925428391E0,-5.742774606E-1,-9.619147182E-1
2.392878371E1,1.051406288E1,1.579262912E-1,-1.593619823E0
2.442878371E1,1.041356373E1,-1.818545163E-1,-1.311266780E0
2.492878371E1,9.198010445E0,-1.182054400E0,-6.556333899E-1
2.542878371E1,1.048056316E1,-1.009771109E0,-1.349551916E0
2.592878371E1,1.019820976E1,-8.662018180E-1,-1.670190215E0
2.642878371E1,7.719245911E0,-1.947757602E0,-1.622333765E0
2.692878371E1,8.805587769E0,-2.847458839E0,-1.564906001E0
2.742878371E1,8.173882484E0,-2.971885681E0,-1.344766378E0
2.792878371E1,1.228475189E1,-1.732403636E0,-1.167697430E0
2.842878371E1,1.046142101E1,-2.225325108E0,-3.445664644E-1
2.892878371E1,1.035135078E1,-3.096312523E0,-4.929214716E-1
2.942878371E1,8.566305161E0,-3.790230989E0,-6.604190469E-1
2.992878371E1,1.069591713E1,-2.321038008E0,-1.306481123E0
3.042878371E1,7.944170952E0,-3.043670416E0,-1.095912814E0
3.092878371E1,8.236095428E0,-3.957728624E0,-9.619147182E-1
3.142878371E1,1.050449181E1,-3.058027267E0,-8.470591903E-1
3.192878371E1,8.298309326E0,-3.617947817E0,-1.115055323E0
3.242878371E1,9.561718941E0,8.422735929E-1,-1.430907965E0
3.292878371E1,1.017428207E1,-4.211367965E-1,-1.100698471E0
3.342878371E1,9.207581520E0,-1.100698471E0,-1.249053478E0
3.392878371E1,9.442078590E0,-6.077769399E-1,-1.976471543E0
3.442878371E1,9.547362328E0,-3.397808075E-1,-1.459621787E0
3.492878371E1,9.561718941E0,1.048056364E0,-9.475577474E-1
3.542878371E1,9.336793900E0,5.886343718E-1,-1.698904037E0
3.592878371E1,9.934999466E0,2.153540403E-1,-8.709874153E-1
3.642878371E1,9.480362892E0,-9.044869542E-1,-1.316052437E0
3.692878371E1,1.062891865E1,-8.422735929E-1,-1.411765337E0
3.742878371E1,9.049654961E0,-7.561319470E-1,-1.464407444E0
3.792878371E1,1.035135078E1,-5.264210105E-1,-1.091127157E0
3.842878371E1,9.064012527E0,-6.699903607E-1,-1.430907965E0
3.892878371E1,1.052363396E1,-4.259224236E-1,-1.201196909E0
3.942878371E1,8.819944382E0,-6.699903607E-1,-1.076770186E0
3.992878371E1,9.992427826E0,-5.455635786E-1,-2.038684845E0
4.042878371E1,1.057149029E1,-1.914258152E-1,-6.269195080E-1
4.092878371E1,8.829515457E0,-5.694918036E-1,-7.226324677E-1
4.142878371E1,1.020299530E1,3.206382394E-1,-1.536192179E0
4.192878371E1,9.231510162E0,5.551348329E-1,-1.832902193E0
4.242878371E1,9.212367058E0,7.944171429E-1,-1.540977836E0
4.292878371E1,9.509077072E0,8.470591903E-1,-1.110269666E0
4.342878371E1,1.015513897E1,1.119840980E0,-1.091127157E0
4.392878371E1,9.930213928E0,8.997012973E-1,-1.363908887E0
4.442878371E1,1.016949654E1,8.566305041E-1,-1.014556766E0
4.492878371E1,9.365508080E0,7.417750359E-1,-2.407179594E0
4.542878371E1,1.004506969E1,1.067198873E0,-1.904686809E0
4.592878371E1,1.150469112E1,1.679761529E0,-1.560120344E0
4.642878371E1,8.963513374E0,-8.997012973E-1,-2.225325108E0
4.692878371E1,9.844072342E0,-1.421336651E0,-1.363908887E0
4.742878371E1,9.868000984E0,-1.349551916E0,-1.828116536E0
4.792878371E1,9.796216011E0,-1.052842021E0,-1.923829436E0
4.842878371E1,1.000199890E1,-1.119840980E0,-1.952543259E0
4.892878371E1,9.250652313E0,-2.775674164E-1,-2.115255117E0
4.942878371E1,9.370293617E0,-4.977070987E-1,-2.622533560E0
4.992878371E1,9.183652878E0,-6.652047038E-1,-3.273381472E0
5.042878371E1,8.920442581E0,-2.679961324E-1,-2.770888567E0
5.092878371E1,1.097348499E1,-4.307080805E-1,-5.876772404E0
5.142878371E1,7.542177200E0,-6.173482537E-1,-3.929014683E0
5.192878371E1,1.013599682E1,-4.785645381E-2,-3.311666489E0
5.242878371E1,9.174081802E0,4.642075896E-1,-3.675375462E0
5.292878371E1,9.667003632E0,8.614161611E-1,-3.125026464E0
5.342878371E1,9.623932838E0,-1.866401732E-1,-1.363908887E0
5.392878371E1,8.973084450E0,-7.657032460E-2,-2.670390129E0
5.442878371E1,1.072463131E1,-6.364908218E-1,-1.148554921E0
5.492878371E1,1.150947666E1,-4.307080805E-2,-7.465606928E-1
5.542878371E1,9.667003632E0,1.148554832E-1,-1.105484009E0
5.592878371E1,1.164826107E1,-5.503492355E-1,-2.474178553E0
5.642878371E1,8.059026718E0,-3.828516304E-1,-2.679961324E-1
5.692878371E1,1.042313576E1,-9.571290761E-2,-3.254238665E-1
5.742878371E1,9.351150513E0,1.100698411E-1,-1.249053478E0
5.792878371E1,1.031306553E1,-1.244267747E-1,-9.571290612E-1
5.842878371E1,9.600004196E0,-1.306481123E0,-1.517049551E0
5.892878371E1,8.102097511E0,-3.349951655E-2,-1.253839016E0
5.942878371E1,1.265324593E1,-1.330409408E0,1.976471543E0
5.992878371E1,6.116054535E0,-1.402194023E0,-2.273181438E0
6.042878371E1,1.107398319E1,-1.722832322E-1,-9.954141974E-1
6.092878371E1,8.748159409E0,-3.254238665E-1,-1.244267821E0
6.142878371E1,8.475378036E0,-7.178468257E-2,-2.589034081E0
6.192878371E1,1.061456108E1,-1.483550072E-1,3.780659735E-1
6.242878371E1,8.829515457E0,2.871387303E-1,-1.483550072E0
6.292878371E1,9.920642853E0,1.024128079E0,-7.513462901E-1
6.342878371E1,1.040877819E1,1.038485050E0,-5.503492355E-1
6.392878371E1,1.045663452E1,8.135597110E-1,-1.842473388E0
6.442878371E1,9.628718376E0,7.274180651E-1,-8.231309652E-1
6.492878371E1,9.858428955E0,4.833501875E-1,-2.153540373E0
6.542878371E1,1.108355427E1,1.306481123E0,-1.330409408E0
6.592878371E1,8.164310455E0,7.369893789E-1,-9.523434043E-1
6.642878371E1,9.633503914E0,1.158126116E0,-1.368694544E0
6.692878371E1,1.048534870E1,1.349551916E0,-2.187039852E0
6.742878371E1,1.012164021E1,9.236295223E-1,-1.521835208E0
6.792878371E1,9.839286804E0,1.962114573E-1,-2.273181438E0
6.842878371E1,8.346165657E0,-1.387837082E-1,-2.009970903E0
6.892878371E1,1.033699417E1,4.977070987E-1,-1.138983607E0
6.942878371E1,9.274580956E0,5.312066078E-1,-6.652047038E-1
6.992878371E1,9.164510727E0,8.183453679E-1,-9.427721500E-1
7.042878371E1,1.087298584E1,2.488535494E-1,-3.637090325E-1
7.092878371E1,8.987442017E0,-5.934200287E-1,-2.536391973E0
7.142878371E1,8.738588333E0,-9.714859724E-1,-3.239881754E0
7.192878371E1,8.575876236E0,-6.508477330E-1,-3.335594654E0
7.242878371E1,9.911071777E0,-3.302095234E-1,-2.344966173E0
7.292878371E1,1.015035343E1,-2.871387303E-1,-4.881358147E-1
7.342878371E1,8.293522835E0,1.962114573E-1,-1.110269666E0
7.392878371E1,1.025563812E1,1.435693651E-1,-1.962114573E0
7.442878371E1,9.265008926E0,1.435693540E-2,-1.272981644E0
7.492878371E1,1.038963604E1,-1.387837082E-1,-1.531406522E0
7.542878371E1,9.939785004E0,-1.435693540E-2,-9.379864931E-1
7.592878371E1,1.000199890E1,-2.392822690E-2,-1.493121386E0
7.642878371E1,1.023170948E1,-3.924229145E-1,-1.349551916E0
7.692878371E1,9.533005714E0,-4.019941986E-1,-1.521835208E0
7.742878371E1,9.207581520E0,-3.876372576E-1,-1.316052437E0
7.792878371E1,1.095912743E1,-2.536391914E-1,-2.153540373E0
7.842878371E1,8.743373871E0,-1.009771109E0,-1.780260086E0
7.892878371E1,1.059541893E1,-5.886343718E-1,-1.564906001E0
7.942878371E1,9.777072906E0,-1.229910851E0,-1.665404558E0
7.992878371E1,9.561718941E0,-1.081555843E0,-1.378265858E0
8.042878371E1,9.738788605E0,-1.320838094E0,-1.473978758E0
8.092878371E1,1.009292603E1,-1.253839016E0,-1.569691658E0
8.142878371E1,9.370293617E0,-1.411765337E0,-1.679761529E0
8.192878371E1,8.647661209E0,-1.062413216E0,-1.177268744E0
8.242878371E1,9.633503914E0,-2.086541414E0,-1.574477315E0
8.292878371E1,1.005942631E1,-1.593619823E0,-1.655833244E0
8.342878371E1,9.121439934E0,-9.667003751E-1,-1.426122308E0
8.392878371E1,1.031306553E1,-1.282552958E0,-1.536192179E0
8.442878371E1,9.126225471E0,-1.483550072E0,-1.885544300E0
8.492878371E1,1.005464077E1,-1.311266780E0,-2.273181438E0
8.542878371E1,8.858229637E0,-7.800601721E-1,-2.397608280E0
8.592878371E1,9.623932838E0,-7.082754970E-1,-3.168097258E0
8.642878371E1,8.796015739E0,-5.599204898E-1,-2.579462767E0
8.692878371E1,9.303294182E0,-3.397808075E-1,-2.598605394E0
8.742878371E1,1.046620655E1,1.722832322E-1,-3.206382275E0
8.792878371E1,8.374878883E0,-3.062812984E-1,-4.431507587E0
8.842878371E1,9.891928673E0,6.891329288E-1,-3.967299938E0
8.892878371E1,1.019820976E1,1.464407444E0,-3.407379389E0
8.942878371E1,8.336593628E0,1.009771109E0,-5.149354458E0
8.992878371E1,7.556533813E0,-5.551348329E-1,-4.618147850E0
9.042878371E1,7.992027760E0,-2.871387079E-2,-4.689932346E0
9.092878371E1,8.145168304E0,1.148554832E-1,-5.015356064E0
9.142878371E1,1.011685371E1,3.780659735E-1,-2.139183521E0
9.192878371E1,1.131326580E1,1.124626637E0,-2.531606436E0
9.242878371E1,1.088734341E1,8.327022791E-1,-1.134197950E0
9.292878371E1,8.681160927E0,6.221338734E-2,-2.014756680E0
9.342878371E1,9.265008926E0,5.934200287E-1,-1.497906923E0
9.392878371E1,1.044706345E1,1.201196909E0,-1.158126116E0
9.442878371E1,8.968298912E0,6.221339107E-1,-1.119840980E0
9.492878371E1,9.820143700E0,9.427721500E-1,-2.823530734E-1
9.542878371E1,1.164347458E1,1.215553880E0,1.483550072E-1
9.592878371E1,1.009292603E1,5.647061467E-1,-1.148554832E-1
9.642878371E1,1.079162979E1,1.071984529E0,-1.335195065E0
9.692878371E1,8.451449394E0,2.967100143E-1,2.392822653E-1
9.742878371E1,9.829715729E0,4.211367965E-1,4.881358147E-1
9.792878371E1,1.095434189E1,9.667003751E-1,-1.732403636E0
9.842878371E1,9.461220741E0,2.967100143E-1,-3.058027267E0
9.892878371E1,9.968499184E0,-4.307080805E-2,-1.445264935E0
9.942878371E1,1.022213840E1,-2.297109663E-1,-5.742774606E-1
9.992878371E1,1.115533924E1,-3.493520916E-1,1.962114573E-1
1.004287837E2,9.734002113E0,-7.178468108E-1,-1.301695466E0
1.009287837E2,9.265008926E0,-9.571290612E-1,-5.982056856E-1
1.014287837E2,9.346364975E0,-8.183453679E-1,-1.119840980E0
1.019287837E2,9.308079720E0,-7.848458290E-1,-9.332008362E-1
1.024287837E2,1.006899738E1,-6.173482537E-1,-1.488335729E0
1.029287837E2,1.076291656E1,-5.647061467E-1,-1.545763373E0
1.034287837E2,9.877572060E0,-4.211367965E-1,4.785645287E-3
1.039287837E2,1.051884842E1,-7.657032460E-2,4.785645287E-3
1.044287837E2,9.064012527E0,-4.977070987E-1,-5.024927258E-1
1.049287837E2,9.973284721E0,-2.775674164E-1,-1.459621787E0
1.054287837E2,9.006584167E0,-3.062812984E-1,-1.555334687E0
1.059287837E2,1.057149029E1,3.302095234E-1,1.473978758E0
1.064287837E2,9.174081802E0,-2.536391914E-1,-4.737788737E-1
1.069287837E2,8.551948547E0,-2.775674164E-1,-2.488535494E-1
1.074287837E2,1.131326580E1,1.292124242E-1,8.709874153E-1
1.079287837E2,8.700303078E0,-4.881358147E-1,-1.469193101E0
1.084287837E2,8.982656479E0,-3.397808075E-1,-4.259224236E-1
1.089287837E2,1.046620655E1,-2.440679073E-1,-2.344966233E-1
1.094287837E2,1.014078236E1,-8.135596663E-2,-2.488535494E-1
1.099287837E2,9.332008362E0,-3.254238665E-1,-8.853443861E-1
1.104287837E2,9.269794464E0,-7.848458290E-1,-1.191625714E0
1.109287837E2,9.379864693E0,-9.619147182E-1,-1.761117458E0
1.114287837E2,1.036092186E1,-9.475577474E-1,-1.325623751E0
1.119287837E2,6.800402164E0,-6.652047038E-1,-1.249053478E0
1.124287837E2,1.117926693E1,-4.785645306E-1,-2.895315409E0
1.129287837E2,7.661818027E0,-8.614161611E-1,-1.249053478E0
1.134287837E2,1.033699417E1,-8.566305041E-1,-1.445264935E0
1.139287837E2,1.206939697E1,-4.019941986E-1,-5.359922647E-1
1.144287837E2,9.183652878E0,-1.239482164E0,-2.459821701E0
1.149287837E2,9.824930191E0,-1.555334687E0,-1.215553880E0
1.154287837E2,8.973084450E0,-1.277767301E0,-1.024128079E0
1.159287837E2,9.513862610E0,-5.742774159E-2,-9.188438654E-1
1.164287837E2,9.040083885E0,-8.614161611E-2,-2.297109663E-1
1.169287837E2,9.930213928E0,-5.694918036E-1,6.699903309E-2
1.174287837E2,9.992427826E0,-1.866401732E-1,3.493520916E-1
1.179287837E2,9.049654961E0,-2.919243574E-1,-4.929214716E-1
1.184287837E2,9.547362328E0,3.302095234E-1,2.679961324E-1
1.189287837E2,9.667003632E0,1.579262912E-1,-1.962114573E-1
1.194287837E2,9.528220177E0,5.407779217E-1,1.067198873E0
1.199287837E2,9.284152031E0,1.914258152E-1,-1.962114573E-1
1.204287837E2,1.008814049E1,1.459621787E0,-1.081555843E0
1.209287837E2,9.767501831E0,7.848458290E-1,-1.253839016E0
1.214287837E2,8.934800148E0,9.810572863E-1,-1.684547186E0
1.219287837E2,9.461220741E0,1.234696507E0,-9.619147182E-1
1.224287837E2,8.719446182E0,5.790630579E-1,-1.545763373E0
1.229287837E2,9.317651749E0,9.188438654E-1,-1.521835208E0
1.234287837E2,9.336793900E0,5.934200287E-1,-2.478964329E0
1.239287837E2,8.551948547E0,3.062812984E-1,-1.182054400E0
1.244287837E2,9.676574707E0,3.780659735E-1,-2.177468538E0
1.249287837E2,9.973284721E0,1.210768223E0,-2.507678032E0
1.254287837E2,8.102097511E0,4.689932466E-1,-2.287538528E0
1.259287837E2,9.671789169E0,-1.435693540E-2,-2.282752752E0
1.264287837E2,9.542576790E0,-2.392822690E-2,-2.000399828E0
1.269287837E2,8.800801277E0,8.901300430E-1,2.067398787E0
1.274287837E2,8.992227554E0,1.378265858E0,3.091526747E0
1.279287837E2,9.418149948E0,1.598405480E0,3.933800459E0
1.284287837E2,9.978070259E0,1.344766378E0,4.785645485E0
1.289287837E2,8.934800148E0,1.071984529E0,2.335394859E0
1.294287837E2,9.633503914E0,-3.589234054E-1,2.134397745E0
1.299287837E2,9.638289452E0,-1.162911773E0,1.674975872E0
1.304287837E2,1.048056316E1,-1.244267747E-1,1.363908887E0
1.309287837E2,1.004506969E1,-8.662018180E-1,-1.292124242E-1
1.314287837E2,9.537791252E0,-1.253839016E0,1.100698411E-1
1.319287837E2,9.662218094E0,-1.751546144E0,-1.818545163E-1
1.324287837E2,9.016156197E0,-2.545963287E0,4.307080805E-2
1.329287837E2,9.035298347E0,-2.301895380E0,9.092725813E-2
1.334287837E2,1.023170948E1,-9.379864931E-1,5.168496966E-1
1.339287837E2,1.015035343E1,-1.507478237E0,5.551348329E-1
1.344287837E2,9.336793900E0,-1.526620865E0,-6.699903309E-2
1.349287837E2,1.019342422E1,-3.684946895E-1,-3.637090325E-1
1.354287837E2,1.000199890E1,-2.919243574E-1,-6.843472719E-1
1.359287837E2,9.499505997E0,-9.571290612E-1,1.339980662E-1
1.364287837E2,9.394221306E0,-1.622333765E0,-2.967100143E-1
1.369287837E2,1.091605663E1,-9.284151793E-1,-7.178468108E-1
1.374287837E2,8.772088051E0,-2.076970100E0,2.201396823E-1
1.379287837E2,1.054277611E1,1.627119422E0,-1.138983607E0
1.384287837E2,1.066241741E1,5.886343718E-1,-3.302095234E-1
1.389287837E2,8.628518105E0,-1.579262912E-1,-1.004985496E-1
1.394287837E2,1.005464077E1,3.014956415E-1,-6.939185858E-1
1.399287837E2,9.681360245E0,-3.014956415E-1,-2.297109663E-1
1.404287837E2,1.023170948E1,8.279166222E-1,-8.470591903E-1
1.409287837E2,9.643074989E0,1.292124242E-1,-5.838487148E-1
1.414287837E2,1.051406288E1,1.526620865E0,-9.571290612E-1
1.419287837E2,8.700303078E0,-4.689932466E-1,-1.914258152E-1
1.424287837E2,1.103091240E1,1.239482164E0,-9.714859724E-1
1.429287837E2,8.934800148E0,1.148554832E-1,-4.354937077E-1
1.434287837E2,1.049970531E1,7.609176040E-1,-6.891329288E-1
1.439287837E2,9.279366493E0,6.412764788E-1,-4.881358147E-1
1.444287837E2,9.887143135E0,3.780659735E-1,-6.843472719E-1
1.449287837E2,9.748359680E0,1.076770186E0,-8.997012973E-1
1.454287837E2,9.494720459E0,1.387837082E-1,-5.790630579E-1
1.459287837E2,1.020299530E1,1.325623751E0,-7.800601721E-1
1.464287837E2,9.394221306E0,1.483550072E-1,-6.652047038E-1
1.469287837E2,1.007856941E1,1.258624673E0,-8.039883971E-1
1.474287837E2,9.820143700E0,3.780659735E-1,-7.274180651E-1
1.479287837E2,9.791430473E0,1.048056364E0,-5.742774606E-1
1.484287837E2,9.566504478E0,1.866401732E-1,-6.843472719E-1
1.489287837E2,9.863214493E0,1.071984529E0,-7.082754970E-1
1.494287837E2,9.556933403E0,7.657032460E-2,-6.891329288E-1
1.499287837E2,9.963713646E0,1.014556766E0,-7.848458290E-1
1.504287837E2,9.451649666E0,1.435693651E-1,-7.082754970E-1
1.509287837E2,9.513862610E0,1.038485050E0,-8.853443861E-1
1.514287837E2,9.245866776E0,-7.178468257E-2,-4.642075896E-1
1.519287837E2,1.000199890E1,1.502692580E0,-7.944171429E-1
1.524287837E2,9.394221306E0,3.828516230E-2,-4.642075896E-1
1.529287837E2,9.992427826E0,1.296909928E0,-7.417750359E-1
1.534287837E2,9.552147865E0,8.614161611E-2,-5.312066078E-1
1.539287837E2,1.021256733E1,1.306481123E0,-1.033699393E0
1.544287837E2,9.083154678E0,-2.632105052E-1,-4.450650215E-1
1.549287837E2,1.066720295E1,1.450050473E0,-9.954141974E-1
1.554287837E2,8.872586250E0,-3.732803464E-1,-3.349951804E-1
1.559287837E2,1.078205872E1,1.531406522E0,-9.284151793E-1
1.564287837E2,8.551948547E0,-5.838487148E-1,-2.967100143E-1
1.569287837E2,1.026520920E1,7.322037220E-1,-8.327022791E-1
1.574287837E2,1.049970531E1,1.493121386E0,-1.119840980E0
1.579287837E2,8.432307243E0,-5.551348329E-1,-2.775674164E-1
1.584287837E2,1.135155106E1,1.694118381E0,-1.057627559E0
1.589287837E2,8.997013092E0,1.019342422E0,-5.407779217E-1
1.594287837E2,1.063848972E1,1.698904037E0,-8.805587292E-1
1.599287837E2,8.398807526E0,1.914258152E-1,-5.647061467E-1
1.604287837E2,9.786644936E0,2.359323025E0,-1.028913736E0
1.609287837E2,9.777072906E0,1.584048629E0,-9.236295223E-1
1.614287837E2,9.284152031E0,1.895115495E0,-1.775474429E0
1.619287837E2,9.949356079E0,2.167897224E0,-9.571290612E-1
1.624287837E2,9.528220177E0,1.564906001E0,-1.311266780E0
1.629287837E2,9.949356079E0,2.421536446E0,-8.039883971E-1
1.634287837E2,9.284152031E0,1.794616938E0,-1.339980721E0
1.639287837E2,8.748159409E0,2.349751949E0,-2.675175667E0
1.644287837E2,9.193224907E0,1.153340459E0,-1.071984529E0
1.649287837E2,9.054440498E0,1.368694544E0,-1.292124271E0
1.654287837E2,9.365508080E0,2.249253273E0,-1.765903115E0
1.659287837E2,1.083948612E1,1.354337573E0,-1.316052437E0
1.664287837E2,9.504291534E0,9.571290575E-3,-1.521835208E0
1.669287837E2,9.255437851E0,2.392822690E-2,-1.253839016E0
1.674287837E2,1.029870892E1,-3.349951655E-2,-1.253839016E0
1.679287837E2,1.005464077E1,6.939185858E-1,-8.422735929E-1
1.684287837E2,8.762516975E0,-1.722832322E-1,-1.450050473E0
1.689287837E2,1.046142101E1,8.135597110E-1,-1.531406492E-1
1.694287837E2,8.752944946E0,1.962114573E-1,-4.402793646E-1
1.699287837E2,9.332008362E0,1.028913736E0,-1.823330879E0
1.704287837E2,1.052841949E1,1.588834286E0,-4.785645287E-3
1.709287837E2,1.015992451E1,2.024327993E0,7.657032460E-2
1.714287837E2,1.077248764E1,1.689332843E0,1.162911773E0
1.719287837E2,9.250652313E0,1.167697430E0,2.488535494E-1
1.724287837E2,9.968499184E0,1.234696507E0,1.397408366E0
1.729287837E2,9.882357597E0,1.301695466E0,8.853443861E-1
1.734287837E2,1.026042366E1,1.287338614E0,1.067198873E0
1.739287837E2,1.048056316E1,9.332008362E-1,9.571290612E-1
1.744287837E2,9.418149948E0,-1.292124242E-1,-3.062812984E-1
1.749287837E2,9.939785004E0,4.307080805E-2,-9.236295223E-1
1.754287837E2,9.805787086E0,2.823530734E-1,-1.229910851E0
1.759287837E2,8.997013092E0,3.397808075E-1,-1.861616015E0
1.764287837E2,9.164510727E0,8.183453679E-1,-2.684746981E0
1.769287837E2,9.604789734E0,6.269195080E-1,-3.019742250E0
1.774287837E2,8.719446182E0,6.317051649E-1,-3.302095175E0
1.779287837E2,9.140582085E0,1.177268744E0,-4.144368649E0
1.784287837E2,8.949156761E0,1.598405480E0,-3.383451223E0
1.789287837E2,9.734002113E0,1.225125194E0,-3.627519131E0
1.794287837E2,8.982656479E0,1.186840057E0,-4.082155228E0
1.799287837E2,9.485149384E0,1.359123230E0,-3.751945972E0
1.804287837E2,9.020941734E0,1.569691658E0,-3.196810961E0
1.809287837E2,9.370293617E0,2.038684845E0,-3.235096216E0
1.814287837E2,9.470791817E0,1.995614052E0,-2.636890650E0
1.819287837E2,1.115533924E1,2.268395901E0,-1.718046665E0
1.824287837E2,7.719245911E0,1.473978758E0,-2.009970903E0
1.829287837E2,1.069113159E1,2.167897224E0,-8.470591903E-1
1.834287837E2,9.662218094E0,1.363908887E0,-1.177268744E0
1.839287837E2,1.050449181E1,1.383051515E0,-1.818545163E-1
1.844287837E2,8.848658562E0,1.521835208E0,-2.914458036E0
1.849287837E2,7.700103283E0,4.498506486E-1,-1.770688742E-1
1.854287837E2,9.561718941E0,9.427721500E-1,-2.919243574E-1
1.859287837E2,9.815358162E0,1.086341500E0,-1.952543259E0
1.864287837E2,7.599604607E0,-2.440679073E-1,-2.909672260E0
1.869287837E2,1.041356373E1,1.105484009E0,-7.082754970E-1
1.874287837E2,9.509077072E0,3.541377485E-1,-1.751546144E0
1.879287837E2,1.002114105E1,6.891329288E-1,-6.221339107E-1
1.884287837E2,9.690931320E0,4.259224236E-1,-4.881358147E-1
1.889287837E2,9.662218094E0,1.244267747E-1,-1.478764415E0
1.894287837E2,1.007856941E1,3.589234054E-1,-1.277767301E0
1.899287837E2,1.013121128E1,2.967100143E-1,-9.619147182E-1
1.904287837E2,9.556933403E0,-1.196411327E-1,-1.229910851E0
1.909287837E2,1.017906761E1,-8.614161611E-2,-9.475577474E-1
1.914287837E2,1.039920712E1,-4.402793646E-1,-1.110269666E0
1.919287837E2,9.116654396E0,-1.000199914E0,-1.292124271E0
1.924287837E2,1.032263660E1,-6.173482537E-1,-7.226324677E-1
1.929287837E2,8.839086533E0,-1.067198873E0,-8.374879360E-1
1.934287837E2,1.073420238E1,-2.105683982E-1,-5.934200287E-1
1.939287837E2,1.115533924E1,-2.536391914E-1,-7.417750359E-1
1.944287837E2,1.061456108E1,2.584248483E-1,-1.000199914E0
1.949287837E2,8.982656479E0,-1.531406522E0,-6.317051649E-1
1.954287837E2,1.072941685E1,-7.034898400E-1,-1.268195987E0
1.959287837E2,1.134676456E1,-7.178468257E-2,-9.523434043E-1
1.964287837E2,9.308079720E0,-9.284151793E-1,-6.556333899E-1
1.969287837E2,1.048056316E1,-7.465606928E-1,-8.039883971E-1
1.974287837E2,9.552147865E0,9.092725813E-2,-1.239482164E0
1.979287837E2,9.241081238E0,9.954141974E-1,-1.205982566E0
1.984287837E2,1.047577763E1,1.234696507E0,-1.540977836E0
1.989287837E2,8.451449394E0,-3.828516230E-2,-6.843472719E-1
1.994287837E2,1.112662506E1,1.517049551E0,-1.287338614E0
1.999287837E2,8.891729355E0,4.785645381E-2,-1.225125194E0
2.004287837E2,1.086820030E1,1.497906923E0,-1.019342422E0
2.009287837E2,8.121239662E0,-2.919243574E-1,-1.134197950E0
2.014287837E2,1.117926693E1,1.411765337E0,-1.598405480E0
2.019287837E2,8.350951195E0,0.000000000E0,-8.327022791E-1
2.024287837E2,1.077248764E1,1.143769264E0,-1.636690736E0
2.029287837E2,8.537590981E0,2.057827413E-1,-8.422735929E-1
2.034287837E2,1.063370419E1,1.091127157E0,-1.579262972E0
2.039287837E2,8.752944946E0,3.876372576E-1,-8.231309652E-1
2.044287837E2,1.056670475E1,1.019342422E0,-1.540977836E0
2.049287837E2,8.537590981E0,8.135596663E-2,-9.379864931E-1
2.054287837E2,1.079162979E1,1.191625714E0,-1.689332843E0
2.059287837E2,8.604590416E0,1.674975902E-1,-7.657032609E-1
2.064287837E2,1.081077290E1,1.234696507E0,-1.584048629E0
2.069287837E2,8.575876236E0,1.435693651E-1,-8.709874153E-1
2.074287837E2,1.075334454E1,1.177268744E0,-1.670190215E0
2.079287837E2,8.752944946E0,2.823530734E-1,-9.188438654E-1
2.084287837E2,1.073898792E1,1.244267821E0,-1.521835208E0
2.089287837E2,8.585447311E0,1.531406492E-1,-7.130611539E-1
2.094287837E2,1.086820030E1,1.272981644E0,-1.631905079E0
2.099287837E2,8.513663292E0,1.100698411E-1,-9.044869542E-1
2.104287837E2,1.082991505E1,1.272981644E0,-1.761117458E0
2.109287837E2,8.470592499E0,6.221338734E-2,-8.997012973E-1
2.114287837E2,1.065763187E1,1.191625714E0,-1.698904037E0
2.119287837E2,8.575876236E0,1.818545163E-1,-1.062413216E0
2.124287837E2,1.067677498E1,1.124626637E0,-1.607976794E0
2.129287837E2,8.590232849E0,2.201396823E-1,-9.762716293E-1
2.134287837E2,1.059541893E1,1.057627559E0,-1.588834286E0
2.139287837E2,8.662017822E0,2.201396823E-1,-9.044869542E-1
2.144287837E2,1.071506023E1,1.110269666E0,-1.526620865E0
2.149287837E2,8.944371223E0,4.737788737E-1,-8.614161611E-1
2.154287837E2,1.038485050E1,8.949156404E-1,-1.493121386E0
2.159287837E2,8.796015739E0,3.637090325E-1,-8.614161611E-1
2.164287837E2,1.051884842E1,1.052842021E0,-1.636690736E0
2.169287837E2,8.848658562E0,3.541377485E-1,-8.518448472E-1
2.174287837E2,1.069591713E1,1.196411371E0,-1.689332843E0
2.179287837E2,8.800801277E0,3.158525825E-1,-8.805587292E-1
2.184287837E2,1.046142101E1,9.571290612E-1,-1.703689694E0
2.189287837E2,8.604590416E0,1.818545163E-1,-9.906286001E-1
2.194287837E2,1.059541893E1,1.148554921E0,-1.789831281E0
2.199287837E2,8.863015175E0,4.402793646E-1,-9.475577474E-1
2.204287837E2,1.014556789E1,8.709874153E-1,-1.670190215E0
2.209287837E2,1.100698376E1,1.493121386E0,-1.349551916E0
2.214287837E2,8.638090134E0,3.302095234E-1,-6.939185858E-1
2.219287837E2,9.801001549E0,5.264210105E-1,-1.339980721E0
2.224287837E2,1.064806080E1,1.741974831E0,-1.502692580E0
2.229287837E2,1.045663452E1,1.785045743E0,-1.564906001E0
2.234287837E2,8.743373871E0,1.086341500E0,-1.655833244E0
2.239287837E2,9.805787086E0,1.938186288E0,-1.201196909E0
2.244287837E2,9.738788605E0,1.923829436E0,-9.284151793E-1
2.249287837E2,9.552147865E0,1.067198873E0,-5.742774606E-1
2.254287837E2,9.269794464E0,2.048256159E0,-1.775474429E0
2.259287837E2,9.336793900E0,2.431107759E0,-1.761117458E0
2.264287837E2,9.427721024E0,2.617748022E0,-1.344766378E0
2.269287837E2,9.379864693E0,2.804388046E0,-2.033899307E0
2.274287837E2,1.008335495E1,2.421536446E0,-1.162911773E0
2.279287837E2,1.010728264E1,1.761117458E0,-2.172683001E0
2.284287837E2,9.312865257E0,2.029113531E0,-1.545763373E0
2.289287837E2,9.537791252E0,1.966900229E0,-1.473978758E0
2.294287837E2,9.231510162E0,1.938186288E0,-1.344766378E0
2.299287837E2,9.375079155E0,1.129412293E0,-1.727617979E0
2.304287837E2,9.293723106E0,1.914258122E0,-2.526820660E0
2.309287837E2,9.547362328E0,2.076970100E0,-1.636690736E0
2.314287837E2,8.977870941E0,1.780260086E0,-1.837687731E0
2.319287837E2,1.002114105E1,1.895115495E0,-1.952543259E0
2.324287837E2,7.829315662E0,1.450050473E0,-2.263610125E0
2.329287837E2,9.652647018E0,2.660818815E0,-2.809173822E0
2.334287837E2,9.284152031E0,1.229910851E0,-2.469393015E0
2.339287837E2,8.551948547E0,-6.939185858E-1,-8.805587292E-1
2.344287837E2,9.667003632E0,1.550549030E0,-2.794816732E0
2.349287837E2,1.045663452E1,6.699903607E-1,-8.279166222E-1
2.354287837E2,9.207581520E0,1.143769264E0,-1.196411371E0
2.359287837E2,9.614361763E0,8.757730722E-1,-2.407179594E0
2.364287837E2,1.034656525E1,9.906286001E-1,-1.373480201E0
2.369287837E2,1.049491978E1,1.019342422E0,-2.096112728E0
2.374287837E2,8.188239098E0,-3.589234054E-1,-1.277767301E0
2.379287837E2,1.017428207E1,-1.962114573E-1,-1.421336651E0
2.384287837E2,9.068798065E0,-7.800601721E-1,-1.741974831E0
2.389287837E2,9.284152031E0,-9.092725813E-2,-2.005185366E0
2.394287837E2,1.060977554E1,5.886343718E-1,-1.832902193E0
2.399287837E2,1.083948612E1,1.148554921E0,-1.196411371E0
2.404287837E2,9.556933403E0,3.637090325E-1,-2.684746981E0
2.409287837E2,8.135597229E0,-6.221339107E-1,-2.038684845E0
2.414287837E2,9.561718941E0,3.014956415E-1,-2.431107759E0
2.419287837E2,9.480362892E0,6.795616150E-1,-3.091526747E0
2.424287837E2,9.408578873E0,6.604190469E-1,-3.637090445E0
2.429287837E2,8.767302513E0,1.368694544E0,-4.541577339E0
2.434287837E2,8.312665939E0,1.330409408E0,-4.771288395E0
2.439287837E2,8.566305161E0,9.858429432E-1,-4.771288395E0
2.444287837E2,8.767302513E0,1.722832322E0,-5.000999451E0
2.449287837E2,8.231309891E0,1.651047587E0,-5.029713154E0
2.454287837E2,6.192625046E0,7.944171429E-1,-6.139982700E0
2.459287837E2,8.834300995E0,1.339980721E0,-4.120440483E0
2.464287837E2,1.026520920E1,9.379864931E-1,-2.373680115E0
2.469287837E2,9.623932838E0,2.297109842E0,-4.546362877E0
2.474287837E2,9.226723671E0,2.096112728E0,-2.861815929E0
2.479287837E2,9.805787086E0,2.139183521E0,-2.670390129E0
2.484287837E2,1.006899738E1,2.086541414E0,-1.574477315E0
2.489287837E2,9.427721024E0,1.517049551E0,-2.191825628E0
2.494287837E2,1.003549862E1,1.574477315E0,-1.349551916E0
2.499287837E2,9.360722542E0,1.320838094E0,-1.268195987E0
2.504287837E2,9.379864693E0,1.737189293E0,-2.009970903E0
2.509287837E2,9.040083885E0,1.129412293E0,-1.459621787E0
2.514287837E2,9.312865257E0,9.762716293E-1,-1.679761529E0
2.519287837E2,9.781859398E0,9.427721500E-1,-1.076770186E0
2.524287837E2,9.556933403E0,5.168496966E-1,-1.048056364E0
2.529287837E2,9.829715729E0,7.992027402E-1,-6.125625968E-1
2.534287837E2,8.417949677E0,1.579262912E-1,-1.435693622E0
2.539287837E2,1.062891865E1,5.264210105E-1,-1.062413216E0
2.544287837E2,8.982656479E0,1.244267747E-1,-1.531406522E0
2.549287837E2,9.332008362E0,1.383051515E0,-1.406979680E0
2.554287837E2,9.049654961E0,1.038485050E0,-1.737189293E0
2.559287837E2,9.805787086E0,7.417750359E-1,-1.416550994E0
2.564287837E2,8.853444099E0,3.493520916E-1,-1.885544300E0
2.569287837E2,9.767501831E0,9.188438654E-1,-1.741974831E0
2.574287837E2,9.303294182E0,6.699903607E-1,-1.526620865E0
2.579287837E2,1.002592659E1,1.000199914E0,-1.617548108E0
2.584287837E2,9.734002113E0,1.186840057E0,-2.187039852E0
2.589287837E2,9.528220177E0,1.100698411E-1,-1.124626637E0
2.594287837E2,9.035298347E0,2.584248483E-1,-1.493121386E0
2.599287837E2,9.863214493E0,1.679761529E0,-2.134397745E0
2.604287837E2,9.375079155E0,8.901300430E-1,-2.210968018E0
2.609287837E2,9.475577354E0,7.082754970E-1,-2.153540373E0
2.614287837E2,8.944371223E0,-4.354937077E-1,-2.584248483E-1
2.619287837E2,1.018385315E1,1.512263894E0,-1.330409408E0
2.624287837E2,9.805787086E0,1.095912814E0,-1.890329838E0
2.629287837E2,9.446864128E0,9.906286001E-1,-2.110469580E0
2.634287837E2,9.499505997E0,7.322037220E-1,-1.866401672E0
2.639287837E2,1.008814049E1,1.459621787E0,-1.722832322E0
2.644287837E2,9.834501266E0,8.327022791E-1,-1.895115495E0
2.649287837E2,9.451649666E0,3.780659735E-1,-1.598405480E0
2.654287837E2,1.030827999E1,1.138983607E0,-2.297109842E0
2.659287837E2,1.058584690E1,1.531406492E-1,-1.627119422E0
2.664287837E2,9.494720459E0,-6.460621357E-1,-1.497906923E0
2.669287837E2,9.293723106E0,-5.072783828E-1,-1.971685886E0
2.674287837E2,8.767302513E0,-9.810572863E-1,-1.708475351E0
2.679287837E2,1.099741268E1,4.450650215E-1,-2.579462767E0
2.684287837E2,8.532805443E0,-7.034898400E-1,-2.167897224E0
2.689287837E2,1.008335495E1,8.662018180E-1,-3.771088600E0
2.694287837E2,8.839086533E0,-8.135596663E-2,-3.326023579E0
2.699287837E2,9.145368576E0,7.226324677E-1,-4.000799656E0
2.704287837E2,8.910871506E0,7.034898400E-1,-5.216353416E0
2.709287837E2,8.657232285E0,9.140582681E-1,-4.197010994E0
2.714287837E2,7.776673794E0,1.497906923E0,-4.579862595E0
2.719287837E2,8.666803360E0,1.167697430E0,-6.077769279E0
2.724287837E2,9.705288887E0,1.584048629E0,-3.814159393E0
2.729287837E2,8.417949677E0,1.287338614E0,-5.379065514E0
2.734287837E2,9.059226990E0,1.761117458E0,-3.713660717E0
2.739287837E2,8.480163574E0,1.737189293E0,-4.005585194E0
2.744287837E2,9.413364410E0,2.091326952E0,-2.895315409E0
2.749287837E2,9.485149384E0,1.229910851E0,-2.660818815E0
2.754287837E2,9.853643417E0,9.619147182E-1,-2.124826431E0
2.759287837E2,9.738788605E0,7.944171429E-1,-1.923829436E0
2.764287837E2,9.317651749E0,1.024128079E0,-2.292324066E0
2.769287837E2,1.052363396E1,1.320838094E0,-1.555334687E0
2.774287837E2,9.403793335E0,3.828516304E-1,-1.593619823E0
2.779287837E2,8.595019341E0,5.503492355E-1,-7.992027402E-1
2.784287837E2,8.839086533E0,8.614161611E-2,-1.789831281E0
2.789287837E2,8.231309891E0,-8.614161611E-2,-1.258624673E0
2.794287837E2,9.174081802E0,5.551348329E-1,-2.057827473E0
2.799287837E2,9.925428391E0,8.566305041E-1,-1.182054400E0
2.804287837E2,1.026999474E1,1.306481123E0,-7.609176040E-1
2.809287837E2,9.351150513E0,1.028913736E0,-6.364908218E-1
2.814287837E2,1.056191921E1,1.780260086E0,-9.810572863E-1
2.819287837E2,8.695517540E0,6.604190469E-1,-9.523434043E-1
2.824287837E2,9.643074989E0,1.545763373E0,-5.264210105E-1
2.829287837E2,1.117926693E1,2.354537487E0,-3.637090325E-1
2.834287837E2,1.004985523E1,2.215753794E0,1.177268744E0
2.839287837E2,9.461220741E0,2.038684845E0,-1.071984529E0
2.844287837E2,9.379864693E0,2.167897224E0,0.000000000E0
2.849287837E2,9.226723671E0,2.292324066E0,-5.790630579E-1
2.854287837E2,9.298508644E0,2.134397745E0,4.307080805E-2
2.859287837E2,9.422935486E0,2.139183521E0,-2.890529871E0
2.864287837E2,9.446864128E0,2.258824587E0,-1.698904037E0
2.869287837E2,1.005464077E1,2.072184324E0,-1.354337573E0
2.874287837E2,9.887143135E0,2.172683001E0,-2.129612207E0
2.879287837E2,9.667003632E0,1.497906923E0,-1.899901152E0
2.884287837E2,9.757930756E0,2.220539331E0,-2.091326952E0
2.889287837E2,9.231510162E0,9.140582681E-1,-2.445464849E0
2.894287837E2,1.014556789E1,4.785645306E-1,-2.373680115E0
2.899287837E2,9.016156197E0,6.891329288E-1,-3.014956474E0
2.904287837E2,9.561718941E0,4.450650215E-1,-2.124826431E0
2.909287837E2,9.131011009E0,-3.349951655E-2,-2.201396942E0
2.914287837E2,1.045663452E1,3.110669553E-1,-1.971685886E0
2.919287837E2,9.336793900E0,1.435693651E-1,-2.263610125E0
2.924287837E2,1.031785107E1,6.747759581E-1,-2.163111687E0
2.929287837E2,9.968499184E0,7.274180651E-1,-2.435893536E0
2.934287837E2,8.906085968E0,1.866401672E0,-3.196810961E0
2.939287837E2,9.059226990E0,1.550549030E0,-2.416750908E0
2.944287837E2,9.064012527E0,2.177468538E0,-3.005385160E0
2.949287837E2,9.183652878E0,2.167897224E0,-2.536391973E0
2.954287837E2,9.193224907E0,2.091326952E0,-2.258824587E0
2.959287837E2,9.633503914E0,2.924029350E0,-2.775674343E0
2.964287837E2,9.054440498E0,1.928615093E0,-2.522035122E0
2.969287837E2,8.547162056E0,1.957328916E0,-2.143969059E0
2.974287837E2,8.867800713E0,3.139383316E0,-3.440878868E0
2.979287837E2,9.054440498E0,2.335394859E0,-4.034298897E0
2.984287837E2,9.226723671E0,3.598805189E0,-4.307080746E0
2.989287837E2,1.015992451E1,2.268395901E0,-3.249453068E0
2.994287837E2,8.949156761E0,1.818545222E0,-3.603590965E0
2.999287837E2,9.896714211E0,1.545763373E0,-2.790031195E0
3.004287837E2,8.226524353E0,2.354537487E0,-3.268595695E0
3.009287837E2,8.853444099E0,1.871187329E0,-2.096112728E0
3.014287837E2,8.044670105E0,-5.407779217E-1,-1.756331801E0
3.019287837E2,9.877572060E0,1.526620865E0,-2.191825628E0
3.024287837E2,8.322237015E0,1.574477315E0,-3.139383316E0
3.029287837E2,9.877572060E0,1.253839016E0,-1.832902193E0
3.034287837E2,9.820143700E0,1.272981644E0,-1.631905079E0
3.039287837E2,8.240880966E0,1.818545222E0,-2.560320139E0
3.044287837E2,1.005464077E1,1.665404558E0,-2.273181438E0
3.049287837E2,8.556734085E0,6.843472719E-1,-2.612962246E0
3.054287837E2,1.025085258E1,9.332008362E-1,-1.593619823E0
3.059287837E2,8.882157326E0,1.339980662E-1,-1.598405480E0
3.064287837E2,9.705288887E0,6.125625968E-1,-2.708675146E0
3.069287837E2,9.068798065E0,-1.722832322E-1,-1.641476393E0
3.074287837E2,7.398607731E0,-1.258624673E0,-9.044869542E-1
3.079287837E2,1.351466274E1,-9.571290575E-3,-3.292523861E0
3.084287837E2,7.791030407E0,-1.249053478E0,-8.087740541E-1
3.089287837E2,1.029870892E1,-1.028913736E0,-2.809173822E0
3.094287837E2,9.590433121E0,-5.216353536E-1,-2.019542217E0
3.099287837E2,1.035135078E1,-8.231309652E-1,-2.459821701E0
3.104287837E2,8.800801277E0,-9.762716293E-1,-2.081755638E0
3.109287837E2,9.379864693E0,-1.627119422E0,-1.316052437E0
3.114287837E2,8.700303078E0,-1.354337573E0,-1.531406522E0
3.119287837E2,1.155254745E1,1.435693540E-2,-1.292124271E0
3.124287837E2,8.666803360E0,-1.679761529E0,-1.651047587E0
3.129287837E2,1.080120182E1,-6.891329288E-1,-1.718046665E0
3.134287837E2,8.480163574E0,-2.033899307E0,-8.853443861E-1
3.139287837E2,9.006584167E0,-1.770688772E0,-1.301695466E0
3.144287837E2,1.097827053E1,-7.322037220E-1,-2.038684845E0
3.149287837E2,9.915857315E0,-9.714859724E-1,-1.708475351E0
3.154287837E2,9.355937004E0,3.780659735E-1,-1.942971945E0
3.159287837E2,8.279166222E0,6.077769399E-1,-1.885544300E0
3.164287837E2,9.734002113E0,1.067198873E0,-1.990828395E0
3.169287837E2,1.086820030E1,9.667003751E-1,-1.808973908E0
3.174287837E2,7.872386456E0,-1.483550072E-1,-1.411765337E0
3.179287837E2,1.102612686E1,1.445264935E0,-2.206182480E0
3.184287837E2,8.255238533E0,-2.679961324E-1,-1.215553880E0
3.189287837E2,1.128933716E1,1.440479279E0,-2.196611166E0
3.194287837E2,8.298309326E0,1.770688742E-1,-1.368694544E0
3.199287837E2,1.019820976E1,7.178468108E-1,-1.837687731E0
3.204287837E2,9.346364975E0,7.896314859E-1,-1.856830359E0
3.209287837E2,9.274580956E0,1.292124242E-1,-1.684547186E0
3.214287837E2,9.762716293E0,8.135597110E-1,-1.698904037E0
3.219287837E2,9.489934921E0,2.344966233E-1,-1.722832322E0
3.224287837E2,9.796216011E0,7.704889178E-1,-1.808973908E0
3.229287837E2,9.217152596E0,9.092725813E-2,-1.646261930E0
3.234287837E2,1.018385315E1,1.033699393E0,-1.904686809E0
3.239287837E2,8.800801277E0,-1.052841991E-1,-1.636690736E0
3.244287837E2,1.064327526E1,1.148554921E0,-1.986042738E0
3.249287837E2,8.322237015E0,-2.488535494E-1,-1.622333765E0
3.254287837E2,1.126062298E1,1.555334687E0,-2.187039852E0
3.259287837E2,8.279166222E0,1.818545163E-1,-1.493121386E0
3.264287837E2,9.346364975E0,2.871387303E-1,-1.689332843E0
3.269287837E2,9.303294182E0,1.000199914E0,-1.871187329E0
3.274287837E2,8.566305161E0,8.853443861E-1,-1.971685886E0
3.279287837E2,9.169296265E0,2.220539331E0,-2.321038008E0
3.284287837E2,9.355937004E0,2.215753794E0,-2.770888567E0
3.289287837E2,9.351150513E0,1.392622828E0,-2.215753794E0
3.294287837E2,9.379864693E0,1.689332843E0,-1.871187329E0
3.299287837E2,9.753145218E0,1.962114573E0,-2.225325108E0
3.304287837E2,9.537791252E0,2.249253273E0,-1.919043779E0
3.309287837E2,8.685946465E0,2.014756680E0,-2.182254314E0
3.314287837E2,8.719446182E0,1.770688772E0,-4.086941242E0
3.319287837E2,9.968499184E0,1.933400750E0,-2.411965132E0
3.324287837E2,9.183652878E0,1.263410330E0,-2.431107759E0
3.329287837E2,8.815158844E0,8.422735929E-1,-2.593819857E0
3.334287837E2,8.839086533E0,1.316052437E0,-3.622733593E0
3.339287837E2,1.012164021E1,1.636690736E0,-2.163111687E0
3.344287837E2,8.690732002E0,6.843472719E-1,-2.684746981E0
3.349287837E2,9.523433685E0,1.282552958E0,-3.172882795E0
3.354287837E2,9.863214493E0,1.052842021E0,-3.244667530E0
3.359287837E2,9.489934921E0,-7.417750359E-1,-2.938386202E0
3.364287837E2,1.008814049E1,-1.531406492E-1,-2.364108801E0
3.369287837E2,1.030349445E1,-4.307080805E-1,-1.789831281E0
3.374287837E2,9.863214493E0,-1.177268744E0,-1.751546144E0
3.379287837E2,1.024128056E1,-8.614161611E-1,-2.225325108E0
3.384287837E2,9.217152596E0,-1.201196909E0,-2.177468538E0
3.389287837E2,1.037049294E1,-5.407779217E-1,-1.856830359E0
3.394287837E2,9.762716293E0,1.196411371E0,-2.301895380E0
3.399287837E2,9.734002113E0,-3.541377485E-1,-1.641476393E0
3.404287837E2,9.978070259E0,1.325623751E0,-9.619147182E-1
3.409287837E2,8.408378601E0,1.593619823E0,-2.488535643E0
3.414287837E2,9.604789734E0,1.488335729E0,-1.598405480E0
3.419287837E2,1.062413216E1,2.177468538E0,-4.019941986E-1
3.424287837E2,9.619147301E0,1.818545222E0,-4.307080805E-2
3.429287837E2,9.509077072E0,2.603390932E0,1.914258152E-1
3.434287837E2,1.012164021E1,2.263610125E0,-3.014956415E-1
3.439287837E2,1.021735287E1,2.076970100E0,-4.307080805E-1
3.444287837E2,9.863214493E0,1.316052437E0,-4.067798555E-1
3.449287837E2,1.138026428E1,1.325623751E0,-1.009771109E0
3.454287837E2,9.753145218E0,8.135597110E-1,-4.881358147E-1
3.459287837E2,9.461220741E0,1.196411371E0,-1.837687731E0
3.464287837E2,9.202795982E0,1.177268744E0,-1.832902193E0
3.469287837E2,1.042792130E1,2.100898266E0,-2.397608280E0
3.474287837E2,9.389435768E0,1.287338614E0,-1.751546144E0
3.479287837E2,8.906085968E0,1.043270707E0,-2.081755638E0
3.484287837E2,1.019342422E1,1.497906923E0,-2.029113531E0
3.489287837E2,9.623932838E0,1.172483087E0,-2.029113531E0
3.494287837E2,9.241081238E0,9.619147182E-1,-2.148754835E0
3.499287837E2,1.004506969E1,1.339980721E0,-2.043470621E0
3.504287837E2,9.705288887E0,9.044869542E-1,-2.158325911E0
3.509287837E2,9.217152596E0,8.566305041E-1,-2.100898266E0
3.514287837E2,1.011685371E1,1.296909928E0,-3.086741209E0
3.519287837E2,8.566305161E0,9.092725813E-2,-1.828116536E0
3.524287837E2,9.341579437E0,4.307080805E-1,-3.627519131E0
3.529287837E2,8.939585686E0,5.455635786E-1,-1.923829436E0
3.534287837E2,1.006421185E1,8.709874153E-1,-1.785045743E0
3.539287837E2,8.863015175E0,3.780659735E-1,-2.416750908E0
3.544287837E2,8.054241180E0,-2.153540403E-1,-3.775874138E0
3.549287837E2,1.087298584E1,6.556333899E-1,-6.843472719E-1
3.554287837E2,8.441878319E0,1.435693540E-2,-2.354537487E0
3.559287837E2,1.029870892E1,-5.503492355E-1,-2.388036966E0
3.564287837E2,8.681160927E0,-9.332008362E-1,-2.335394859E0
3.569287837E2,1.057627583E1,5.168496966E-1,-2.598605394E0
3.574287837E2,9.394221306E0,3.349951655E-2,-2.550748825E0
3.579287837E2,9.662218094E0,-6.939185858E-1,-2.727817774E0
3.584287837E2,9.997213364E0,2.679961324E-1,-2.861815929E0
3.589287837E2,8.236095428E0,-2.679961324E-1,-3.153740168E0
3.594287837E2,1.011685371E1,1.148554921E0,-3.723232031E0
3.599287837E2,1.002592659E1,9.475577474E-1,-3.474378586E0
3.604287837E2,8.087740898E0,6.747759581E-1,-3.192025423E0
3.609287837E2,9.288937569E0,1.028913736E0,-3.010170937E0
3.614287837E2,9.657432556E0,1.373480201E0,-2.378465652E0
3.619287837E2,9.370293617E0,1.277767301E0,-1.708475351E0
3.624287837E2,9.073583603E0,1.339980721E0,-1.574477315E0
3.629287837E2,9.456435204E0,1.708475351E0,-1.914258122E0
3.634287837E2,9.863214493E0,1.971685886E0,-1.823330879E0
3.639287837E2,8.212167740E0,1.512263894E0,-3.814159393E0
3.644287837E2,9.705288887E0,2.340180635E0,-2.809173822E0
3.649287837E2,9.824930191E0,2.258824587E0,-3.010170937E0
3.654287837E2,9.829715729E0,1.119840980E0,-2.340180635E0
3.659287837E2,9.489934921E0,1.277767301E0,-2.818745136E0
3.664287837E2,9.107083321E0,5.982056856E-1,-2.703889608E0
3.669287837E2,9.327222824E0,5.359922647E-1,-2.818745136E0
3.674287837E2,9.638289452E0,6.412764788E-1,-1.890329838E0
3.679287837E2,1.011685371E1,4.785645381E-2,-2.033899307E0
3.684287837E2,9.308079720E0,-1.196411327E-1,-2.962314367E0
3.689287837E2,9.437292099E0,-9.858429432E-1,-2.081755638E0
3.694287837E2,9.198010445E0,-3.493520916E-1,-2.718246460E0
3.699287837E2,9.992427826E0,9.571290761E-2,-2.943171740E0
3.704287837E2,8.953942299E0,-1.507478237E0,-2.589034081E0
3.709287837E2,9.547362328E0,-1.052842021E0,-2.029113531E0
3.714287837E2,8.949156761E0,-7.704889178E-1,-1.895115495E0
3.719287837E2,8.934800148E0,-1.919043779E0,-1.727617979E0
3.724287837E2,1.077727318E1,-7.896314859E-1,-2.335394859E0
3.729287837E2,8.848658562E0,-1.110269666E0,-2.187039852E0
3.734287837E2,8.815158844E0,1.526620865E0,-2.373680115E0
3.739287837E2,8.456234932E0,4.402793646E-1,-2.426322222E0
3.744287837E2,1.057627583E1,1.182054400E0,-2.522035122E0
3.749287837E2,9.561718941E0,8.470591903E-1,-2.421536446E0
3.754287837E2,9.260223389E0,1.153340459E0,-1.545763373E0
3.759287837E2,9.547362328E0,1.009771109E0,-1.607976794E0
3.764287837E2,1.015035343E1,1.804188251E0,-1.660618901E0
3.769287837E2,9.016156197E0,4.881358147E-1,-1.607976794E0
3.774287837E2,1.045663452E1,1.507478237E0,-2.282752752E0
3.779287837E2,8.422736168E0,3.445664644E-1,-1.732403636E0
3.784287837E2,1.067198944E1,1.531406522E0,-2.474178553E0
3.789287837E2,8.264809608E0,3.780659735E-1,-1.828116536E0
3.794287837E2,1.063848972E1,1.660618901E0,-2.684746981E0
3.799287837E2,8.279166222E0,4.211367965E-1,-1.674975872E0
3.804287837E2,1.057627583E1,1.560120344E0,-2.569891453E0
3.809287837E2,8.317451477E0,3.876372576E-1,-1.660618901E0
3.814287837E2,1.055234814E1,1.584048629E0,-2.732603550E0
3.819287837E2,8.126026154E0,4.977070987E-1,-1.899901152E0
3.824287837E2,1.049491978E1,1.488335729E0,-2.560320139E0
3.829287837E2,8.216953278E0,4.498506486E-1,-1.804188251E0
3.834287837E2,1.041356373E1,1.406979680E0,-2.689532757E0
3.839287837E2,8.427521706E0,9.475577474E-1,-2.033899307E0
3.844287837E2,9.638289452E0,1.115055323E0,-2.636890650E0
3.849287837E2,9.614361763E0,1.651047587E0,-2.196611166E0
3.854287837E2,9.566504478E0,8.853443861E-1,-2.120040894E0
3.859287837E2,1.029870892E1,2.096112728E0,-2.837887764E0
3.864287837E2,8.882157326E0,1.794616938E0,-2.536391973E0
3.869287837E2,9.332008362E0,1.550549030E0,-2.488535643E0
3.874287837E2,9.006584167E0,1.818545222E0,-2.469393015E0
3.879287837E2,1.009292603E1,2.086541414E0,-2.306680918E0
3.884287837E2,8.585447311E0,1.741974831E0,-2.459821701E0
3.889287837E2,8.810373306E0,1.770688772E0,-2.679961443E0
3.894287837E2,9.939785004E0,1.751546144E0,-1.962114573E0
3.899287837E2,9.499505997E0,2.517249346E0,-2.316252232E0
3.904287837E2,9.686145782E0,1.607976794E0,-2.364108801E0
3.909287837E2,8.934800148E0,2.550748825E0,-3.077169895E0
3.914287837E2,9.533005714E0,2.469393015E0,-3.010170937E0
3.919287837E2,8.494520187E0,1.804188251E0,-2.775674343E0
3.924287837E2,8.427521706E0,2.086541414E0,-2.742174864E0
3.929287837E2,9.212367058E0,2.201396942E0,-3.527020693E0
3.934287837E2,9.269794464E0,2.096112728E0,-3.426522017E0
3.939287837E2,9.198010445E0,1.521835208E0,-2.890529871E0
3.944287837E2,9.796216011E0,2.076970100E0,-2.971885681E0
3.949287837E2,9.288937569E0,1.737189293E0,-2.828316450E0
3.954287837E2,8.063812256E0,2.244467735E0,-3.713660717E0
3.959287837E2,8.193024635E0,2.053041935E0,-3.728017569E0
3.964287837E2,8.078168869E0,2.182254314E0,-3.641875982E0
3.969287837E2,9.801001549E0,2.120040894E0,-3.038884640E0
3.974287837E2,8.982656479E0,1.914258122E0,-3.096312523E0
3.979287837E2,9.212367058E0,1.622333765E0,-3.163311481E0
3.984287837E2,9.370293617E0,2.713460922E0,-3.134597778E0
3.989287837E2,1.049491978E1,2.033899307E0,-2.708675146E0
3.994287837E2,9.083154678E0,1.349551916E0,-3.723232031E0
3.999287837E2,8.930013657E0,1.143769264E0,-3.086741209E0
4.004287837E2,9.068798065E0,9.092726111E-1,-3.225524902E0
4.009287837E2,8.767302513E0,1.004985452E0,-2.909672260E0
4.014287837E2,9.834501266E0,1.220339537E0,-3.450450182E0
4.019287837E2,9.633503914E0,1.636690736E0,-3.086741209E0
4.024287837E2,9.963713646E0,1.210768223E0,-2.244467735E0
4.029287837E2,9.399007797E0,1.579262972E0,-1.799402595E0
4.034287837E2,9.121439934E0,1.344766378E0,-2.584248543E0
4.039287837E2,9.738788605E0,1.962114573E0,-1.043270707E0
4.044287837E2,1.013599682E1,1.703689694E0,-1.689332843E0
4.049287837E2,7.834101200E0,7.417750359E-1,-1.531406522E0
4.054287837E2,9.178867340E0,1.545763373E0,-2.402393818E0
4.059287837E2,8.126026154E0,1.201196909E0,-3.388236761E0
4.064287837E2,1.049491978E1,2.359323025E0,-3.163311481E0
4.069287837E2,6.025127411E0,9.810572863E-1,-4.110869408E0
4.074287837E2,8.197810173E0,1.497906923E0,-4.565505505E0
4.079287837E2,9.178867340E0,2.665604353E0,-3.460021496E0
4.084287837E2,9.609575272E0,2.493321180E0,-3.297309637E0
4.089287837E2,8.360522270E0,2.321038008E0,-4.493721008E0
4.094287837E2,9.370293617E0,2.143969059E0,-4.053441525E0
4.099287837E2,9.523433685E0,1.354337573E0,-3.962514400E0
4.104287837E2,1.017906761E1,1.665404558E0,-3.728017569E0
4.109287837E2,8.260024071E0,1.239482164E0,-3.565305710E0
4.114287837E2,9.595218658E0,1.890329838E0,-3.546163082E0
4.119287837E2,8.705088615E0,1.679761529E0,-3.555734396E0
4.124287837E2,9.628718376E0,2.009970903E0,-2.029113531E0
4.129287837E2,8.992227554E0,1.488335729E0,-1.933400750E0
4.134287837E2,9.384650230E0,2.100898266E0,-1.124626637E0
4.139287837E2,1.075334454E1,2.187039852E0,-1.043270707E0
4.144287837E2,9.489934921E0,2.019542217E0,-6.987041831E-1
4.149287837E2,1.004985523E1,2.344966173E0,-1.244267821E0
4.154287837E2,9.513862610E0,1.746760488E0,-8.470591903E-1
4.159287837E2,9.308079720E0,1.938186288E0,-8.662018180E-1
4.164287837E2,1.040877819E1,2.656033039E0,-2.775674164E-1
4.169287837E2,9.810572624E0,2.325823545E0,-9.571290575E-3
4.174287837E2,9.796216011E0,2.584248543E0,-1.057627559E0
4.179287837E2,9.868000984E0,2.316252232E0,-6.364908218E-1
4.184287837E2,9.202795982E0,2.210968018E0,-5.742774159E-2
4.189287837E2,8.848658562E0,1.914258122E0,-1.019342422E0
4.194287837E2,9.097511292E0,2.368894339E0,-7.896314859E-1
4.199287837E2,8.992227554E0,2.120040894E0,-2.134397745E0
4.204287837E2,9.207581520E0,2.325823545E0,-1.636690736E0
4.209287837E2,9.332008362E0,2.766103029E0,-1.895115495E0
4.214287837E2,9.915857315E0,2.813959360E0,-2.612962246E0
4.219287837E2,9.303294182E0,2.876172781E0,-4.240081787E0
4.224287837E2,1.002592659E1,2.297109842E0,-1.895115495E0
4.229287837E2,9.293723106E0,2.354537487E0,-3.818944931E0
4.234287837E2,9.552147865E0,2.187039852E0,-2.325823545E0
4.239287837E2,1.018863869E1,2.584248543E0,-2.847458839E0
4.244287837E2,7.939385414E0,1.718046665E0,-3.014956474E0
4.249287837E2,9.489934921E0,2.177468538E0,-2.517249346E0
4.254287837E2,9.073583603E0,1.483550072E0,-2.947957516E0
4.259287837E2,9.724431038E0,1.272981644E0,-2.555534601E0
4.264287837E2,9.489934921E0,1.473978758E0,-3.254238844E0
4.269287837E2,9.384650230E0,1.627119422E0,-3.938585997E0
4.274287837E2,8.159524918E0,1.311266780E0,-4.785645485E0
4.279287837E2,9.403793335E0,2.091326952E0,-3.914657831E0
4.284287837E2,8.819944382E0,1.378265858E0,-4.345366001E0
4.289287837E2,8.992227554E0,1.986042738E0,-4.532006264E0
4.294287837E2,8.666803360E0,1.445264935E0,-4.737788677E0
4.299287837E2,9.006584167E0,1.660618901E0,-4.331008911E0
4.304287837E2,9.169296265E0,1.832902193E0,-4.512863636E0
4.309287837E2,9.016156197E0,1.579262972E0,-4.254438877E0
4.314287837E2,8.992227554E0,1.651047587E0,-4.436293125E0
4.319287837E2,7.881958008E0,1.430907965E0,-5.316852093E0
4.324287837E2,8.810373306E0,1.971685886E0,-4.508078098E0
4.329287837E2,8.116454124E0,1.411765337E0,-5.029713154E0
4.334287837E2,8.489734650E0,1.473978758E0,-4.412364960E0
4.339287837E2,9.006584167E0,2.421536446E0,-5.020142078E0
4.344287837E2,7.934599876E0,1.531406522E0,-5.010570526E0
4.349287837E2,8.642875671E0,1.813759565E0,-4.986642361E0
4.354287837E2,8.748159409E0,1.617548108E0,-4.441078663E0
4.359287837E2,9.212367058E0,2.086541414E0,-4.426722050E0
4.364287837E2,8.829515457E0,2.062613010E0,-4.761716843E0
4.369287837E2,8.786444664E0,1.794616938E0,-4.934000492E0
4.374287837E2,8.977870941E0,1.521835208E0,-4.139583111E0
4.379287837E2,7.910671711E0,9.810572863E-1,-4.302295208E0
4.384287837E2,8.355736732E0,1.287338614E0,-4.230510235E0
4.389287837E2,8.566305161E0,1.493121386E0,-3.766302824E0
4.394287837E2,8.786444664E0,1.617548108E0,-3.665804386E0
4.399287837E2,9.116654396E0,1.679761529E0,-3.125026464E0
4.404287837E2,1.039920712E1,1.818545222E0,-2.335394859E0
4.409287837E2,9.576076508E0,5.934200287E-1,-2.828316450E0
4.414287837E2,8.298309326E0,6.699903309E-2,-2.780459881E0
4.419287837E2,9.882357597E0,9.667003751E-1,-3.043670416E0
4.424287837E2,9.413364410E0,7.274180651E-1,-2.823530674E0
4.429287837E2,8.585447311E0,-5.264209956E-2,-2.589034081E0
4.434287837E2,1.040399265E1,7.561319470E-1,-2.742174864E0
4.439287837E2,8.446663857E0,-3.780659735E-1,-2.589034081E0
4.444287837E2,1.049970531E1,1.000199914E0,-2.967100143E0
4.449287837E2,9.930213928E0,8.853443861E-1,-2.354537487E0
4.454287837E2,8.370093346E0,2.057827413E-1,-2.612962246E0
4.459287837E2,9.958928108E0,8.662018180E-1,-2.598605394E0
4.464287837E2,8.087740898E0,6.221338734E-2,-2.359323025E0
4.469287837E2,9.657432556E0,2.565105915E0,-2.914458036E0
4.474287837E2,8.695517540E0,1.258624673E0,-2.871387243E0
4.479287837E2,8.781659126E0,1.746760488E0,-2.679961443E0
4.484287837E2,1.016471100E1,2.450250387E0,-2.909672260E0
4.489287837E2,7.877171993E0,1.172483087E0,-2.593819857E0
4.494287837E2,1.001635551E1,2.416750908E0,-3.048455954E0
4.499287837E2,8.398807526E0,1.617548108E0,-2.541177750E0
4.504287837E2,9.389435768E0,1.737189293E0,-2.622533560E0
4.509287837E2,9.781859398E0,2.364108801E0,-2.431107759E0
4.514287837E2,8.547162056E0,1.071984529E0,-2.569891453E0
4.519287837E2,1.019342422E1,2.569891453E0,-2.574677229E0
4.524287837E2,8.288737297E0,9.140582681E-1,-2.459821701E0
4.529287837E2,1.016949654E1,2.493321180E0,-2.603390932E0
4.534287837E2,8.087740898E0,9.906286001E-1,-2.407179594E0
4.539287837E2,1.011206818E1,2.493321180E0,-2.541177750E0
4.544287837E2,8.173882484E0,1.000199914E0,-2.612962246E0
4.549287837E2,1.055234814E1,2.804388046E0,-2.766103029E0
4.554287837E2,8.422736168E0,1.579262972E0,-2.493321180E0
4.559287837E2,8.843872070E0,1.253839016E0,-2.703889608E0
4.564287837E2,1.048534870E1,2.589034081E0,-3.067598581E0
4.569287837E2,9.236295700E0,2.555534601E0,-3.000599623E0
4.574287837E2,9.198010445E0,2.837887764E0,-3.187239647E0
4.579287837E2,9.528220177E0,3.412165165E0,-2.995813847E0
4.584287837E2,7.915457249E0,2.426322222E0,-2.756531715E0
4.589287837E2,9.848857880E0,3.029313564E0,-2.517249346E0
4.594287837E2,8.609375954E0,3.034099102E0,-3.158525944E0
4.599287837E2,9.403793335E0,2.866601467E0,-2.995813847E0
4.604287837E2,8.446663857E0,3.196810961E0,-3.144168854E0
4.609287837E2,9.111868858E0,3.034099102E0,-3.038884640E0
4.614287837E2,8.647661209E0,3.163311481E0,-2.981456995E0
4.619287837E2,9.274580956E0,2.478964329E0,-2.531606436E0
4.624287837E2,8.197810173E0,2.545963287E0,-3.268595695E0
4.629287837E2,8.939585686E0,2.435893536E0,-3.034099102E0
4.634287837E2,9.394221306E0,2.952743053E0,-2.919243574E0
4.639287837E2,9.255437851E0,2.273181438E0,-2.512463808E0
4.644287837E2,8.346165657E0,2.091326952E0,-2.694318295E0
4.649287837E2,9.355937004E0,2.727817774E0,-2.780459881E0
4.654287837E2,9.226723671E0,3.101098061E0,-2.775674343E0
4.659287837E2,9.915857315E0,2.225325108E0,-3.005385160E0
4.664287837E2,9.480362892E0,2.325823545E0,-2.019542217E0
4.669287837E2,7.719245911E0,2.081755638E0,-2.426322222E0
4.674287837E2,9.571290970E0,2.641676188E0,-2.110469580E0
4.679287837E2,9.217152596E0,2.804388046E0,-2.249253273E0
4.684287837E2,1.026999474E1,3.359523058E0,-1.067198873E0
4.689287837E2,7.580461979E0,1.727617979E0,-2.172683001E0
4.694287837E2,1.020778179E1,2.435893536E0,-2.593819857E0
4.699287837E2,9.777072906E0,2.445464849E0,-3.115455151E0
4.704287837E2,8.580661774E0,2.421536446E0,-3.436093330E0
4.709287837E2,9.226723671E0,2.234896421E0,-3.014956474E0
4.714287837E2,9.260223389E0,2.000399828E0,-2.890529871E0
4.719287837E2,9.446864128E0,1.842473388E0,-3.034099102E0
4.724287837E2,9.523433685E0,2.177468538E0,-3.426522017E0
4.729287837E2,8.365307808E0,1.469193101E0,-2.967100143E0
4.734287837E2,8.662017822E0,1.684547186E0,-3.397808075E0
4.739287837E2,9.418149948E0,2.086541414E0,-2.488535643E0
4.744287837E2,9.370293617E0,1.641476393E0,-3.120240688E0
4.749287837E2,9.231510162E0,2.014756680E0,-3.062813044E0
4.754287837E2,8.882157326E0,1.828116536E0,-3.383451223E0
4.759287837E2,9.370293617E0,1.981257200E0,-3.091526747E0
4.764287837E2,9.327222824E0,1.660618901E0,-3.259024382E0
4.769287837E2,9.446864128E0,1.952543259E0,-2.239681959E0
4.774287837E2,8.901300430E0,1.569691658E0,-3.311666489E0
4.779287837E2,8.279166222E0,1.402194023E0,-3.742374659E0
4.784287837E2,9.293723106E0,2.273181438E0,-3.225524902E0
4.789287837E2,9.853643417E0,2.148754835E0,-2.531606436E0
4.794287837E2,8.173882484E0,1.445264935E0,-3.077169895E0
4.799287837E2,9.255437851E0,1.847259045E0,-3.268595695E0
4.804287837E2,9.355937004E0,1.875972986E0,-3.134597778E0
4.809287837E2,8.839086533E0,1.536192179E0,-2.426322222E0
4.814287837E2,8.896514893E0,1.306481123E0,-2.359323025E0
4.819287837E2,9.288937569E0,2.258824587E0,-1.737189293E0
4.824287837E2,9.901499748E0,1.689332843E0,-2.383251429E0
4.829287837E2,9.743574142E0,2.000399828E0,-2.512463808E0
4.834287837E2,9.092725754E0,1.679761529E0,-4.115654945E0
4.839287837E2,8.800801277E0,1.813759565E0,-4.230510235E0
4.844287837E2,9.647860527E0,2.263610125E0,-4.273581028E0
4.849287837E2,7.637889862E0,1.421336651E0,-4.024727821E0
4.854287837E2,9.513862610E0,2.459821701E0,-4.522434711E0
4.859287837E2,8.260024071E0,1.215553880E0,-4.594219685E0
4.864287837E2,8.513663292E0,2.081755638E0,-5.297709465E0
4.869287837E2,7.192824841E0,1.349551916E0,-5.584847927E0
4.874287837E2,8.920442581E0,2.560320139E0,-5.182853699E0
4.879287837E2,7.302894592E0,1.502692580E0,-4.780859470E0
4.884287837E2,7.551748276E0,2.368894339E0,-4.240081787E0
4.889287837E2,6.623332977E0,1.335195065E0,-4.436293125E0
4.894287837E2,9.049654961E0,1.957328916E0,-4.182653904E0
4.899287837E2,7.168896675E0,1.780260086E0,-4.340580463E0
4.904287837E2,6.953542709E0,1.756331801E0,-4.182653904E0
4.909287837E2,5.584847927E0,5.790630579E-1,-4.546362877E0
4.914287837E2,9.288937569E0,3.847658873E0,-3.838087559E0
4.919287837E2,9.714859962E0,4.077369690E0,-3.646661758E0
4.924287837E2,8.073383331E0,2.115255117E0,-3.278167009E0
4.929287837E2,9.308079720E0,3.330809116E0,-3.254238844E0
4.934287837E2,8.810373306E0,2.813959360E0,-3.440878868E0
4.939287837E2,8.336593628E0,1.550549030E0,-2.981456995E0
4.944287837E2,9.595218658E0,2.857030153E0,-3.091526747E0
4.949287837E2,8.566305161E0,2.067398787E0,-3.345165968E0
4.954287837E2,9.332008362E0,2.512463808E0,-3.522234917E0
4.959287837E2,8.499305725E0,2.445464849E0,-2.574677229E0
4.964287837E2,9.121439934E0,2.268395901E0,-3.890729666E0
4.969287837E2,8.839086533E0,1.416550994E0,-3.278167009E0
4.974287837E2,9.059226990E0,1.966900229E0,-3.890729666E0
4.979287837E2,9.480362892E0,1.818545222E0,-3.273381472E0
4.984287837E2,8.336593628E0,1.497906923E0,-2.880958557E0
4.989287837E2,9.207581520E0,1.990828395E0,-3.627519131E0
4.994287837E2,9.681360245E0,2.388036966E0,-2.612962246E0
4.999287837E2,8.724231720E0,1.646261930E0,-2.967100143E0
5.004287837E2,8.279166222E0,1.167697430E0,-2.794816732E0
5.009287837E2,8.810373306E0,1.067198873E0,-2.900100946E0
5.014287837E2,9.753145218E0,2.105684042E0,-2.833101988E0
5.019287837E2,1.018863869E1,2.833101988E0,-2.914458036E0
5.024287837E2,8.370093346E0,1.670190215E0,-1.990828395E0
5.029287837E2,9.844072342E0,2.478964329E0,-2.091326952E0
5.034287837E2,9.714859962E0,2.459821701E0,-1.603191137E0
5.039287837E2,9.528220177E0,2.407179594E0,-1.335195065E0
5.044287837E2,8.757730484E0,1.770688772E0,-1.818545222E0
5.049287837E2,9.355937004E0,2.330609322E0,-1.378265858E0
5.054287837E2,9.839286804E0,2.780459881E0,-1.129412293E0
5.059287837E2,9.389435768E0,2.641676188E0,-1.430907965E0
5.064287837E2,9.834501266E0,2.407179594E0,-1.167697430E0
5.069287837E2,9.489934921E0,2.464607239E0,-8.614161611E-1
5.074287837E2,1.065284634E1,3.101098061E0,-1.512263894E0
5.079287837E2,8.982656479E0,1.622333765E0,-1.469193101E0
5.084287837E2,1.031785107E1,2.517249346E0,-1.445264935E0
5.089287837E2,9.308079720E0,1.392622828E0,-1.909472466E0
5.094287837E2,9.269794464E0,3.637090325E-1,-1.540977836E0
5.099287837E2,1.027956581E1,9.714859724E-1,-1.981257200E0
5.104287837E2,9.336793900E0,4.881358147E-1,-2.311466694E0
5.109287837E2,1.051884842E1,1.335195065E0,-2.526820660E0
5.114287837E2,9.150154114E0,1.004985496E-1,-2.014756680E0
5.119287837E2,1.029870892E1,8.614161611E-1,-2.215753794E0
5.124287837E2,1.060020447E1,6.125625968E-1,-2.373680115E0
5.129287837E2,8.925228119E0,-2.297109663E-1,-2.388036966E0
5.134287837E2,9.858428955E0,8.949156404E-1,-2.656033039E0
5.139287837E2,9.245866776E0,2.493321180E0,-2.828316450E0
5.144287837E2,9.925428391E0,2.416750908E0,-2.569891453E0
5.149287837E2,8.456234932E0,1.540977836E0,-2.656033039E0
5.154287837E2,8.997013092E0,2.000399828E0,-2.493321180E0
5.159287837E2,8.834300995E0,1.550549030E0,-2.565105915E0
5.164287837E2,9.308079720E0,1.588834286E0,-2.163111687E0
5.169287837E2,9.126225471E0,1.531406522E0,-8.518448472E-1
5.174287837E2,8.939585686E0,1.933400750E0,3.665804386E0
5.179287837E2,9.059226990E0,1.971685886E0,4.369294167E0
5.184287837E2,8.805587769E0,2.225325108E0,3.555734396E0
5.189287837E2,8.920442581E0,1.808973908E0,4.508078098E0
5.194287837E2,8.997013092E0,2.383251429E0,3.517449379E0
5.199287837E2,8.958727837E0,1.990828395E0,4.374079704E0
5.204287837E2,9.121439934E0,2.354537487E0,3.431307554E0
5.209287837E2,8.982656479E0,1.828116536E0,4.364508629E0
5.214287837E2,9.054440498E0,2.344966173E0,3.436093330E0
5.219287837E2,9.016156197E0,1.780260086E0,4.211368084E0
5.224287837E2,9.092725754E0,2.277967215E0,3.115455151E0
5.229287837E2,9.016156197E0,1.765903115E0,4.182653904E0
5.234287837E2,9.178867340E0,2.349751949E0,3.440878868E0
5.239287837E2,8.963513374E0,1.689332843E0,4.187439442E0
5.244287837E2,9.064012527E0,2.263610125E0,3.215953588E0
5.249287837E2,9.011369705E0,1.751546144E0,4.436293125E0
5.254287837E2,8.819944382E0,1.995614052E0,3.019742250E0
5.259287837E2,9.250652313E0,2.895315409E0,3.919443607E0
5.264287837E2,8.700303078E0,2.967100143E0,4.120440483E0
5.269287837E2,8.437092781E0,2.201396942E0,3.220739365E0
5.274287837E2,9.193224907E0,3.397808075E0,3.852444410E0
5.279287837E2,8.920442581E0,2.904886723E0,3.900300980E0
5.284287837E2,9.638289452E0,2.579462767E0,2.517249346E0
5.289287837E2,9.159725189E0,2.679961443E0,3.110669374E0
5.294287837E2,9.212367058E0,2.435893536E0,2.751745939E0
5.299287837E2,9.092725754E0,2.081755638E0,2.502892494E0
5.304287837E2,9.303294182E0,2.660818815E0,2.574677229E0
5.309287837E2,9.375079155E0,2.411965132E0,1.928615093E0
5.314287837E2,1.046142101E1,1.856830359E0,2.450250387E0
5.319287837E2,9.092725754E0,2.890529871E0,2.081755638E0
5.324287837E2,9.064012527E0,2.933600664E0,1.799402595E0
5.329287837E2,9.513862610E0,2.426322222E0,1.636690736E0
5.334287837E2,9.662218094E0,2.522035122E0,2.373680115E0
5.339287837E2,9.604789734E0,2.254039049E0,1.473978758E0
5.344287837E2,9.336793900E0,2.196611166E0,1.847259045E0
5.349287837E2,8.518448830E0,2.545963287E0,1.756331801E0
5.354287837E2,9.676574707E0,1.823330879E0,1.746760488E0
5.359287837E2,9.738788605E0,2.158325911E0,1.856830359E0
5.364287837E2,9.389435768E0,1.976471543E0,1.732403636E0
5.369287837E2,9.298508644E0,2.115255117E0,1.545763373E0
5.374287837E2,9.509077072E0,2.325823545E0,1.478764415E0
5.379287837E2,9.274580956E0,1.239482164E0,1.196411371E0
5.384287837E2,9.279366493E0,1.775474429E0,9.762716293E-1
5.389287837E2,9.729216576E0,1.363908887E0,2.086541414E0
5.394287837E2,9.887143135E0,1.488335729E0,1.378265858E0
5.399287837E2,9.346364975E0,1.359123230E0,2.321038008E0
5.404287837E2,9.982855797E0,1.679761529E0,1.282552958E0
5.409287837E2,9.614361763E0,1.555334687E0,2.478964329E0
5.414287837E2,1.005942631E1,1.708475351E0,1.904686809E0
5.419287837E2,9.198010445E0,1.737189293E0,2.014756680E0
5.424287837E2,9.025727272E0,1.406979680E0,2.019542217E0
5.429287837E2,9.748359680E0,2.076970100E0,2.828316450E0
5.434287837E2,9.700503349E0,1.196411371E0,2.804388046E0
5.439287837E2,9.561718941E0,1.344766378E0,2.890529871E0
5.444287837E2,9.772287369E0,1.210768223E0,1.962114573E0
5.449287837E2,9.126225471E0,1.071984529E0,1.057627559E0
5.454287837E2,9.293723106E0,1.914258152E-1,1.162911773E0
5.459287837E2,1.004985523E1,8.853443861E-1,2.440679073E-1
5.464287837E2,9.212367058E0,8.183453679E-1,3.684946895E-1
5.469287837E2,9.518648148E0,5.742774606E-1,-2.632105052E-1
5.474287837E2,9.667003632E0,4.785645306E-1,2.871387079E-2
5.479287837E2,9.796216011E0,5.072783828E-1,3.924229145E-1
5.484287837E2,9.609575272E0,4.498506486E-1,-1.435693651E-1
5.489287837E2,1.005464077E1,2.871387303E-1,4.450650215E-1
5.494287837E2,9.025727272E0,6.795616150E-1,5.072783828E-1
5.499287837E2,1.004985523E1,5.120640397E-1,8.231309652E-1
5.504287837E2,9.274580956E0,3.876372576E-1,8.183453679E-1
5.509287837E2,1.003071213E1,7.369893789E-1,7.561319470E-1
5.514287837E2,9.958928108E0,8.566305041E-1,8.757730722E-1
5.519287837E2,1.035613632E1,1.263410330E0,6.221339107E-1
5.524287837E2,1.007378292E1,1.076770186E0,1.263410330E0
5.529287837E2,1.047577763E1,9.092726111E-1,1.220339537E0
5.534287837E2,9.647860527E0,4.785645306E-1,1.292124242E-1
5.539287837E2,9.690931320E0,1.048056364E0,4.402793646E-1
5.544287837E2,9.891928673E0,4.259224236E-1,2.105683982E-1
5.549287837E2,9.781859398E0,5.359922647E-1,4.163511395E-1
5.554287837E2,9.451649666E0,-3.924229145E-1,-9.092725813E-2
5.559287837E2,1.011685371E1,5.982056856E-1,6.125625968E-1
5.564287837E2,9.040083885E0,-2.392822653E-1,-1.627119333E-1
5.569287837E2,1.022213840E1,8.805587292E-1,7.896314859E-1
5.574287837E2,1.004028416E1,1.057627559E0,5.120640397E-1
5.579287837E2,1.001635551E1,1.091127157E0,1.339980662E-1
5.584287837E2,9.011369705E0,3.828516304E-1,-8.614161611E-2
5.589287837E2,1.012164021E1,1.043270707E0,-1.722832322E-1
5.594287837E2,8.886942863E0,1.143769264E0,-2.392822690E-2
5.599287837E2,9.801001549E0,1.014556766E0,3.684946895E-1
5.604287837E2,9.533005714E0,8.422735929E-1,-4.259224236E-1
5.609287837E2,1.024606609E1,8.279166222E-1,-6.221338734E-2
5.614287837E2,9.820143700E0,7.178468108E-1,3.445664644E-1
5.619287837E2,9.394221306E0,4.689932466E-1,3.254238665E-1
5.624287837E2,9.858428955E0,2.823530734E-1,6.939185858E-1
5.629287837E2,9.901499748E0,-2.775674164E-1,4.642075896E-1
5.634287837E2,9.963713646E0,-1.100698411E-1,5.216353536E-1
5.639287837E2,1.027478027E1,4.307080805E-1,8.566305041E-1
5.644287837E2,9.432506561E0,-1.196411327E-1,3.732803464E-1
5.649287837E2,9.877572060E0,-2.584248483E-1,2.392822653E-1
5.654287837E2,9.633503914E0,-5.790630579E-1,3.062812984E-1
5.659287837E2,9.906285286E0,2.440679073E-1,6.891329288E-1
5.664287837E2,9.997213364E0,3.014956415E-1,5.934200287E-1
5.669287837E2,9.896714211E0,8.135597110E-1,6.269195080E-1
5.674287837E2,9.547362328E0,9.427721500E-1,2.392822653E-1
5.679287837E2,1.001635551E1,1.024128079E0,3.110669553E-1
5.684287837E2,9.891928673E0,7.082754970E-1,1.263410330E0
5.689287837E2,9.566504478E0,1.674975872E0,1.459621787E0
5.694287837E2,9.475577354E0,2.100898266E0,1.804188251E0
5.699287837E2,7.604390144E0,3.460021496E0,4.809573650E0
5.704287837E2,4.149154663E0,5.804987907E0,6.384050846E0
5.709287837E2,3.967299938E0,6.049055576E0,7.355536938E0
5.714287837E2,6.001199245E0,5.943771362E0,6.623332977E0
5.719287837E2,6.192625046E0,5.680561066E0,7.140182972E0
5.724287837E2,6.757331371E0,5.967699528E0,5.584847927E0
5.729287837E2,6.594619274E0,5.541777134E0,5.666203976E0
5.734287837E2,6.369693756E0,5.340780258E0,5.192425251E0
5.739287837E2,6.518048763E0,5.259424210E0,6.541976929E0
5.744287837E2,5.642275810E0,3.862015724E0,6.427121639E0
5.749287837E2,7.594819069E0,2.244467735E0,6.206982136E0
5.754287837E2,1.004028416E1,1.617548108E0,3.775874138E0
5.759287837E2,8.982656479E0,-3.445664644E-1,5.565705299E0
5.764287837E2,8.834300995E0,-8.805587292E-1,5.230710506E0
5.769287837E2,8.628518105E0,-6.939185858E-1,3.689732552E0
5.774287837E2,1.019342422E1,-2.493321180E0,4.225724697E0
5.779287837E2,9.102297783E0,-2.890529871E0,2.249253273E0
5.784287837E2,9.097511292E0,-2.785245657E0,1.703689694E0
5.789287837E2,9.662218094E0,-2.541177750E0,1.938186288E0
5.794287837E2,9.255437851E0,-2.316252232E0,1.804188251E0
5.799287837E2,9.619147301E0,-2.589034081E0,1.440479279E0
5.804287837E2,9.542576790E0,-2.660818815E0,1.842473388E0
5.809287837E2,9.887143135E0,-2.100898266E0,3.349951744E0
5.814287837E2,9.001798630E0,-1.842473388E0,2.761317253E0
5.819287837E2,9.360722542E0,-2.474178553E0,2.416750908E0
5.824287837E2,9.293723106E0,-3.010170937E0,1.703689694E0
5.829287837E2,9.327222824E0,-2.952743053E0,1.646261930E0
5.834287837E2,9.561718941E0,-2.435893536E0,1.397408366E0
5.839287837E2,9.365508080E0,-2.378465652E0,1.981257200E0
5.844287837E2,9.456435204E0,-2.024327993E0,2.139183521E0
5.849287837E2,9.671789169E0,-1.995614052E0,1.368694544E0
5.854287837E2,9.288937569E0,-2.550748825E0,1.311266780E0
5.859287837E2,9.762716293E0,-2.100898266E0,1.651047587E0
5.864287837E2,9.915857315E0,-2.531606436E0,8.374879360E-1
5.869287837E2,9.475577354E0,-1.756331801E0,1.115055323E0
5.874287837E2,9.556933403E0,-2.469393015E0,1.579262972E0
5.879287837E2,9.446864128E0,-2.115255117E0,1.153340459E0
5.884287837E2,9.614361763E0,-1.808973908E0,1.493121386E0
5.889287837E2,9.418149948E0,-2.488535643E0,1.191625714E0
5.894287837E2,8.786444664E0,-1.856830359E0,3.072384357E0
5.899287837E2,8.216953278E0,-8.374879360E-1,4.168296814E0
5.904287837E2,9.044869423E0,-2.182254314E0,3.230310678E0
5.909287837E2,8.092526436E0,-1.009771109E0,2.766103029E0
5.914287837E2,9.126225471E0,-1.598405480E0,4.790431023E0
5.919287837E2,8.839086533E0,-2.048256159E0,4.488935471E0
5.924287837E2,8.011170387E0,-3.723232031E0,2.885744095E0
5.929287837E2,8.413164139E0,-4.532006264E0,1.339980662E-1
5.934287837E2,9.288937569E0,-3.613162279E0,5.503492355E-1
5.939287837E2,9.279366493E0,-3.756731510E0,2.153540403E-1
5.944287837E2,9.269794464E0,-2.933600664E0,3.684946895E-1
5.949287837E2,9.571290970E0,-3.139383316E0,4.977070987E-1
5.954287837E2,9.346364975E0,-2.598605394E0,8.279166222E-1
5.959287837E2,9.379864693E0,-2.608176708E0,3.972085714E-1
5.964287837E2,1.014556789E1,-2.129612207E0,6.029912829E-1
5.969287837E2,9.403793335E0,-2.608176708E0,3.397808075E-1
5.974287837E2,9.394221306E0,-2.043470621E0,3.349951804E-1
5.979287837E2,1.007378292E1,-1.818545222E0,8.709874153E-1
5.984287837E2,9.571290970E0,-1.694118381E0,1.914258152E-1
5.989287837E2,9.762716293E0,-1.210768223E0,1.124626637E0
5.994287837E2,9.695717812E0,-2.292324066E0,8.662018180E-1
5.999287837E2,9.671789169E0,-1.976471543E0,1.454836130E0
6.004287837E2,1.008335495E1,-1.718046665E0,1.134197950E0
6.009287837E2,9.724431038E0,-1.770688772E0,9.906286001E-1
6.014287837E2,1.026042366E1,-1.588834286E0,1.775474429E0
6.019287837E2,9.135796547E0,-1.430907965E0,1.138983607E0
6.024287837E2,9.801001549E0,-1.172483087E0,1.138983607E0
6.029287837E2,9.284152031E0,-9.140582681E-1,7.992027402E-1
6.034287837E2,1.077727318E1,-1.617548108E0,3.206382394E-1
6.039287837E2,1.015035343E1,-1.186840057E0,2.105683982E-1
6.044287837E2,9.671789169E0,-1.244267821E0,-1.426122308E0
6.049287837E2,9.413364410E0,-1.033699393E0,-1.569691658E0
6.054287837E2,9.939785004E0,-1.493121386E0,-1.158126116E0
6.059287837E2,8.901300430E0,-1.138983607E0,-2.694318295E0
6.064287837E2,1.040399265E1,-9.714859724E-1,-1.172483087E0
6.069287837E2,8.968298912E0,-1.172483087E0,-1.698904037E0
6.074287837E2,9.006584167E0,-1.143769264E0,-9.619147182E-1
6.079287837E2,8.494520187E0,-8.662018180E-1,-1.823330879E0
6.084287837E2,1.125105190E1,-2.727817893E-1,-1.186840057E0
6.089287837E2,9.226723671E0,-1.473978758E0,-1.880758643E0
6.094287837E2,9.786644936E0,-8.422735929E-1,-8.183453679E-1
6.099287837E2,9.475577354E0,-1.282552958E0,-3.684946895E-1
6.104287837E2,1.040399265E1,-1.612762451E0,-1.086341500E0
6.109287837E2,1.019342422E1,-1.416550994E0,-8.709874153E-1
6.114287837E2,1.041835022E1,-1.550549030E0,-1.316052437E0
6.119287837E2,9.777072906E0,-1.698904037E0,-1.378265858E0
6.124287837E2,9.925428391E0,-1.091127157E0,-1.071984529E0
6.129287837E2,1.032742214E1,-1.095912814E0,-1.354337573E0
6.134287837E2,9.686145782E0,-8.901300430E-1,-1.387837172E0
6.139287837E2,1.031306553E1,-1.416550994E0,-4.354937077E-1
6.144287837E2,9.848857880E0,-1.746760488E0,-1.631905079E0
6.149287837E2,9.303294182E0,-1.526620865E0,-2.292324066E0
6.154287837E2,9.317651749E0,-1.703689694E0,-1.808973908E0
6.159287837E2,9.111868858E0,-1.622333765E0,-1.493121386E0
6.164287837E2,9.901499748E0,-1.430907965E0,-2.177468538E0
6.169287837E2,9.284152031E0,-1.497906923E0,-1.962114573E0
6.174287837E2,9.164510727E0,-1.732403636E0,-1.574477315E0
6.179287837E2,9.399007797E0,-2.096112728E0,-6.125625968E-1
6.184287837E2,1.057149029E1,-2.316252232E0,-3.445664644E-1
6.189287837E2,8.685946465E0,-1.536192179E0,-2.335394859E0
6.194287837E2,9.537791252E0,-2.172683001E0,-1.052842021E0
6.199287837E2,9.111868858E0,-1.875972986E0,-1.531406522E0
6.204287837E2,9.686145782E0,-1.450050473E0,-9.332008362E-1
6.209287837E2,9.695717812E0,-1.923829436E0,-1.526620865E0
6.214287837E2,9.346364975E0,-1.450050473E0,-1.383051515E0
6.219287837E2,1.004506969E1,-1.622333765E0,-1.540977836E0
6.224287837E2,9.202795982E0,-1.584048629E0,-1.272981644E0
6.229287837E2,9.930213928E0,-1.909472466E0,-1.134197950E0
6.234287837E2,9.442078590E0,-1.852044702E0,-2.182254314E0
6.239287837E2,9.135796547E0,-9.858429432E-1,-2.105684042E0
6.244287837E2,9.427721024E0,-8.135597110E-1,-3.943371773E0
6.249287837E2,9.035298347E0,-1.488335729E0,-2.818745136E0
6.254287837E2,8.767302513E0,-7.034898400E-1,-2.134397745E0
6.259287837E2,9.446864128E0,-9.810572863E-1,-2.507678032E0
6.264287837E2,9.451649666E0,-1.105484009E0,-1.454836130E0
6.269287837E2,9.614361763E0,-1.177268744E0,-1.823330879E0
6.274287837E2,9.159725189E0,-8.614161611E-1,-1.067198873E0
6.279287837E2,1.071984577E1,-9.379864931E-1,-7.322037220E-1
6.284287837E2,9.456435204E0,-6.987041831E-1,-7.896314859E-1
6.289287837E2,1.021735287E1,-5.742774606E-1,-7.752745152E-1
6.294287837E2,9.901499748E0,-1.225125194E0,-1.296909928E0
6.299287837E2,9.064012527E0,-1.143769264E0,-2.488535643E0
6.304287837E2,9.403793335E0,-2.775674164E-1,-1.584048629E0
6.309287837E2,9.781859398E0,-7.465606928E-1,-1.584048629E0
6.314287837E2,9.762716293E0,-4.642075896E-1,-1.981257200E0
6.319287837E2,9.499505997E0,-1.100698411E-1,-2.995813847E0
6.324287837E2,9.796216011E0,-2.091326952E0,-9.571290612E-1
6.329287837E2,9.494720459E0,-1.244267821E0,-2.124826431E0
6.334287837E2,1.129890823E1,-1.086341500E0,2.273181438E0
6.339287837E2,8.365307808E0,-1.631905079E0,-4.302295208E0
6.344287837E2,1.015513897E1,-1.215553880E0,5.790630579E-1
6.349287837E2,1.014078236E1,-1.009771109E0,-7.417750359E-1
6.354287837E2,8.949156761E0,-1.387837172E0,-1.215553880E0
6.359287837E2,1.026999474E1,-1.186840057E0,-1.435693651E-1
6.364287837E2,1.085862923E1,-1.229910851E0,-3.828516304E-1
6.369287837E2,8.508877754E0,-1.459621787E0,-1.966900229E0
6.374287837E2,9.064012527E0,-9.092726111E-1,-2.751745939E0
6.379287837E2,1.034177971E1,-6.364908218E-1,-5.647061467E-1
6.384287837E2,1.052363396E1,-5.120640397E-1,-1.277767301E0
6.389287837E2,9.753145218E0,-3.924229145E-1,-1.545763373E0
6.394287837E2,9.992427826E0,-1.067198873E0,-9.667003751E-1
6.399287837E2,9.805787086E0,-9.475577474E-1,-1.397408366E0
6.404287837E2,1.022692394E1,-1.138983607E0,-1.842473388E0
6.409287837E2,9.796216011E0,-1.205982566E0,-2.115255117E0
6.414287837E2,9.958928108E0,-1.378265858E0,-2.517249346E0
6.419287837E2,9.738788605E0,-9.140582681E-1,-1.162911773E0
6.424287837E2,9.427721024E0,-1.483550072E0,-7.992027402E-1
6.429287837E2,9.887143135E0,-1.234696507E0,-1.856830359E0
6.434287837E2,9.887143135E0,-1.272981644E0,-1.651047587E0
6.439287837E2,9.087940216E0,-9.667003751E-1,-2.421536446E0
6.444287837E2,9.509077072E0,-1.655833244E0,-1.689332843E0
6.449287837E2,9.662218094E0,-9.571290612E-1,-1.799402595E0
6.454287837E2,9.834501266E0,-1.263410330E0,-1.028913736E0
6.459287837E2,9.777072906E0,-1.387837172E0,-1.378265858E0
6.464287837E2,8.504091263E0,-1.048056364E0,-2.330609322E0
6.469287837E2,1.001635551E1,-9.906286001E-1,-1.263410330E0
6.474287837E2,1.067677498E1,-1.115055323E0,-1.119840980E0
6.479287837E2,9.303294182E0,-1.545763373E0,-1.354337573E0
6.484287837E2,9.044869423E0,-1.440479279E0,-2.450250387E0
6.489287837E2,1.015513897E1,-1.100698471E0,-1.789831281E0
6.494287837E2,9.413364410E0,-1.143769264E0,-2.096112728E0
6.499287837E2,1.056670475E1,-2.086541414E0,-2.536391973E0
6.504287837E2,1.010249710E1,-1.244267821E0,-1.679761529E0
6.509287837E2,8.949156761E0,-1.545763373E0,-2.699103832E0
6.514287837E2,9.432506561E0,-1.229910851E0,-1.962114573E0
6.519287837E2,1.056191921E1,-1.488335729E0,-1.182054400E0
6.524287837E2,8.997013092E0,-8.039883971E-1,-2.277967215E0
6.529287837E2,1.055713367E1,-1.651047587E0,-1.569691658E0
6.534287837E2,9.087940216E0,-1.167697430E0,-2.895315409E0
6.539287837E2,9.470791817E0,-1.158126116E0,-1.411765337E0
6.544287837E2,9.054440498E0,-1.545763373E0,-1.268195987E0
6.549287837E2,9.442078590E0,-1.205982566E0,-2.474178553E0
6.554287837E2,8.714659691E0,-3.302095234E-1,-2.182254314E0
6.559287837E2,9.284152031E0,-1.210768223E0,-2.426322222E0
6.564287837E2,9.006584167E0,-1.397408366E0,-1.665404558E0
6.569287837E2,9.265008926E0,-1.210768223E0,-9.810572863E-1
6.574287837E2,9.403793335E0,-1.445264935E0,-2.081755638E0
6.579287837E2,9.690931320E0,-6.891329288E-1,-1.732403636E0
6.584287837E2,1.028913784E1,-6.604190469E-1,-1.234696507E0
6.589287837E2,9.868000984E0,-9.667003751E-1,-2.612962246E0
6.594287837E2,9.686145782E0,-1.478764415E0,-1.052841991E-1
6.599287837E2,1.054277611E1,-1.172483087E0,-3.780659735E-1
6.604287837E2,9.121439934E0,-6.029912829E-1,-2.632104874E0
6.609287837E2,8.709874153E0,-2.474178553E0,-1.962114573E0
6.614287837E2,9.394221306E0,-6.460621357E-1,-2.890529871E0
6.619287837E2,1.056670475E1,-1.502692580E0,-1.986042738E0
6.624287837E2,8.039883614E0,-1.320838094E0,-1.172483087E0
6.629287837E2,8.528019905E0,-1.478764415E0,-2.373680115E0
6.634287837E2,9.461220741E0,-1.177268744E0,-2.574677229E0
6.639287837E2,9.360722542E0,-2.134397745E0,-1.344766378E0
6.644287837E2,1.035613632E1,-1.823330879E0,-1.756331801E0
6.649287837E2,9.743574142E0,-6.269195080E-1,-1.469193101E0
6.654287837E2,8.255238533E0,-1.564906001E0,-2.373680115E0
6.659287837E2,1.098305607E1,-1.536192179E0,-1.091127157E0
6.664287837E2,8.461020470E0,-1.703689694E0,-2.498106956E0
6.669287837E2,1.089691448E1,-1.708475351E0,-1.052842021E0
6.674287837E2,9.408578873E0,-1.751546144E0,-3.828516230E-2
6.679287837E2,1.004985523E1,-2.100898266E0,2.823530734E-1
6.684287837E2,9.413364410E0,-1.713261008E0,-6.221338734E-2
6.689287837E2,9.772287369E0,-1.737189293E0,-5.312066078E-1
6.694287837E2,1.013121128E1,-1.823330879E0,-1.325623751E0
6.699287837E2,9.178867340E0,-1.402194023E0,-1.555334687E0
6.704287837E2,9.968499184E0,-1.430907965E0,-1.914258115E-2
6.709287837E2,1.003071213E1,-1.004985452E0,-8.566305041E-1
6.714287837E2,9.533005714E0,-1.531406522E0,5.503492355E-1
6.719287837E2,8.997013092E0,-1.119840980E0,-1.584048629E0
6.724287837E2,1.053320503E1,-1.909472466E0,2.392822690E-2
6.729287837E2,9.341579437E0,-1.086341500E0,-1.517049551E0
6.734287837E2,1.068156052E1,-1.631905079E0,2.775674164E-1
6.739287837E2,9.260223389E0,-1.000199914E0,-4.402793646E-1
6.744287837E2,9.724431038E0,-1.818545222E0,-2.392822653E-1
6.749287837E2,9.556933403E0,-1.402194023E0,-1.832902193E0
6.754287837E2,9.580862045E0,-1.569691658E0,-2.632105052E-1
6.759287837E2,9.341579437E0,-1.019342422E0,-1.268195987E0
6.764287837E2,9.183652878E0,-1.540977836E0,-3.493520916E-1
6.769287837E2,8.063812256E0,-1.138983607E0,-5.312066078E-1
6.774287837E2,1.082991505E1,-1.296909928E0,-5.982056856E-1
6.779287837E2,9.422935486E0,-1.584048629E0,-9.284151793E-1
6.784287837E2,9.518648148E0,-1.584048629E0,-1.588834286E0
6.789287837E2,8.958727837E0,-1.536192179E0,-7.417750359E-1
6.794287837E2,9.059226990E0,-1.450050473E0,-1.708475351E0
6.799287837E2,9.824930191E0,-1.919043779E0,-9.092725813E-2
6.804287837E2,8.762516975E0,-1.229910851E0,-2.038684845E0
6.809287837E2,1.050449181E1,-1.703689694E0,3.349951655E-2
6.814287837E2,9.068798065E0,-8.231309652E-1,-2.297109842E0
6.819287837E2,9.734002113E0,-1.966900229E0,-1.435693651E-1
6.824287837E2,9.824930191E0,-9.044869542E-1,-1.852044702E0
6.829287837E2,1.027956581E1,-1.789831281E0,-1.435693651E-1
6.834287837E2,8.499305725E0,-1.612762451E0,-8.327022791E-1
6.839287837E2,1.000678444E1,-1.153340459E0,-1.071984529E0
6.844287837E2,9.418149948E0,-1.517049551E0,-1.148554921E0
6.849287837E2,9.068798065E0,-1.440479279E0,-1.775474429E0
6.854287837E2,1.016949654E1,-1.502692580E0,-6.221339107E-1
6.859287837E2,9.949356079E0,-1.028913736E0,-1.684547186E0
6.864287837E2,1.013121128E1,-1.875972986E0,3.110669553E-1
6.869287837E2,8.628518105E0,-1.349551916E0,-1.555334687E0
6.874287837E2,9.915857315E0,-1.540977836E0,2.871387303E-1
6.879287837E2,9.241081238E0,-1.138983607E0,-1.947757602E0
6.884287837E2,1.040877819E1,-1.674975872E0,-4.642075896E-1
6.889287837E2,9.911071777E0,-8.805587292E-1,-1.024128079E0
6.894287837E2,9.695717812E0,-1.258624673E0,-5.790630579E-1
6.899287837E2,9.853643417E0,-1.191625714E0,-2.201396823E-1
6.904287837E2,9.571290970E0,-1.689332843E0,-7.274180651E-1
6.909287837E2,9.844072342E0,-1.201196909E0,-6.460621357E-1
6.914287837E2,9.365508080E0,-1.540977836E0,-1.292124271E0
6.919287837E2,1.017906761E1,-9.906286001E-1,-3.828516304E-1
6.924287837E2,9.135796547E0,-9.284151793E-1,-1.555334687E0
6.929287837E2,9.293723106E0,-1.904686809E0,-1.292124242E-1
6.934287837E2,8.992227554E0,-1.009771109E0,-1.612762451E0
6.939287837E2,9.212367058E0,-1.799402595E0,-6.939185858E-1
6.944287837E2,9.341579437E0,-5.647061467E-1,-1.651047587E0
6.949287837E2,9.370293617E0,-1.765903115E0,-1.009771109E0
6.954287837E2,8.939585686E0,-1.062413216E0,-1.612762451E0
6.959287837E2,1.015513897E1,-1.325623751E0,-5.503492355E-1
6.964287837E2,9.767501831E0,-1.603191137E0,-4.929214716E-1
6.969287837E2,9.408578873E0,-1.014556766E0,-1.148554921E0
6.974287837E2,8.810373306E0,-1.746760488E0,-2.105683982E-1
6.979287837E2,1.046620655E1,-8.087740541E-1,-1.684547186E0
6.984287837E2,8.973084450E0,-2.053041935E0,-4.450650215E-1
6.989287837E2,9.609575272E0,-1.124626637E0,-2.187039852E0
6.994287837E2,1.067677498E1,-1.569691658E0,-3.397808075E-1
6.999287837E2,9.298508644E0,-1.110269666E0,-1.540977836E0
7.004287837E2,8.767302513E0,-1.794616938E0,-1.469193101E0
7.009287837E2,1.009771156E1,-2.043470621E0,-3.541377485E-1
7.014287837E2,8.685946465E0,-1.507478237E0,-1.129412293E0
7.019287837E2,8.968298912E0,-1.622333765E0,-1.564906001E0
7.024287837E2,1.057627583E1,-1.330409408E0,-4.594219327E-1
7.029287837E2,8.303094864E0,-1.560120344E0,-1.339980721E0
7.034287837E2,1.005464077E1,-1.411765337E0,-9.332008362E-1
7.039287837E2,9.365508080E0,-1.957328916E0,1.483550072E-1
7.044287837E2,1.016471100E1,-1.818545222E0,-9.092726111E-1
7.049287837E2,9.480362892E0,-1.665404558E0,-1.392622828E0
7.054287837E2,9.681360245E0,-2.158325911E0,-9.140582681E-1
7.059287837E2,9.341579437E0,-2.153540373E0,-7.561319470E-1
7.064287837E2,9.939785004E0,-1.785045743E0,-9.379864931E-1
7.069287837E2,9.786644936E0,-2.091326952E0,-2.584248483E-1
7.074287837E2,9.958928108E0,-2.134397745E0,-8.087740541E-1
7.079287837E2,1.034656525E1,-2.335394859E0,-6.699903309E-2
7.084287837E2,9.623932838E0,-1.995614052E0,-8.566305041E-1
7.089287837E2,9.102297783E0,-1.569691658E0,-1.048056364E0
7.094287837E2,9.710074425E0,-1.718046665E0,-9.906286001E-1
7.099287837E2,1.019342422E1,-1.698904037E0,-1.091127157E0
7.104287837E2,9.135796547E0,-1.899901152E0,-1.478764415E0
7.109287837E2,9.140582085E0,-1.335195065E0,-1.469193101E0
7.114287837E2,9.848857880E0,-1.483550072E0,-5.982056856E-1
7.119287837E2,9.126225471E0,-1.454836130E0,-1.531406522E0
7.124287837E2,9.375079155E0,-1.698904037E0,-4.498506486E-1
7.129287837E2,1.108355427E1,-1.588834286E0,3.684946895E-1
7.134287837E2,1.087298584E1,-1.708475351E0,-9.236295223E-1
7.139287837E2,7.537391186E0,-2.024327993E0,-2.048256159E0
7.144287837E2,1.223689461E1,-1.339980721E0,3.503092289E0
7.149287837E2,7.623532772E0,-1.344766378E0,-1.679761529E0
7.154287837E2,1.014556789E1,-1.268195987E0,-1.847259045E0
7.159287837E2,9.446864128E0,-1.579262972E0,-2.823530734E-1
7.164287837E2,9.035298347E0,-1.473978758E0,-2.287538528E0
7.169287837E2,1.012164021E1,-1.076770186E0,-9.092726111E-1
7.174287837E2,9.317651749E0,-1.134197950E0,-9.188438654E-1
7.179287837E2,1.127019501E1,-8.709874153E-1,-8.614161611E-2
7.184287837E2,1.051406288E1,-1.009771109E0,-8.662018180E-1
7.189287837E2,1.065763187E1,-6.652047038E-1,-8.901300430E-1
7.194287837E2,8.140382767E0,-1.091127157E0,-2.234896421E0
7.199287837E2,1.013599682E1,-9.954141974E-1,-8.374879360E-1
7.204287837E2,9.676574707E0,-1.560120344E0,-1.239482164E0
7.209287837E2,1.007378292E1,-1.426122308E0,-2.292324066E0
7.214287837E2,1.039442158E1,-1.076770186E0,-2.139183521E0
7.219287837E2,9.504291534E0,-1.196411371E0,-2.129612207E0
7.224287837E2,8.580661774E0,-1.521835208E0,-1.832902193E0
7.229287837E2,8.547162056E0,-1.081555843E0,-1.641476393E0
7.234287837E2,9.944570541E0,-1.775474429E0,-2.287538528E0
7.239287837E2,8.566305161E0,-1.933400750E0,-1.502692580E0
7.244287837E2,9.743574142E0,-1.808973908E0,-1.086341500E0
7.249287837E2,9.609575272E0,-1.875972986E0,-1.277767301E0
7.254287837E2,8.207381248E0,-1.880758643E0,-2.005185366E0
7.259287837E2,9.891928673E0,-1.574477315E0,-1.469193101E0
7.264287837E2,8.317451477E0,-1.804188251E0,-2.110469580E0
7.269287837E2,9.327222824E0,-1.502692580E0,-1.732403636E0
7.274287837E2,1.029870892E1,-9.858429432E-1,-1.785045743E0
7.279287837E2,9.571290970E0,-1.426122308E0,-2.368894339E0
7.284287837E2,9.207581520E0,-1.555334687E0,-2.038684845E0
7.289287837E2,9.298508644E0,-1.406979680E0,-1.129412293E0
7.294287837E2,9.920642853E0,-1.718046665E0,-1.411765337E0
7.299287837E2,9.571290970E0,-1.435693622E0,-1.373480201E0
7.304287837E2,9.044869423E0,-1.564906001E0,-1.986042738E0
7.309287837E2,9.528220177E0,-1.727617979E0,-1.837687731E0
7.314287837E2,8.992227554E0,-1.641476393E0,-1.282552958E0
7.319287837E2,1.013121128E1,-1.469193101E0,-7.944171429E-1
7.324287837E2,8.212167740E0,-1.856830359E0,-1.794616938E0
7.329287837E2,9.815358162E0,-1.574477315E0,-1.550549030E0
7.334287837E2,8.997013092E0,-1.761117458E0,-1.249053478E0
7.339287837E2,9.643074989E0,-1.957328916E0,-1.440479279E0
7.344287837E2,9.489934921E0,-1.971685886E0,-9.092726111E-1
7.349287837E2,9.107083321E0,-2.431107759E0,-2.598605394E0
7.354287837E2,8.977870941E0,-2.732603550E0,-1.813759565E0
7.359287837E2,9.451649666E0,-2.550748825E0,-2.024327993E0
7.364287837E2,8.910871506E0,-3.034099102E0,-1.301695466E0
7.369287837E2,9.657432556E0,-2.120040894E0,-1.789831281E0
7.374287837E2,9.370293617E0,-2.182254314E0,-1.416550994E0
7.379287837E2,9.317651749E0,-1.703689694E0,-1.880758643E0
7.384287837E2,9.858428955E0,-2.316252232E0,-1.765903115E0
7.389287837E2,9.308079720E0,-2.455035925E0,-1.019342422E0
7.394287837E2,9.714859962E0,-2.962314367E0,-7.752745152E-1
7.399287837E2,1.041835022E1,-2.196611166E0,-2.201396823E-1
7.404287837E2,9.265008926E0,-1.971685886E0,-4.929214716E-1
7.409287837E2,1.040399265E1,-1.861616015E0,2.871387079E-2
7.414287837E2,1.016471100E1,-1.832902193E0,-2.009970993E-1
7.419287837E2,9.695717812E0,-2.072184324E0,-6.173482537E-1
7.424287837E2,9.198010445E0,-2.067398787E0,-1.866401672E0
7.429287837E2,9.221938133E0,-2.210968018E0,-1.703689694E0
7.434287837E2,9.614361763E0,-2.258824587E0,-2.478964329E0
7.439287837E2,8.738588333E0,-2.493321180E0,-3.201596737E0
7.444287837E2,9.681360245E0,-2.234896421E0,-2.904886723E0
7.449287837E2,8.298309326E0,-2.249253273E0,-2.024327993E0
7.454287837E2,1.031785107E1,-2.249253273E0,-1.785045743E0
7.459287837E2,8.446663857E0,-2.775674343E0,-1.162911773E0
7.464287837E2,9.805787086E0,-3.316452265E0,-1.406979680E0
7.469287837E2,7.948956966E0,-2.842673302E0,-1.435693622E0
7.474287837E2,8.800801277E0,-3.349951744E0,-1.674975872E0
7.479287837E2,9.973284721E0,-3.235096216E0,-9.475577474E-1
7.484287837E2,9.303294182E0,-3.617947817E0,-3.972085714E-1
7.489287837E2,9.887143135E0,-3.139383316E0,-1.392622828E0
7.494287837E2,8.082955360E0,-4.273581028E0,-1.397408366E0
7.499287837E2,9.858428955E0,-3.780659676E0,-1.579262972E0
7.504287837E2,8.618947029E0,-4.024727821E0,-1.057627559E0
7.509287837E2,7.800601959E0,-3.818944931E0,-1.416550994E0
7.514287837E2,9.877572060E0,-3.048455954E0,-1.325623751E0
7.519287837E2,8.370093346E0,-3.436093330E0,-1.631905079E0
7.524287837E2,9.729216576E0,-1.071984529E0,-1.708475351E0
7.529287837E2,9.068798065E0,-2.024327993E0,-1.737189293E0
7.534287837E2,8.886942863E0,-1.986042738E0,-1.751546144E0
7.539287837E2,1.064327526E1,-1.483550072E0,-1.598405480E0
7.544287837E2,8.092526436E0,-2.177468538E0,-1.799402595E0
7.549287837E2,1.091127110E1,-1.574477315E0,-1.550549030E0
7.554287837E2,8.178668022E0,-2.306680918E0,-1.708475351E0
7.559287837E2,1.008814049E1,-1.694118381E0,-1.593619823E0
7.564287837E2,9.456435204E0,-1.799402595E0,-1.569691658E0
7.569287837E2,8.877371788E0,-2.091326952E0,-1.761117458E0
7.574287837E2,1.015035343E1,-1.684547186E0,-1.440479279E0
7.579287837E2,8.312665939E0,-2.316252232E0,-1.727617979E0
7.584287837E2,1.026520920E1,-1.603191137E0,-1.373480201E0
7.589287837E2,8.551948547E0,-2.273181438E0,-1.631905079E0
7.594287837E2,1.028435135E1,-1.517049551E0,-1.383051515E0
7.599287837E2,8.484949112E0,-2.234896421E0,-1.775474429E0
7.604287837E2,1.054277611E1,-1.383051515E0,-1.579262972E0
7.609287837E2,8.628518105E0,-2.201396942E0,-1.823330879E0
7.614287837E2,1.038006496E1,-1.469193101E0,-1.473978758E0
7.619287837E2,9.111868858E0,-2.029113531E0,-1.837687731E0
7.624287837E2,1.019820976E1,-1.483550072E0,-1.507478237E0
7.629287837E2,9.399007797E0,-2.000399828E0,-1.751546144E0
7.634287837E2,1.020299530E1,-1.435693622E0,-1.550549030E0
7.639287837E2,9.288937569E0,-1.990828395E0,-1.698904037E0
7.644287837E2,1.005464077E1,-1.536192179E0,-1.555334687E0
7.649287837E2,8.757730484E0,-2.129612207E0,-2.009970903E0
7.654287837E2,1.068634605E1,-1.416550994E0,-1.828116536E0
7.659287837E2,9.556933403E0,-1.555334687E0,-1.593619823E0
7.664287837E2,8.350951195E0,-2.029113531E0,-2.096112728E0
7.669287837E2,1.076770210E1,-6.125625968E-1,-1.866401672E0
7.674287837E2,8.264809608E0,-1.780260086E0,-1.890329838E0
7.679287837E2,1.051884842E1,-2.005185366E0,-1.406979680E0
7.684287837E2,8.159524918E0,-2.148754835E0,-1.550549030E0
7.689287837E2,1.096391296E1,-9.714859724E-1,-1.555334687E0
7.694287837E2,7.819744587E0,-2.254039049E0,-1.885544300E0
7.699287837E2,1.114098263E1,-1.354337573E0,-1.545763373E0
7.704287837E2,8.910871506E0,-1.880758643E0,-1.761117458E0
7.709287837E2,8.571090698E0,-2.081755638E0,-1.493121386E0
7.714287837E2,9.135796547E0,-1.646261930E0,-1.507478237E0
7.719287837E2,1.078684425E1,-1.378265858E0,-1.416550994E0
7.724287837E2,7.910671711E0,-2.206182480E0,-1.808973908E0
7.729287837E2,1.081555843E1,-1.292124271E0,-1.464407444E0
7.734287837E2,8.303094864E0,-1.971685886E0,-1.579262972E0
7.739287837E2,1.048056316E1,-1.383051515E0,-1.445264935E0
7.744287837E2,8.901300430E0,-1.746760488E0,-1.545763373E0
7.749287837E2,9.777072906E0,-1.607976794E0,-1.603191137E0
7.754287837E2,9.207581520E0,-1.679761529E0,-1.483550072E0
7.759287837E2,9.499505997E0,-1.746760488E0,-1.440479279E0
7.764287837E2,1.022692394E1,-1.421336651E0,-1.445264935E0
7.769287837E2,7.671389580E0,-2.306680918E0,-1.756331801E0
7.774287837E2,1.080120182E1,-1.416550994E0,-1.387837172E0
7.779287837E2,8.307880402E0,-1.971685886E0,-1.497906923E0
7.784287837E2,1.065763187E1,-1.311266780E0,-1.406979680E0
7.789287837E2,9.365508080E0,-7.896314859E-1,-1.545763373E0
7.794287837E2,9.657432556E0,-1.052841991E-1,-1.454836130E0
7.799287837E2,9.509077072E0,-2.057827413E-1,-1.938186288E0
7.804287837E2,8.896514893E0,-6.317051649E-1,-2.737389088E0
7.809287837E2,9.351150513E0,-7.704889178E-1,-1.689332843E0
7.814287837E2,1.031785107E1,-5.934200287E-1,-1.024128079E0
7.819287837E2,9.322437286E0,-3.062812984E-1,-8.566305041E-1
7.824287837E2,1.026999474E1,1.770688742E-1,-2.086541414E0
7.829287837E2,9.906285286E0,-1.244267747E-1,-7.561319470E-1
7.834287837E2,1.061456108E1,-3.110669553E-1,-2.100898266E0
7.839287837E2,9.552147865E0,-3.014956415E-1,-2.177468538E0
7.844287837E2,9.451649666E0,-3.254238665E-1,-2.086541414E0
7.849287837E2,9.561718941E0,6.699903309E-2,-1.067198873E0
7.854287837E2,1.053320503E1,-3.589234054E-1,-1.272981644E0
7.859287837E2,1.001156998E1,-6.269195080E-1,-1.182054400E0
7.864287837E2,9.068798065E0,-2.009970993E-1,-1.172483087E0
7.869287837E2,1.018385315E1,-1.483550072E-1,-1.081555843E0
7.874287837E2,8.695517540E0,-1.292124242E-1,-1.995614052E0
7.879287837E2,1.090648556E1,-2.775674164E-1,-4.115654826E-1
7.884287837E2,9.193224907E0,-8.709874153E-1,-7.465606928E-1
7.889287837E2,1.115533924E1,-8.518448472E-1,-6.460621357E-1
7.894287837E2,9.710074425E0,-8.470591903E-1,-1.383051515E0
7.899287837E2,1.020778179E1,2.823530734E-1,-6.843472719E-1
7.904287837E2,8.173882484E0,2.727817893E-1,1.617548108E0
7.909287837E2,9.011369705E0,7.944171429E-1,3.646661758E0
7.914287837E2,9.863214493E0,8.997012973E-1,3.345165968E0
7.919287837E2,7.417750359E0,2.344966233E-1,1.995614052E0
7.924287837E2,7.858029366E0,-2.727817893E-1,-3.684946895E-1
7.929287837E2,1.080120182E1,1.292124242E-1,-9.188438654E-1
7.934287837E2,9.911071777E0,-2.871387303E-1,-4.067798555E-1
7.939287837E2,9.868000984E0,1.339980662E-1,-1.718046665E0
7.944287837E2,9.317651749E0,1.722832322E-1,-9.044869542E-1
7.949287837E2,9.801001549E0,4.163511395E-1,-1.469193101E0
7.954287837E2,1.007378292E1,2.488535494E-1,-7.609176040E-1
7.959287837E2,9.662218094E0,4.929214716E-1,-1.435693622E0
7.964287837E2,1.064327526E1,7.561319470E-1,1.292124242E-1
7.969287837E2,1.038963604E1,4.067798555E-1,2.895315409E0
7.974287837E2,9.518648148E0,2.919243574E-1,-5.216353536E-1
7.979287837E2,1.000199890E1,3.254238665E-1,-1.153340459E0
7.984287837E2,1.040399265E1,1.105484009E0,-3.349951655E-2
7.989287837E2,9.542576790E0,9.906286001E-1,6.699903309E-2
7.994287837E2,1.005942631E1,5.072783828E-1,2.536391914E-1
7.999287837E2,9.925428391E0,8.757730722E-1,-4.929214716E-1
8.004287837E2,9.164510727E0,6.412764788E-1,2.871387303E-1
8.009287837E2,1.067677498E1,1.363908887E0,4.689932466E-1
8.014287837E2,1.010728264E1,9.379864931E-1,1.531406492E-1
8.019287837E2,9.178867340E0,8.374879360E-1,4.546363056E-1
8.024287837E2,1.046620655E1,1.062413216E0,-1.531406492E-1
8.029287837E2,9.667003632E0,3.397808075E-1,-3.780659735E-1
8.034287837E2,1.006899738E1,8.566305041E-1,-2.230110645E0
8.039287837E2,1.038006496E1,3.780659735E-1,1.722832322E-1
8.044287837E2,9.217152596E0,8.997012973E-1,-2.249253273E0
8.049287837E2,9.413364410E0,1.019342422E0,-1.143769264E0
8.054287837E2,9.700503349E0,7.609176040E-1,-1.234696507E0
8.059287837E2,8.212167740E0,1.579262912E-1,-2.761317253E0
8.064287837E2,1.094955635E1,6.939185858E-1,1.962114573E-1
8.069287837E2,8.255238533E0,2.009970993E-1,-1.718046665E0
8.074287837E2,1.008335495E1,4.689932466E-1,-8.757730722E-1
8.079287837E2,1.023170948E1,-2.153540403E-1,-1.148554832E-1
8.084287837E2,8.642875671E0,-3.780659735E-1,-1.301695466E0
8.089287837E2,8.810373306E0,4.977070987E-1,-1.880758643E0
8.094287837E2,1.002592659E1,7.465606928E-1,-1.253839016E0
8.099287837E2,9.547362328E0,7.082754970E-1,-1.100698471E0
8.104287837E2,1.020778179E1,1.435693651E-1,-1.435693651E-1
8.109287837E2,9.351150513E0,-1.339980662E-1,-1.397408366E0
8.114287837E2,8.370093346E0,-1.148554832E-1,-1.459621787E0
8.119287837E2,1.033220863E1,5.647061467E-1,-1.263410330E0
8.124287837E2,9.968499184E0,-3.349951655E-2,-2.679961324E-1
8.129287837E2,9.834501266E0,3.924229145E-1,-1.067198873E0
8.134287837E2,8.997013092E0,4.354937077E-1,-1.555334687E0
8.139287837E2,1.106919765E1,5.599204898E-1,-6.508477330E-1
8.144287837E2,9.260223389E0,-1.627119333E-1,-1.091127157E0
8.149287837E2,9.221938133E0,1.914258115E-2,-2.000399828E0
8.154287837E2,1.011685371E1,6.604190469E-1,-9.954141974E-1
8.159287837E2,9.164510727E0,-3.158525825E-1,-7.657032460E-2
8.164287837E2,9.078369141E0,-2.392822690E-2,-1.856830359E0
8.169287837E2,9.561718941E0,5.838487148E-1,-1.339980721E0
8.174287837E2,9.614361763E0,-8.614161611E-2,-1.387837172E0
8.179287837E2,9.446864128E0,4.881358147E-1,-1.952543259E0
8.184287837E2,1.013121128E1,1.435693651E-1,-9.332008362E-1
8.189287837E2,8.944371223E0,-2.153540403E-1,-1.339980721E0
8.194287837E2,9.801001549E0,6.029912829E-1,-2.187039852E0
8.199287837E2,1.055713367E1,5.503492355E-1,-1.698904037E0
8.204287837E2,9.040083885E0,4.785645381E-2,-1.631905079E0
8.209287837E2,9.848857880E0,8.279166222E-1,-7.178468108E-1
8.214287837E2,9.801001549E0,4.307080805E-2,-7.178468257E-2
8.219287837E2,9.643074989E0,-1.914258115E-2,-6.077769399E-1
8.224287837E2,9.868000984E0,4.307080805E-1,-8.135597110E-1
8.229287837E2,1.076291656E1,3.445664644E-1,-5.455635786E-1
8.234287837E2,9.370293617E0,6.125625968E-1,-8.614161611E-1
8.239287837E2,1.039442158E1,4.785645287E-3,-1.339980721E0
8.244287837E2,9.059226990E0,3.254238665E-1,-9.427721500E-1
8.249287837E2,1.017906761E1,7.178468257E-2,-1.852044702E0
8.254287837E2,9.585647583E0,3.110669553E-1,-1.435693622E0
8.259287837E2,9.992427826E0,2.297109663E-1,-2.201396942E0
8.264287837E2,9.858428955E0,4.307080805E-2,-1.316052437E0
8.269287837E2,1.023649502E1,5.407779217E-1,-2.120040894E0
8.274287837E2,8.829515457E0,-5.264209956E-2,-2.852244616E0
8.279287837E2,1.025563812E1,6.364908218E-1,-2.464607239E0
8.284287837E2,8.642875671E0,9.092725813E-2,-3.196810961E0
8.289287837E2,9.911071777E0,7.178468257E-2,-2.335394859E0
8.294287837E2,9.791430473E0,3.589234054E-1,-3.058027267E0
8.299287837E2,9.193224907E0,-3.445664644E-1,-2.612962246E0
8.304287837E2,1.016949654E1,3.684946895E-1,-2.761317253E0
8.309287837E2,8.843872070E0,3.014956415E-1,-3.024527788E0
8.314287837E2,9.753145218E0,1.100698411E-1,-2.210968018E0
8.319287837E2,8.977870941E0,1.962114573E-1,-3.058027267E0
8.324287837E2,1.034656525E1,6.077769399E-1,-1.818545222E0
8.329287837E2,9.413364410E0,-5.455635786E-1,-2.861815929E0
8.334287837E2,8.853444099E0,-3.589234054E-1,-2.335394859E0
8.339287837E2,9.011369705E0,3.158525825E-1,-2.775674343E0
8.344287837E2,9.451649666E0,5.120640397E-1,-2.833101988E0
8.349287837E2,9.561718941E0,6.460621357E-1,-2.804388046E0
8.354287837E2,1.042313576E1,4.450650215E-1,-2.723032236E0
8.359287837E2,1.026520920E1,3.445664644E-1,-1.818545222E0
8.364287837E2,9.542576790E0,1.148554832E-1,-1.780260086E0
8.369287837E2,9.590433121E0,3.828516230E-2,-1.617548108E0
8.374287837E2,9.600004196E0,2.105683982E-1,-1.430907965E0
8.379287837E2,8.714659691E0,-4.642075896E-1,-1.765903115E0
8.384287837E2,9.126225471E0,-1.627119333E-1,-1.440479279E0
8.389287837E2,9.284152031E0,1.579262912E-1,-1.296909928E0
8.394287837E2,8.843872070E0,3.493520916E-1,-1.689332843E0
8.399287837E2,9.662218094E0,7.513462901E-1,-2.297109842E0
8.404287837E2,8.781659126E0,4.833501875E-1,-1.646261930E0
8.409287837E2,9.652647018E0,7.369893789E-1,-1.464407444E0
8.414287837E2,1.002114105E1,8.374879360E-1,-1.162911773E0
8.419287837E2,1.038006496E1,8.566305041E-1,-1.225125194E0
8.424287837E2,1.083948612E1,1.043270707E0,-9.284151793E-1
8.429287837E2,1.025563812E1,6.604190469E-1,-1.014556766E0
8.434287837E2,1.071984577E1,7.465606928E-1,-7.848458290E-1
8.439287837E2,1.075813103E1,6.077769399E-1,-7.369893789E-1
8.444287837E2,1.049013424E1,6.269195080E-1,-6.556333899E-1
8.449287837E2,1.082512951E1,1.043270707E0,-2.297109663E-1
8.454287837E2,1.033699417E1,2.392822653E-1,1.435693540E-2
8.459287837E2,1.011206818E1,5.407779217E-1,-8.566305041E-1
8.464287837E2,1.052841949E1,9.379864931E-1,-9.810572863E-1
8.469287837E2,9.863214493E0,4.881358147E-1,-6.891329288E-1
8.474287837E2,1.048534870E1,1.095912814E0,-1.493121386E0
8.479287837E2,1.002114105E1,8.231309652E-1,-1.048056364E0
8.484287837E2,1.067677498E1,9.858429432E-1,-6.508477330E-1
8.489287837E2,1.084905815E1,1.263410330E0,-6.412764788E-1
8.494287837E2,9.662218094E0,5.647061467E-1,-7.609176040E-1
8.499287837E2,9.509077072E0,4.546363056E-1,-1.651047587E0
8.504287837E2,9.030512810E0,5.982056856E-1,-2.627319336E0
8.509287837E2,9.011369705E0,8.662018180E-1,-2.823530674E0
8.514287837E2,1.073420238E1,9.379864931E-1,-1.521835208E0
8.519287837E2,8.518448830E0,-5.264209956E-2,-1.454836130E0
8.524287837E2,1.033220863E1,1.167697430E0,-1.612762451E0
8.529287837E2,8.791230202E0,8.662018180E-1,-2.378465652E0
8.534287837E2,8.752944946E0,1.387837082E-1,-9.044869542E-1
8.539287837E2,9.671789169E0,3.541377485E-1,-2.297109663E-1
8.544287837E2,1.048534870E1,1.201196909E0,-1.378265858E0
8.549287837E2,7.925028801E0,2.775674164E-1,-2.277967215E0
8.554287837E2,1.145204926E1,1.138983607E0,-6.987041831E-1
8.559287837E2,8.365307808E0,-3.828516304E-1,-1.952543259E0
8.564287837E2,9.686145782E0,1.057627559E0,-1.311266780E0
8.569287837E2,9.025727272E0,8.135597110E-1,-1.966900229E0
8.574287837E2,1.027956581E1,1.143769264E0,-1.363908887E0
8.579287837E2,9.657432556E0,1.057627559E0,-1.703689694E0
8.584287837E2,9.973284721E0,9.523434043E-1,-1.818545222E0
8.589287837E2,9.437292099E0,6.891329288E-1,-1.703689694E0
8.594287837E2,9.121439934E0,2.775674164E-1,-2.455035925E0
8.599287837E2,9.590433121E0,2.440679073E-1,-1.579262972E0
8.604287837E2,1.018385315E1,2.440679073E-1,-1.354337573E0
8.609287837E2,1.049970531E1,9.954141974E-1,-1.899901152E0
8.614287837E2,9.494720459E0,9.475577474E-1,-1.995614052E0
8.619287837E2,9.399007797E0,6.221339107E-1,-1.832902193E0
8.624287837E2,1.034656525E1,4.737788737E-1,-1.148554921E0
8.629287837E2,9.887143135E0,9.379864931E-1,-1.502692580E0
8.634287837E2,9.456435204E0,9.284151793E-1,-1.646261930E0
8.639287837E2,9.676574707E0,4.450650215E-1,-1.359123230E0
8.644287837E2,1.038485050E1,6.029912829E-1,-1.990828395E0
8.649287837E2,9.250652313E0,8.662018180E-1,-1.976471543E0
8.654287837E2,8.949156761E0,2.823530734E-1,-1.890329838E0
8.659287837E2,9.863214493E0,2.009970993E-1,-1.215553880E0
8.664287837E2,9.954142570E0,7.609176040E-1,-1.354337573E0
8.669287837E2,1.066720295E1,1.268195987E0,-6.939185858E-1
8.674287837E2,9.221938133E0,8.279166222E-1,-9.906286001E-1
8.679287837E2,9.140582085E0,1.914258152E-1,-1.622333765E0
8.684287837E2,1.045663452E1,4.115654826E-1,-5.407779217E-1
8.689287837E2,1.063848972E1,1.062413216E0,-1.100698411E-1
8.694287837E2,1.011206818E1,9.954141974E-1,-7.561319470E-1
8.699287837E2,9.887143135E0,9.954141974E-1,-1.115055323E0
8.704287837E2,8.690732002E0,7.034898400E-1,-1.493121386E0
8.709287837E2,9.786644936E0,5.838487148E-1,-5.838487148E-1
8.714287837E2,9.829715729E0,4.019941986E-1,-8.614161611E-2
8.719287837E2,1.041835022E1,8.518448472E-1,-3.924229145E-1
8.724287837E2,9.011369705E0,7.178468108E-1,-1.430907965E0
8.729287837E2,9.805787086E0,4.163511395E-1,-3.206382394E-1
8.734287837E2,1.067677498E1,8.518448472E-1,-3.589234054E-1
8.739287837E2,8.829515457E0,3.541377485E-1,-1.220339537E0
8.744287837E2,9.954142570E0,2.536391914E-1,-3.684946895E-1
8.749287837E2,1.044706345E1,1.182054400E0,-5.455635786E-1
8.754287837E2,9.403793335E0,3.637090325E-1,-4.259224236E-1
8.759287837E2,1.035613632E1,1.095912814E0,-5.120640397E-1
8.764287837E2,1.081077290E1,8.997012973E-1,-1.067198873E0
8.769287837E2,9.647860527E0,2.584248483E-1,-1.306481123E0
8.774287837E2,8.915657043E0,3.206382394E-1,-1.660618901E0
8.779287837E2,9.102297783E0,3.158525825E-1,-1.153340459E0
8.784287837E2,9.279366493E0,4.977070987E-1,-1.105484009E0
8.789287837E2,9.489934921E0,4.307080805E-1,-1.354337573E0
8.794287837E2,1.027478027E1,8.757730722E-1,-1.220339537E0
8.799287837E2,8.805587769E0,3.110669553E-1,-1.574477315E0
8.804287837E2,8.953942299E0,-1.579262912E-1,-1.134197950E0
8.809287837E2,1.060977554E1,3.972085714E-1,-1.507478237E0
8.814287837E2,1.057627583E1,7.178468108E-1,-1.095912814E0
8.819287837E2,1.060977554E1,7.513462901E-1,-9.284151793E-1
8.824287837E2,9.633503914E0,2.344966233E-1,-1.081555843E0
8.829287837E2,1.003071213E1,2.919243574E-1,-1.397408366E0
8.834287837E2,8.958727837E0,2.775674164E-1,-1.593619823E0
8.839287837E2,1.010249710E1,3.397808075E-1,-1.411765337E0
8.844287837E2,9.044869423E0,-2.679961324E-1,-6.077769399E-1
8.849287837E2,9.475577354E0,3.924229145E-1,-1.320838094E0
8.854287837E2,9.451649666E0,3.445664644E-1,-9.810572863E-1
8.859287837E2,1.135633659E1,1.009771109E0,-1.751546144E0
8.864287837E2,9.059226990E0,5.503492355E-1,-2.584248543E0
8.869287837E2,1.020778179E1,4.402793646E-1,-1.593619823E0
8.874287837E2,1.019820976E1,7.034898400E-1,-2.622533560E0
8.879287837E2,9.772287369E0,1.004985452E0,-2.627319336E0
8.884287837E2,1.041835022E1,1.292124271E0,-2.201396942E0
8.889287837E2,9.533005714E0,9.954141974E-1,-1.392622828E0
8.894287837E2,9.102297783E0,9.044869542E-1,-1.268195987E0
8.899287837E2,9.341579437E0,2.584248483E-1,4.019941986E-1
8.904287837E2,9.968499184E0,1.627119422E0,-2.790031195E0
8.909287837E2,9.877572060E0,7.992027402E-1,-7.561319470E-1
8.914287837E2,9.647860527E0,1.746760488E0,-1.383051515E0
8.919287837E2,9.379864693E0,4.163511395E-1,-1.627119333E-1
8.924287837E2,1.078684425E1,1.043270707E0,-1.052842021E0
8.929287837E2,1.050927734E1,1.234696507E0,-7.034898400E-1
8.934287837E2,9.623932838E0,1.641476393E0,-8.709874153E-1
8.939287837E2,9.537791252E0,5.647061467E-1,-2.871387303E-1
8.944287837E2,1.087298584E1,6.652047038E-1,4.785645381E-2
8.949287837E2,8.738588333E0,1.110269666E0,-8.997012973E-1
8.954287837E2,9.537791252E0,8.901300430E-1,-1.000199914E0
8.959287837E2,1.017428207E1,1.004985452E0,-1.454836130E0
8.964287837E2,9.360722542E0,1.363908887E0,-1.718046665E0
8.969287837E2,9.025727272E0,6.364908218E-1,-3.440878868E0
8.974287837E2,9.346364975E0,1.071984529E0,-2.282752752E0
8.979287837E2,1.011685371E1,1.033699393E0,-2.273181438E0
8.984287837E2,1.026999474E1,1.196411371E0,-1.622333765E0
8.989287837E2,9.513862610E0,6.652047038E-1,-1.890329838E0
8.994287837E2,9.375079155E0,8.470591903E-1,-1.722832322E0
8.999287837E2,9.930213928E0,8.901300430E-1,-1.383051515E0
9.004287837E2,1.020299530E1,8.470591903E-1,-2.670390129E0
9.009287837E2,9.925428391E0,7.369893789E-1,-9.619147182E-1
9.014287837E2,9.973284721E0,1.244267821E0,-1.933400750E0
9.019287837E2,9.073583603E0,9.571290612E-1,-1.808973908E0
9.024287837E2,9.150154114E0,6.939185858E-1,-1.617548108E0
9.029287837E2,9.332008362E0,8.757730722E-1,-4.833501875E-1
9.034287837E2,9.662218094E0,1.052842021E0,-6.029912829E-1
9.039287837E2,9.671789169E0,8.997012973E-1,-1.287338614E0
9.044287837E2,9.647860527E0,9.475577474E-1,-7.657032609E-1
9.049287837E2,9.035298347E0,8.757730722E-1,-1.397408366E0
9.054287837E2,9.887143135E0,1.028913736E0,-1.502692580E0
9.059287837E2,1.028913784E1,1.445264935E0,-2.895315409E0
9.064287837E2,8.714659691E0,7.465606928E-1,-1.373480201E0
9.069287837E2,1.065763187E1,1.488335729E0,-5.599204898E-1
9.074287837E2,8.963513374E0,8.518448472E-1,-1.957328916E0
9.079287837E2,8.858229637E0,9.954141974E-1,-1.430907965E0
9.084287837E2,9.657432556E0,8.949156404E-1,-1.689332843E0
9.089287837E2,9.954142570E0,5.072783828E-1,-7.369893789E-1
9.094287837E2,9.748359680E0,1.373480201E0,-2.201396942E0
9.099287837E2,9.145368576E0,4.450650215E-1,-1.627119422E0
9.104287837E2,9.341579437E0,9.188438654E-1,-7.465606928E-1
9.109287837E2,1.049970531E1,1.105484009E0,-6.460621357E-1
9.114287837E2,8.839086533E0,1.009771109E0,-1.426122308E0
9.119287837E2,9.595218658E0,-1.435693540E-2,-1.569691658E0
9.124287837E2,1.003071213E1,7.848458290E-1,-5.694918036E-1
9.129287837E2,1.094477081E1,1.339980721E0,-2.301895380E0
9.134287837E2,8.819944382E0,8.997012973E-1,-2.225325108E0
9.139287837E2,1.032263660E1,7.704889178E-1,-7.992027402E-1
9.144287837E2,9.556933403E0,6.843472719E-1,-2.153540373E0
9.149287837E2,1.011685371E1,3.206382394E-1,-1.584048629E0
9.154287837E2,9.877572060E0,4.977070987E-1,-1.440479279E0
9.159287837E2,9.040083885E0,6.556333899E-1,-1.019342422E0
9.164287837E2,9.623932838E0,1.095912814E0,-2.502892494E0
9.169287837E2,8.154739380E0,3.637090325E-1,-1.727617979E0
9.174287837E2,1.004506969E1,9.667003751E-1,-2.139183521E0
9.179287837E2,1.038485050E1,8.901300430E-1,-4.737788737E-1
9.184287837E2,1.059541893E1,5.934200287E-1,-1.177268744E0
9.189287837E2,9.853643417E0,8.997012973E-1,-9.571290575E-3
9.194287837E2,9.585647583E0,8.662018180E-1,-1.761117458E0
9.199287837E2,8.915657043E0,7.848458290E-1,-2.742174864E0
9.204287837E2,9.217152596E0,6.795616150E-1,-1.373480201E0
9.209287837E2,1.010728264E1,1.182054400E0,-1.861616015E0
9.214287837E2,8.729017258E0,4.354937077E-1,-1.354337573E0
9.219287837E2,9.954142570E0,8.709874153E-1,-2.435893536E0
9.224287837E2,8.997013092E0,6.364908218E-1,-1.799402595E0
9.229287837E2,1.015035343E1,6.173482537E-1,-2.096112728E0
9.234287837E2,9.044869423E0,9.188438654E-1,-2.244467735E0
9.239287837E2,1.040399265E1,8.039883971E-1,-4.498506486E-1
9.244287837E2,1.075813103E1,1.478764415E0,-2.129612207E0
9.249287837E2,9.375079155E0,6.364908218E-1,-2.584248483E-1
9.254287837E2,9.853643417E0,1.478764415E0,-2.043470621E0
9.259287837E2,9.035298347E0,1.124626637E0,-1.880758643E0
9.264287837E2,9.207581520E0,5.742774606E-1,-4.450650215E-1
9.269287837E2,8.867800713E0,1.052842021E0,-2.785245657E0
9.274287837E2,1.116969585E1,9.379864931E-1,-1.172483087E0
9.279287837E2,9.667003632E0,4.642075896E-1,-1.512263894E0
9.284287837E2,9.513862610E0,1.579262912E-1,-1.660618901E0
9.289287837E2,9.930213928E0,1.962114573E-1,-1.531406492E-1
9.294287837E2,9.083154678E0,3.493520916E-1,-7.561319470E-1
9.299287837E2,9.054440498E0,1.914258152E-1,-1.727617979E0
9.304287837E2,9.078369141E0,2.775674164E-1,-2.335394859E0
9.309287837E2,1.032263660E1,8.374879360E-1,-1.560120344E0
9.314287837E2,9.279366493E0,6.652047038E-1,-1.502692580E0
9.319287837E2,9.576076508E0,5.072783828E-1,-1.182054400E0
9.324287837E2,9.126225471E0,-2.153540403E-1,-1.421336651E0
9.329287837E2,9.102297783E0,2.536391914E-1,-9.092726111E-1
9.334287837E2,9.667003632E0,2.440679073E-1,-4.307080805E-2
9.339287837E2,9.308079720E0,2.249253243E-1,-2.225325108E0
9.344287837E2,1.063370419E1,2.967100143E-1,-2.478964329E0
9.349287837E2,1.018385315E1,-7.657032460E-2,-7.034898400E-1
9.354287837E2,1.004985523E1,-1.148554832E-1,-1.727617979E0
9.359287837E2,1.052363396E1,2.297109663E-1,-1.445264935E0
9.364287837E2,1.004985523E1,3.637090325E-1,-2.148754835E0
9.369287837E2,9.547362328E0,-3.541377485E-1,-1.497906923E0
9.374287837E2,1.010728264E1,-4.594219327E-1,-1.636690736E0
9.379287837E2,9.016156197E0,2.679961324E-1,-2.388036966E0
9.384287837E2,1.027956581E1,8.231309652E-1,-2.584248543E0
9.389287837E2,9.111868858E0,1.818545163E-1,-1.435693622E0
9.394287837E2,9.394221306E0,1.196411327E-1,-1.785045743E0
9.399287837E2,1.016471100E1,1.483550072E-1,-1.564906001E0
9.404287837E2,9.169296265E0,-1.914258152E-1,-2.191825628E0
9.409287837E2,9.614361763E0,-2.105683982E-1,-1.225125194E0
9.414287837E2,1.070070267E1,3.302095234E-1,-1.789831281E0
9.419287837E2,9.930213928E0,4.737788737E-1,-1.162911773E0
9.424287837E2,9.446864128E0,6.269195080E-1,-1.885544300E0
9.429287837E2,1.016471100E1,6.747759581E-1,-2.153540373E0
9.434287837E2,7.154539585E0,-1.674975902E-1,-1.167697430E0
9.439287837E2,9.576076508E0,8.327022791E-1,-4.737788737E-1
9.444287837E2,1.061456108E1,8.231309652E-1,-2.450250387E0
9.449287837E2,7.336394310E0,3.302095234E-1,-1.124626637E0
9.454287837E2,1.040877819E1,1.454836130E0,-3.393022537E0
9.459287837E2,9.159725189E0,4.307080805E-1,-1.603191137E0
9.464287837E2,1.070548820E1,6.843472719E-1,-1.842473388E0
9.469287837E2,9.040083885E0,2.536391914E-1,-1.148554921E0
9.474287837E2,1.215553856E1,8.422735929E-1,-1.167697430E0
9.479287837E2,8.532805443E0,0.000000000E0,-1.316052437E0
9.484287837E2,9.470791817E0,2.871387079E-2,-1.875972986E0
9.489287837E2,8.891729355E0,3.302095234E-1,-1.655833244E0
9.494287837E2,1.035613632E1,1.914258152E-1,-9.284151793E-1
9.499287837E2,9.796216011E0,1.770688742E-1,-1.234696507E0
9.504287837E2,8.839086533E0,5.264209956E-2,-1.406979680E0
9.509287837E2,9.858428955E0,7.034898400E-1,-1.105484009E0
9.514287837E2,1.067677498E1,9.284151793E-1,-1.521835208E0
9.519287837E2,9.020941734E0,1.387837082E-1,-1.009771109E0
9.524287837E2,1.001635551E1,6.795616150E-1,-7.896314859E-1
9.529287837E2,9.868000984E0,6.173482537E-1,-1.942971945E0
9.534287837E2,9.097511292E0,1.531406492E-1,-1.301695466E0
9.539287837E2,1.153340530E1,1.138983607E0,-2.919243574E0
9.544287837E2,1.036092186E1,9.667003751E-1,-8.901300430E-1
9.549287837E2,1.149990559E1,1.665404558E0,-9.954141974E-1
9.554287837E2,1.044706345E1,1.095912814E0,-1.694118381E0
9.559287837E2,8.336593628E0,-7.178468257E-2,-4.455435753E0
9.564287837E2,1.042313576E1,9.475577474E-1,-2.024327993E0
9.569287837E2,7.853243828E0,-3.014956415E-1,-2.876172781E0
9.574287837E2,8.001599312E0,1.004985496E-1,-3.196810961E0
9.579287837E2,8.015955925E0,-7.178468257E-2,-3.182454109E0
9.584287837E2,6.967899323E0,-6.412764788E-1,-3.613162279E0
9.589287837E2,9.643074989E0,6.317051649E-1,-2.469393015E0
9.594287837E2,1.008814049E1,7.657032609E-1,-2.359323025E0
9.599287837E2,8.403593063E0,2.009970993E-1,-1.837687731E0
9.604287837E2,9.284152031E0,3.349951804E-1,-2.919243574E0
9.609287837E2,1.063848972E1,1.024128079E0,-1.962114573E0
9.614287837E2,1.167697430E1,1.402194023E0,-2.751745939E0
9.619287837E2,1.092562866E1,7.226324677E-1,-2.301895380E0
9.624287837E2,1.113141060E1,9.092726111E-1,-2.330609322E0
9.629287837E2,8.767302513E0,4.115654826E-1,-2.129612207E0
9.634287837E2,8.465806961E0,-4.785645381E-2,-1.670190215E0
9.639287837E2,1.018385315E1,4.929214716E-1,-2.143969059E0
9.644287837E2,9.054440498E0,1.100698411E-1,-2.469393015E0
9.649287837E2,9.576076508E0,4.785645306E-1,-2.215753794E0
9.654287837E2,9.681360245E0,2.967100143E-1,-2.153540373E0
9.659287837E2,9.169296265E0,9.571290761E-2,-1.670190215E0
9.664287837E2,1.037049294E1,5.790630579E-1,-1.718046665E0
9.669287837E2,9.399007797E0,7.513462901E-1,-2.364108801E0
9.674287837E2,8.834300995E0,2.727817893E-1,-2.043470621E0
9.679287837E2,1.023170948E1,7.082754970E-1,-1.588834286E0
9.684287837E2,8.748159409E0,2.488535494E-1,-2.076970100E0
9.689287837E2,1.132762241E1,1.009771109E0,-1.469193101E0
9.694287837E2,8.839086533E0,5.024927258E-1,-2.033899307E0
9.699287837E2,8.441878319E0,-1.387837082E-1,-2.756531715E0
9.704287837E2,9.413364410E0,6.987041831E-1,-1.679761529E0
9.709287837E2,9.714859962E0,8.614161611E-1,-1.732403636E0
9.714287837E2,9.188439369E0,5.168496966E-1,-2.100898266E0
9.719287837E2,8.575876236E0,6.699903309E-2,-2.340180635E0
9.724287837E2,9.523433685E0,3.876372576E-1,-2.100898266E0
9.729287837E2,9.853643417E0,9.188438654E-1,-1.272981644E0
9.734287837E2,1.048534870E1,9.236295223E-1,-1.789831281E0
9.739287837E2,8.039883614E0,-7.657032460E-2,-2.273181438E0
9.744287837E2,1.101177025E1,1.062413216E0,-1.272981644E0
9.749287837E2,9.556933403E0,1.048056364E0,-2.005185366E0
9.754287837E2,8.824729919E0,3.732803464E-1,-1.617548108E0
9.759287837E2,8.451449394E0,1.435693651E-1,-1.718046665E0
9.764287837E2,8.312665939E0,6.699903309E-2,-1.651047587E0
9.769287837E2,1.010728264E1,5.694918036E-1,-2.019542217E0
9.774287837E2,9.083154678E0,4.211367965E-1,-1.584048629E0
9.779287837E2,1.052363396E1,9.762716293E-1,-1.737189293E0
9.784287837E2,1.054277611E1,1.124626637E0,-2.100898266E0
9.789287837E2,1.061456108E1,8.374879360E-1,-2.450250387E0
9.794287837E2,9.418149948E0,6.269195080E-1,-2.210968018E0
9.799287837E2,9.772287369E0,5.216353536E-1,-1.435693622E0
9.804287837E2,9.556933403E0,1.052842021E0,-2.684746981E0
9.809287837E2,1.029392338E1,8.279166222E-1,-2.364108801E0
9.814287837E2,9.801001549E0,7.657032609E-1,-1.651047587E0
9.819287837E2,1.065284634E1,1.316052437E0,-8.279166222E-1
9.824287837E2,9.834501266E0,9.571290612E-1,-2.507678032E0
9.829287837E2,8.604590416E0,1.531406492E-1,-2.656033039E0
9.834287837E2,9.815358162E0,6.556333899E-1,-1.344766378E0
9.839287837E2,8.872586250E0,4.402793646E-1,-1.296909928E0
9.844287837E2,1.067677498E1,1.004985452E0,-1.473978758E0
9.849287837E2,8.714659691E0,6.412764788E-1,-2.057827473E0
9.854287837E2,1.024606609E1,1.076770186E0,-2.234896421E0
9.859287837E2,8.197810173E0,5.024927258E-1,-2.057827473E0
9.864287837E2,8.839086533E0,7.704889178E-1,-1.875972986E0
9.869287837E2,9.336793900E0,6.652047038E-1,-1.158126116E0
9.874287837E2,8.312665939E0,4.115654826E-1,-2.273181438E0
9.879287837E2,1.048056316E1,8.853443861E-1,-2.158325911E0
9.884287837E2,1.082512951E1,7.130611539E-1,-2.593819857E0
9.889287837E2,9.738788605E0,7.992027402E-1,-1.751546144E0
9.894287837E2,9.839286804E0,6.747759581E-1,-1.794616938E0
9.899287837E2,1.124148083E1,1.229910851E0,-8.997012973E-1
9.904287837E2,1.006899738E1,2.679961324E-1,-1.694118381E0
9.909287837E2,9.030512810E0,6.221338734E-2,-1.550549030E0
9.914287837E2,9.025727272E0,2.871387303E-1,-2.263610125E0
9.919287837E2,8.910871506E0,7.322037220E-1,-1.765903115E0
9.924287837E2,9.054440498E0,1.483550072E-1,-1.804188251E0
9.929287837E2,9.820143700E0,7.226324677E-1,-1.172483087E0
9.934287837E2,1.099741268E1,9.427721500E-1,-1.823330879E0
9.939287837E2,1.127976608E1,1.268195987E0,-1.517049551E0
9.944287837E2,9.729216576E0,5.359922647E-1,-1.636690736E0
9.949287837E2,8.762516975E0,2.488535494E-1,-2.354537487E0
9.954287837E2,8.709874153E0,4.067798555E-1,-2.388036966E0
9.959287837E2,8.212167740E0,2.488535494E-1,-2.191825628E0
9.964287837E2,8.542376518E0,5.982056856E-1,-1.962114573E0
9.969287837E2,9.978070259E0,7.082754970E-1,-1.698904037E0
9.974287837E2,1.029392338E1,1.095912814E0,-1.301695466E0
9.979287837E2,1.038963604E1,2.871387303E-1,-1.665404558E0
9.984287837E2,1.020299530E1,3.828516304E-1,-1.493121386E0
9.989287837E2,8.891729355E0,1.148554832E-1,-9.954141974E-1
9.994287837E2,8.772088051E0,9.092725813E-2,-1.852044702E0
9.999287837E2,9.896714211E0,2.392822653E-1,-1.775474429E0
1.000428784E3,1.070070267E1,3.302095234E-1,-1.871187329E0
1.000928784E3,1.044227791E1,2.584248483E-1,-1.780260086E0
1.001428784E3,8.939585686E0,-3.349951804E-1,-2.354537487E0
1.001928784E3,1.034177971E1,-8.614161611E-2,-8.949156404E-1
1.002428784E3,9.413364410E0,-4.785645306E-1,-1.411765337E0
1.002928784E3,9.533005714E0,-1.674975902E-1,-2.493321180E0
1.003428784E3,1.022692394E1,5.647061467E-1,-2.799602509E0
1.003928784E3,9.059226990E0,1.052841991E-1,-2.684746981E0
1.004428784E3,9.911071777E0,5.120640397E-1,-2.177468538E0
1.004928784E3,9.461220741E0,5.455635786E-1,-2.038684845E0
1.005428784E3,1.001635551E1,4.498506486E-1,-1.186840057E0
1.005928784E3,9.159725189E0,-1.770688742E-1,-1.186840057E0
1.006428784E3,1.001156998E1,5.742774159E-2,-1.751546144E0
1.006928784E3,1.015513897E1,-3.158525825E-1,-8.805587292E-1
1.007428784E3,9.384650230E0,-2.344966233E-1,-1.387837172E0
1.007928784E3,9.987641335E0,6.221338734E-2,-3.182454109E0
1.008428784E3,9.427721024E0,1.148554832E-1,-2.182254314E0
1.008928784E3,1.043270683E1,4.211367965E-1,-1.823330879E0
1.009428784E3,9.059226990E0,-5.742774159E-2,-1.469193101E0
1.009928784E3,9.312865257E0,-5.072783828E-1,-1.574477315E0
1.010428784E3,9.767501831E0,-3.732803464E-1,-2.009970903E0
1.010928784E3,9.868000984E0,-6.460621357E-1,-1.105484009E0
1.011428784E3,1.064806080E1,-4.450650215E-1,-1.852044702E0
1.011928784E3,1.002592659E1,-1.100698471E0,-8.135597110E-1
1.012428784E3,1.009292603E1,-4.977070987E-1,-2.019542217E0
1.012928784E3,9.442078590E0,-2.871387079E-2,-2.038684845E0
1.013428784E3,9.265008926E0,1.148554832E-1,-2.450250387E0
1.013928784E3,9.724431038E0,2.392822653E-1,-1.282552958E0
1.014428784E3,9.035298347E0,3.828516230E-2,-1.914258122E0
1.014928784E3,1.073898792E1,7.513462901E-1,-1.713261008E0
1.015428784E3,9.676574707E0,1.531406492E-1,-1.430907965E0
1.015928784E3,9.891928673E0,2.632105052E-1,-2.210968018E0
1.016428784E3,9.576076508E0,1.292124242E-1,-2.799602509E0
1.016928784E3,9.284152031E0,1.196411327E-1,-2.574677229E0
1.017428784E3,1.024128056E1,3.732803464E-1,-2.780459881E0
1.017928784E3,8.542376518E0,-6.699903309E-2,-1.354337573E0
1.018428784E3,1.067677498E1,9.092726111E-1,-2.244467735E0
1.018928784E3,1.006421185E1,5.312066078E-1,-1.048056364E0
1.019428784E3,9.982855797E0,2.727817893E-1,-2.344966173E0
1.019928784E3,9.403793335E0,1.579262912E-1,-1.507478237E0
1.020428784E3,9.437292099E0,-3.780659735E-1,-1.856830359E0
1.020928784E3,9.499505997E0,-2.727817893E-1,-1.521835208E0
1.021428784E3,9.044869423E0,1.387837082E-1,-1.866401672E0
1.021928784E3,1.032263660E1,4.642075896E-1,-8.087740541E-1
1.022428784E3,9.097511292E0,6.987041831E-1,-3.780659735E-1
1.022928784E3,9.552147865E0,4.642075896E-1,-1.722832322E-1
1.023428784E3,9.346364975E0,5.024927258E-1,-1.000199914E0
1.023928784E3,1.096391296E1,1.138983607E0,4.785645381E-2
1.024428784E3,8.327022552E0,4.019941986E-1,-9.284151793E-1
1.024928784E3,9.829715729E0,6.125625968E-1,-3.091526747E0
1.025428784E3,7.700103283E0,-1.914258152E-1,-3.120240688E0
1.025928784E3,9.025727272E0,1.962114573E-1,-3.287738323E0
1.026428784E3,9.796216011E0,1.225125194E0,-3.440878868E0
1.026928784E3,1.133240795E1,1.938186288E0,-2.076970100E0
1.027428784E3,7.982456207E0,6.317051649E-1,-2.799602509E0
1.027928784E3,1.111705399E1,2.105684042E0,-1.607976794E0
1.028428784E3,1.041835022E1,2.809173822E0,-2.148754835E0
1.028928784E3,7.810173035E0,5.886343718E-1,-3.211168051E0
1.029428784E3,1.020299530E1,1.574477315E0,-1.292124271E0
1.029928784E3,9.336793900E0,1.526620865E0,-2.545963287E0
1.030428784E3,9.006584167E0,1.962114573E0,-3.699303865E0
1.030928784E3,1.099262714E1,2.502892494E0,-2.316252232E0
1.031428784E3,9.312865257E0,1.397408366E0,-3.139383316E0
1.031928784E3,1.015992451E1,2.325823545E0,-2.732603550E0
1.032428784E3,1.034177971E1,2.488535643E0,-2.852244616E0
1.032928784E3,9.623932838E0,1.919043779E0,-1.737189293E0
1.033428784E3,8.652446747E0,1.794616938E0,-2.699103832E0
1.033928784E3,9.317651749E0,1.957328916E0,-1.426122308E0
1.034428784E3,1.079162979E1,2.847458839E0,-2.239681959E0
