"Time (s)","Gyroscope x (rad/s)","Gyroscope y (rad/s)","Gyroscope z (rad/s)"
2.705588630E-1,-2.000582218E-1,-3.740019500E-1,-9.315688163E-3
7.746773000E-1,5.039634556E-2,-8.857538924E-3,-2.834412456E-1
1.278796155E0,-7.683151960E-1,2.880227566E-1,-7.987056673E-2
1.782915269E0,4.103484154E-1,-8.649845123E-1,-2.638935745E-1
2.287034592E0,2.637408674E-1,-1.181565166E0,1.666133702E-1
2.791154227E0,-3.084867075E-2,-8.828523159E-1,4.828886092E-1
3.295274644E0,1.316413581E-1,-8.605557680E-1,1.001512766E0
3.799395790E0,-1.192713454E-1,1.922696829E-1,-1.944077164E-1
4.303517509E0,-6.352993846E-2,2.244928107E-2,-5.528326333E-2
4.807639592E0,-5.726857483E-2,1.090393662E-1,5.955931731E-3
5.311761884E0,1.782197952E-1,-3.784307241E-1,-2.811505198E-1
5.815883967E0,-4.581485875E-3,-2.214384824E-2,1.608101577E-1
6.320005634E0,-6.368265301E-2,1.069013379E-3,-7.819069177E-2
6.824126571E0,-9.010255337E-3,3.359756246E-2,1.597411335E-1
7.328246675E0,-3.115410358E-2,2.168569900E-2,9.758564830E-2
7.832366050E0,5.115992576E-2,2.443459118E-3,-1.295033395E-1
8.336484592E0,-2.718348242E-2,-6.505709887E-2,-4.856374860E-2
8.840602457E0,1.740964688E-2,1.435532235E-2,-3.649916872E-2
9.344719488E0,3.817904973E-3,3.313941509E-2,4.871646687E-2
9.848835790E0,-1.649334840E-2,-9.010255337E-3,1.481347065E-2
1.035295136E1,7.024944760E-3,4.886918236E-3,-3.634645417E-2
1.085706642E1,1.863137633E-2,-5.650499370E-3,-9.468403645E-3
1.136118183E1,-2.748891478E-3,-1.237001177E-2,-7.788525894E-3
1.186529824E1,1.359174121E-2,6.261364091E-3,-2.443459118E-3
1.236941563E1,9.773836471E-3,7.635809947E-3,-1.985310577E-2
1.287353360E1,-1.511890348E-2,-7.330377586E-3,1.985310577E-3
1.337765194E1,2.321286127E-2,5.192350596E-3,-1.924224012E-2
1.388177032E1,-3.207040019E-3,-5.497782957E-3,7.635809598E-4
1.438588839E1,7.483093534E-3,-8.552107029E-3,-2.321286127E-2
1.489000574E1,-7.177661173E-3,-7.635809947E-3,3.940077871E-2
1.539412209E1,3.817904973E-3,2.412915789E-2,-1.527161949E-4
1.589823746E1,-2.046396956E-2,6.108647678E-3,4.123337101E-3
1.640235199E1,-1.588248461E-2,-1.374445739E-3,3.069595434E-2
1.690646584E1,2.107483521E-2,-1.267544460E-2,1.603520103E-2
1.741057902E1,-1.313359290E-2,6.108647794E-4,2.962694131E-2
1.791469162E1,1.343902480E-2,1.221729559E-3,-3.878991306E-2
1.841880371E1,-2.290742937E-3,-3.817904973E-3,1.542433538E-2
1.892291506E1,6.414080039E-3,9.162971750E-3,-9.010255337E-3
1.942702579E1,2.290742937E-3,-1.221729559E-3,-1.023198478E-2
1.993113569E1,1.145371422E-2,6.108647794E-4,1.832594397E-3
2.043524496E1,-4.886918236E-3,2.901607659E-3,3.512472380E-3
2.093935397E1,-1.679878100E-3,-2.748891478E-3,4.734201822E-3
2.144346313E1,-1.832594397E-3,-1.099556591E-2,-1.114828233E-2
2.194757272E1,-5.497782957E-3,-9.621120058E-3,-5.803215317E-3
2.245168261E1,2.443459118E-3,5.345067009E-3,-7.177661173E-3
2.295579261E1,1.985310577E-3,1.985310577E-3,6.566796452E-3
2.345990266E1,4.734201822E-3,2.596175298E-3,-3.359756200E-3
2.396401267E1,-4.123337101E-3,-5.803215317E-3,-4.886918236E-3
2.446812272E1,-2.596175298E-3,-9.926552884E-3,7.024944760E-3
2.497223241E1,9.621120058E-3,1.007926930E-2,-1.099556591E-2
2.547634142E1,1.527161920E-3,-7.941242307E-3,2.199113183E-2
2.598044970E1,-8.093958721E-3,-9.621120058E-3,-2.428187430E-2
2.648455735E1,-5.421425030E-2,-3.894263133E-2,1.496618688E-1
2.698866475E1,-1.053741761E-2,3.298669681E-2,2.748891525E-2
2.749277199E1,-1.450803876E-2,2.474002354E-2,-2.015853859E-2
2.799687918E1,3.268126398E-2,3.375028074E-2,1.069013379E-3
2.850098621E1,2.000582218E-2,-7.330377586E-3,2.703076601E-2
2.900509298E1,-1.221729559E-3,1.069013379E-3,5.024362728E-2
2.950919954E1,5.345067009E-3,2.336557768E-2,-2.855792828E-2
3.001330569E1,9.926552884E-3,1.221729536E-2,-1.863137633E-2
3.051741152E1,7.330377586E-3,-2.306014486E-2,1.221729536E-2
3.102151699E1,-1.145371422E-2,1.863137633E-2,4.932733253E-2
3.152562204E1,2.703076601E-2,-9.468403645E-3,-7.070759684E-2
3.202972688E1,1.053741761E-2,-1.282816008E-2,-5.894844979E-2
3.253383152E1,1.802051067E-2,-1.908952370E-2,-1.566868126E-1
3.303793589E1,8.704823442E-3,7.483093534E-3,5.146535859E-2
3.354203990E1,-3.054323897E-4,-5.390881747E-2,2.977965772E-2
3.404614350E1,-2.183841541E-2,-1.023198478E-2,1.206457894E-2
3.455024668E1,6.566796452E-3,1.924224012E-2,-1.983783394E-1
3.505434954E1,-2.932151034E-2,-3.176496923E-2,-3.665188700E-2
3.555845199E1,7.559451461E-2,6.536252797E-2,1.122464016E-1
3.606255402E1,3.359756200E-3,1.679878100E-3,1.653916389E-1
3.656665553E1,-7.788525894E-3,-1.542433538E-2,4.184423760E-2
3.707075657E1,-2.336557768E-2,3.649916872E-2,-1.893680729E-2
3.757485743E1,8.399390616E-3,1.679878100E-3,-2.199113183E-2
3.807895764E1,5.955931731E-3,-3.817904973E-3,-2.901607659E-3
3.858305743E1,1.985310577E-3,-6.108647678E-3,-7.177661173E-3
3.908715717E1,-1.374445739E-3,3.970621154E-3,-2.290742937E-3
3.959125686E1,2.748891478E-3,-5.192350596E-3,1.374445739E-3
4.009535660E1,-2.443459118E-3,-5.955931731E-3,-1.450803876E-2
4.059945639E1,-1.985310577E-3,-5.192350596E-3,-9.926552884E-3
4.110355634E1,-0.000000000E0,-5.039634649E-3,-3.207040206E-2
4.160765639E1,6.108647678E-3,-2.901607659E-3,-1.343902480E-2
4.211175660E1,5.345067009E-3,-3.054323897E-4,-6.566796452E-3
4.261585665E1,2.168569900E-2,1.007926930E-2,-1.252272818E-2
4.311995660E1,2.458730713E-2,-2.794706449E-2,-1.069013379E-3
4.362405624E1,4.138609022E-2,-3.970621154E-3,1.527161989E-2
4.412815577E1,3.711003438E-2,-2.168569900E-2,-1.221729559E-3
4.463225519E1,5.253437161E-2,-3.665188793E-3,-3.359756200E-3
4.513635462E1,3.756818548E-2,-2.871064469E-2,-3.069595434E-2
4.564045394E1,3.191768378E-2,-4.016435891E-2,6.108647794E-4
4.614455306E1,1.175914705E-2,1.466075517E-2,4.657844082E-2
4.664865212E1,-7.330377586E-3,-2.825249545E-2,2.901607752E-2
4.715275155E1,-2.871064469E-2,-1.908952370E-2,2.061668597E-2
4.765685155E1,-3.268126398E-2,7.177661173E-3,-2.138026757E-3
4.816095207E1,-3.573558852E-2,-1.435532235E-2,7.177661173E-3
4.866505295E1,-5.192350596E-2,-1.359174121E-2,-1.740964688E-2
4.916915410E1,-6.139190868E-2,-1.847865991E-2,2.748891525E-2
4.967325556E1,-1.098029464E-1,-4.948004708E-2,-2.138026757E-3
5.017735728E1,-1.316413581E-1,4.138609022E-2,1.374445762E-2
5.068145952E1,-2.076940238E-1,-1.354592592E-1,5.024362728E-2
5.118556223E1,-1.533270627E-1,-9.514218569E-2,1.446222365E-1
5.168966530E1,-2.623664141E-1,3.344484791E-2,2.626718581E-2
5.219376853E1,-2.315177470E-1,1.052214578E-1,9.880737960E-2
5.269787181E1,-2.037234008E-1,2.006690800E-1,3.023780696E-2
5.320197504E1,-1.513417512E-1,2.208276242E-1,1.423314959E-1
5.370607811E1,-6.230820715E-2,-2.031125315E-2,3.772090003E-2
5.421018108E1,2.397644334E-2,-1.679878100E-3,-3.787361458E-2
5.471428389E1,1.252272818E-2,1.985310577E-2,-6.414080039E-3
5.521838660E1,1.175914705E-2,-5.803215504E-2,-3.543015569E-2
5.572248920E1,9.162971750E-3,-4.444041103E-2,-1.050687432E-1
5.622659170E1,2.535088919E-2,3.543015569E-2,9.498947114E-2
5.673069420E1,1.832594350E-2,-8.399390616E-3,-3.680460155E-2
5.723479655E1,2.076940238E-2,-5.803215317E-3,2.916879393E-2
5.773889863E1,2.076940238E-2,-1.832594397E-3,1.359174121E-2
5.824300056E1,2.122755162E-2,2.000582218E-2,5.543597788E-2
5.874710228E1,2.229656465E-2,-3.069595434E-2,-6.597339362E-2
5.925120374E1,-2.855792828E-2,1.148425788E-1,-6.261364091E-3
5.975530488E1,4.764745384E-2,-9.972367436E-2,2.565632015E-2
6.025940566E1,2.122755162E-2,1.024725661E-1,-9.285144508E-2
6.076350634E1,3.359756200E-3,-6.536252797E-2,5.329795182E-2
6.126760691E1,1.603520103E-2,-3.344484791E-2,-6.200277433E-2
6.177170759E1,-3.161225095E-2,1.976147592E-1,-2.550360374E-2
6.227580832E1,5.375609919E-2,-2.547306120E-1,4.612028971E-2
6.277990894E1,5.986474827E-2,-2.214384824E-2,-1.188132018E-1
6.328400967E1,-1.756236330E-2,1.351538301E-1,2.244928107E-2
6.378811056E1,4.398226365E-2,-1.359174103E-1,-2.962694131E-2
6.429221160E1,2.382372692E-2,9.926552884E-3,-5.039634649E-3
6.479631264E1,1.496618707E-2,-9.773836471E-3,-2.901607659E-3
6.530041358E1,1.282816008E-2,-3.665188793E-3,-1.221729536E-2
6.580451446E1,1.832594397E-3,-1.404988952E-2,1.221729559E-3
6.630861535E1,2.138026757E-3,-4.535670951E-2,-4.886918236E-3
6.681271650E1,1.175914705E-2,-3.359756200E-3,2.031125315E-2
6.731681811E1,-2.764163166E-2,5.803215504E-2,-8.552107029E-3
6.782092014E1,-2.886336111E-2,-3.665188700E-2,6.475166976E-2
6.832502238E1,-4.153880477E-2,5.131264031E-2,3.054323839E-3
6.882912524E1,1.679878100E-3,1.443168074E-1,2.428187430E-2
6.933322639E1,-1.527161920E-3,-7.330377586E-3,-3.100138716E-2
6.983732811E1,1.603520066E-1,2.528980076E-1,-7.666353136E-2
7.034142972E1,1.496618688E-1,-5.259546041E-1,1.192713454E-1
7.084553129E1,7.696896046E-2,-1.053741723E-1,-1.863137633E-2
7.134963327E1,-1.130099818E-1,7.055488229E-2,3.436114267E-2
7.185373624E1,-1.221729536E-2,6.918043643E-2,-1.007926930E-2
7.235784040E1,-1.029307172E-1,1.766926348E-1,-1.450803876E-2
7.286194561E1,-4.886918236E-3,5.222893879E-2,-8.552107029E-3
7.336605160E1,1.053741761E-2,-5.039634556E-2,-5.803215317E-3
7.387015816E1,1.374445762E-2,7.177661173E-3,-2.596175298E-2
7.437426509E1,-2.061668597E-2,-1.939495653E-2,4.886918142E-2
7.487837243E1,-1.191186346E-2,-2.977965772E-2,-3.588830680E-2
7.538248009E1,-8.093958721E-3,1.359174121E-2,-3.054323897E-4
7.588658806E1,-5.345067009E-3,-2.443459071E-2,1.756236330E-2
7.639069603E1,-1.191186346E-2,-2.428187430E-2,-1.099556591E-2
7.689480400E1,-7.024944760E-3,1.725693047E-2,-6.108647678E-3
7.739891207E1,-7.177661173E-3,-5.482511222E-2,1.710421406E-2
7.790302009E1,4.581485991E-4,4.703658819E-2,-5.345067009E-3
7.840712780E1,-1.527161920E-3,-3.512472659E-2,6.719512399E-3
7.891123504E1,1.832594397E-3,6.352993846E-2,6.261364091E-3
7.941534196E1,-8.399390616E-3,-7.055488229E-2,1.710421406E-2
7.991944894E1,2.138026757E-3,4.062250629E-2,-1.298087649E-2
8.042355613E1,-2.901607659E-3,-8.246674202E-3,2.031125315E-2
8.092766358E1,1.374445739E-3,-1.618791744E-2,-9.162971750E-3
8.143177134E1,3.359756200E-3,2.916879393E-2,-5.192350596E-3
8.193587920E1,-1.527161920E-3,1.511890348E-2,1.267544460E-2
8.243998707E1,-4.886918236E-3,-2.626718581E-2,1.985310577E-2
8.294409472E1,-6.719512399E-3,-4.612028971E-2,-1.970038936E-2
8.344820196E1,-1.374445739E-3,3.069595434E-2,1.710421406E-2
8.395230889E1,-2.031125315E-2,-3.191768378E-2,-1.527161949E-4
8.445641561E1,-4.535670951E-2,-4.276053607E-2,3.130681813E-2
8.496052228E1,-8.307760954E-2,-3.634645417E-2,-6.414080039E-3
8.546462884E1,-1.110246703E-1,5.192350596E-3,2.947422490E-2
8.596873545E1,-1.808159798E-1,-3.344484791E-2,5.299251899E-2
8.647284217E1,-2.012799382E-1,7.773254067E-2,3.863719851E-2
8.697694910E1,-2.538143098E-1,3.054323897E-4,6.765327603E-2
8.748105618E1,-2.877173126E-1,-2.504545636E-2,8.032871783E-2
8.798516368E1,-3.234528899E-1,-1.133154184E-1,9.834922850E-2
8.848927144E1,-3.240637779E-1,4.657844082E-2,9.407317638E-2
8.899337905E1,-3.084867001E-1,2.168569900E-2,6.459894776E-2
8.949748655E1,-2.690859437E-1,7.574722916E-2,1.244636998E-1
9.000159400E1,-2.930623889E-1,-6.261363626E-2,9.972367436E-2
9.050570134E1,-2.504545450E-1,1.237001177E-2,8.063415438E-2
9.100980868E1,-1.719584316E-1,5.314523727E-2,2.336557768E-2
9.151391608E1,-8.506292105E-2,1.586721241E-1,1.023198478E-2
9.201802327E1,-4.276053514E-3,3.665188793E-3,-1.206457894E-2
9.252213024E1,3.711003438E-2,4.184423760E-2,-2.641990222E-2
9.302623686E1,7.422006875E-2,-3.313941509E-2,-1.450803876E-2
9.353034301E1,7.391463965E-2,3.588830680E-2,-2.932151034E-2
9.403444900E1,9.712749720E-2,1.252272818E-2,-2.260199748E-2
9.453855504E1,1.091920808E-1,7.483093534E-3,-1.603520103E-2
9.504266113E1,1.232419685E-1,-8.093958721E-3,-2.916879393E-2
9.554676754E1,1.189659163E-1,-3.115410358E-2,-1.466075517E-2
9.605087394E1,1.223256737E-1,1.679878100E-3,-1.511890348E-2
9.655498040E1,1.401934624E-1,-2.809977904E-2,-4.199695215E-2
9.705908702E1,8.689551800E-2,4.062250629E-2,-1.817322709E-2
9.756319350E1,1.099556610E-1,-1.676823795E-1,-2.993237413E-2
9.806730054E1,4.596757516E-2,1.832594397E-3,2.871064469E-2
9.857140793E1,5.024362728E-2,5.726857483E-2,1.740964688E-2
9.907551564E1,1.374445739E-3,1.114828214E-1,3.145953640E-2
9.957962356E1,2.840521187E-2,1.211039424E-1,6.291907281E-2
1.000837317E2,8.552107029E-3,-4.077522457E-2,-1.939495653E-2
1.005878399E2,2.412915789E-2,-4.123337101E-3,-6.872228812E-3
1.010919481E2,2.443459071E-2,-3.451386094E-2,-1.435532235E-2
1.015960563E2,2.031125315E-2,7.024944760E-3,-1.985310577E-3
1.021001647E2,1.954767294E-2,1.267544460E-2,-7.635809598E-4
1.026042732E2,1.542433538E-2,-2.382372692E-2,-1.542433538E-2
1.031083824E2,2.076940238E-2,3.543015569E-2,-5.345067009E-3
1.036124922E2,5.314523727E-2,1.298087649E-2,-1.893680729E-2
1.041166025E2,1.004872546E-1,4.367683083E-2,-1.374445762E-2
1.046207135E2,1.169806048E-1,-2.000582218E-2,-1.832594397E-3
1.051248248E2,1.244636998E-1,-1.664606482E-2,-5.345067009E-3
1.056289363E2,1.333212405E-1,-1.710421406E-2,-8.399390616E-3
1.061330482E2,1.391244531E-1,3.054323839E-3,-1.466075517E-2
1.066371605E2,1.395826042E-1,1.420260593E-2,-1.282816008E-2
1.071412732E2,1.235474050E-1,-7.024944760E-3,-2.626718581E-2
1.076453862E2,9.208786488E-2,-6.261363626E-2,4.886918236E-3
1.081494997E2,6.383536756E-2,3.817904973E-3,-2.489273995E-2
1.086536135E2,5.558869615E-2,1.710421406E-2,-1.527161920E-3
1.091577275E2,4.138609022E-2,-1.114828233E-2,-1.145371422E-2
1.096618417E2,1.496618707E-2,-2.764163166E-2,-1.496618707E-2
1.101659563E2,-5.497782957E-3,-1.053741761E-2,3.817904973E-3
1.106700709E2,8.246674202E-3,-9.193515033E-2,9.773836471E-3
1.111741857E2,1.069013402E-2,9.468403645E-3,-6.352993846E-2
1.116783009E2,-3.802633286E-2,1.847865991E-2,7.773254067E-2
1.121824163E2,2.474002354E-2,-1.363755614E-1,-3.924806044E-2
1.126865318E2,-1.863137633E-2,1.624900252E-1,1.649334840E-2
1.131906477E2,7.483093534E-3,-4.276053607E-2,-8.246674202E-3
1.136947637E2,-3.283398226E-2,9.010255337E-2,-2.687804960E-2
1.141988800E2,2.519817278E-2,-1.446222365E-1,3.405570984E-2
1.147029968E2,1.038470119E-2,7.528908551E-2,-1.664606482E-2
1.152071144E2,1.985310577E-3,3.741546720E-2,-1.679878123E-2
1.157112326E2,4.398226365E-2,-3.695731983E-2,-4.673115537E-2
1.162153514E2,8.338304609E-2,5.772672221E-2,-1.450803876E-2
1.167194705E2,1.262962967E-1,1.771507785E-2,-8.552107029E-3
1.172235902E2,1.782197952E-1,-3.497200832E-2,-2.412915789E-2
1.177277104E2,2.122755051E-1,-5.024362728E-2,-4.474584386E-2
1.182318311E2,2.376264036E-1,1.069013402E-2,-6.001746282E-2
1.187359519E2,2.585485280E-1,2.596175298E-3,-4.031707719E-2
1.192400730E2,2.310595959E-1,-1.221729559E-3,-3.237583488E-2
1.197441944E2,1.818849891E-1,-5.222893879E-2,-2.672533318E-2
1.202483161E2,1.293506175E-1,-1.542433538E-2,-2.764163166E-2
1.207524380E2,8.918625861E-2,-6.734783947E-2,-4.016435891E-2
1.212565604E2,4.749473557E-2,-2.779434808E-2,-1.603520103E-2
1.217606830E2,2.244928107E-2,1.985310577E-3,-1.511890348E-2
1.222648061E2,5.803215317E-3,2.168569900E-2,-4.886918236E-3
1.227689299E2,-3.054323839E-3,-2.443459071E-2,6.566796452E-3
1.232730550E2,-9.162971983E-4,-1.058323234E-1,-8.704823442E-3
1.237771815E2,2.748891525E-2,9.071341902E-2,4.581485689E-2
1.242813093E2,-1.511890348E-2,3.252854943E-2,-5.222893879E-2
1.247854381E2,-3.512472380E-3,-2.046396956E-2,3.359756200E-3
1.252895677E2,2.138026757E-3,-7.605266571E-2,1.634063199E-2
1.257936982E2,4.306596518E-2,5.604684353E-2,6.108647957E-2
1.262978294E2,-1.156061590E-1,3.848448098E-1,-1.504254490E-1
1.268019612E2,-2.096793354E-1,6.071996093E-1,-2.165515572E-1
1.273060935E2,5.375609919E-2,1.262962967E-1,-5.146535859E-2
1.278102260E2,3.634645417E-2,4.718930274E-2,4.276053514E-3
1.283143586E2,-3.634645417E-2,-6.719512399E-3,2.168569900E-2
1.288184912E2,5.238165334E-2,-1.463021189E-1,6.261363626E-2
1.293226236E2,7.177661359E-2,-3.940077871E-2,2.967275679E-1
1.298267557E2,-7.605266571E-2,-2.736674249E-1,-6.352993846E-2
1.303308877E2,1.128572673E-1,-1.495091617E-1,3.543015569E-2
1.308350195E2,3.772090003E-2,-1.282816008E-2,4.550942779E-2
1.313391512E2,-8.185587823E-2,-1.366809905E-1,7.208204269E-2
1.318432827E2,-3.756818548E-2,7.956513762E-2,5.589412898E-2
1.323474142E2,-2.764163166E-2,1.618791744E-2,2.809977904E-2
1.328515455E2,-1.557705179E-2,-1.084284950E-2,-4.856374860E-2
1.333556766E2,1.374445739E-3,3.222311661E-2,-3.558287397E-2
1.338598075E2,1.740964688E-2,-1.603520103E-2,1.542433538E-2
1.343639381E2,1.175914705E-1,-9.880737960E-2,-7.987056673E-2
1.348680687E2,4.276053607E-2,-4.123337194E-2,-1.003345400E-1
1.353721991E2,-9.162971750E-3,2.901607752E-2,2.076940238E-2
1.358763294E2,-1.130099874E-2,-9.315688163E-3,-3.375028074E-2
1.363804597E2,2.351829410E-2,-1.175914705E-2,3.985892609E-2
1.368845900E2,-1.007926930E-2,4.886918236E-3,2.748891525E-2
1.373887201E2,-7.788525894E-3,9.773836471E-3,-9.468403645E-3
1.378928502E2,-1.664606482E-2,-1.038470119E-2,-9.773836285E-2
1.383969803E2,1.007926930E-2,1.221729559E-3,2.489273995E-2
1.389011105E2,1.572976820E-2,-1.130099874E-2,2.214384824E-2
1.394052408E2,2.290742937E-3,4.596757516E-2,1.960875988E-1
1.399093712E2,-1.572976820E-2,-3.298669681E-2,-9.071341902E-2
1.404135015E2,-1.374445762E-2,-7.024944760E-3,-7.437278330E-2
1.409176318E2,3.512472380E-3,-8.246674202E-3,-3.909534588E-2
1.414217622E2,2.748891478E-3,1.069013379E-3,3.665188793E-3
1.419258925E2,-1.527161949E-4,-1.679878100E-3,-2.596175298E-3
1.424300228E2,2.138026757E-3,-7.635809598E-4,2.290742937E-3
1.429341529E2,2.748891478E-3,1.527161920E-3,-1.527161949E-4
1.434382955E2,-3.359756200E-3,1.679878100E-3,1.069013379E-3
1.439424129E2,7.177661173E-3,-1.145371422E-2,-5.803215317E-3
1.444465429E2,1.603520103E-2,-1.603520103E-2,-1.084284950E-2
1.449506729E2,-2.901607659E-3,4.428769462E-3,1.527161949E-4
1.454548031E2,-1.374445739E-3,5.345067009E-3,-2.290742937E-3
1.459589335E2,-0.000000000E0,-1.832594397E-3,2.748891478E-3
1.464630639E2,1.221729559E-3,5.039634649E-3,7.635809598E-4
1.469671943E2,-2.290742937E-3,-2.596175298E-3,-2.901607659E-3
1.474713245E2,2.901607659E-3,-3.970621154E-3,9.162971983E-4
1.479754547E2,-2.443459118E-3,2.596175298E-3,-3.359756200E-3
1.484795845E2,-4.581485991E-4,-3.207040019E-3,1.221729559E-3
1.489837144E2,1.832594397E-3,-0.000000000E0,-6.108647794E-4
1.494878441E2,-2.015853859E-2,7.024944760E-3,-1.817322709E-2
1.499919736E2,1.863137633E-2,-8.704823442E-3,1.160643063E-2
1.504961029E2,9.162971983E-4,-5.345067009E-3,-1.069013379E-3
1.510002320E2,5.192350596E-3,2.443459118E-3,-3.665188793E-3
1.515043610E2,-1.328630932E-2,1.175914705E-2,1.084284950E-2
1.520084895E2,7.788525894E-3,-5.650499370E-3,-2.290742937E-3
1.525126179E2,-2.748891478E-3,5.039634649E-3,9.773836471E-3
1.530167461E2,-3.054323839E-3,-2.596175298E-3,1.374445739E-3
1.535208742E2,2.748891478E-3,-1.985310577E-3,-7.635809598E-4
1.540250023E2,-1.069013379E-3,-2.748891478E-3,1.527161949E-4
1.545291301E2,-3.207040019E-3,3.054323839E-3,1.069013379E-3
1.550332576E2,7.635809598E-4,1.069013379E-3,2.748891478E-3
1.555373849E2,-3.054323839E-3,2.443459118E-3,-3.054323897E-4
1.560415120E2,-1.527161949E-4,-1.069013379E-3,-3.054323897E-4
1.565456390E2,1.527161949E-4,-2.443459118E-3,-3.665188793E-3
1.570497660E2,2.443459118E-3,-5.192350596E-3,4.581485991E-4
1.575538932E2,-2.748891478E-3,-2.138026757E-3,-1.237001177E-2
1.580580200E2,1.832594397E-3,-6.872228812E-3,-5.192350596E-3
1.585621467E2,-3.054323839E-3,1.527161949E-4,-1.588248461E-2
1.590662732E2,-1.374445739E-3,1.985310577E-3,-3.512472380E-3
1.595704004E2,4.428769462E-3,-1.527161949E-4,1.374445739E-3
1.600745258E2,1.328630932E-2,7.024944760E-3,-1.496618707E-2
1.605786521E2,1.756236330E-2,-1.191186346E-2,-8.552107029E-3
1.610827785E2,3.298669681E-2,1.588248461E-2,2.290742937E-3
1.615869048E2,4.474584386E-2,-7.299833745E-2,1.527161949E-4
1.620910307E2,1.160643063E-2,-1.343902480E-2,-1.603520103E-2
1.625951561E2,-2.748891478E-3,1.237001177E-2,-5.955931731E-3
1.630992808E2,5.803215317E-3,-2.229656465E-2,-1.878409274E-2
1.636034052E2,-2.290742937E-3,-5.192350596E-3,9.621120058E-3
1.641075300E2,-2.748891478E-3,-9.621120058E-3,8.246674202E-3
1.646116559E2,-1.023198478E-2,1.282816008E-2,1.389717404E-2
1.651157830E2,-7.330377586E-3,1.069013379E-3,-7.483093534E-3
1.656199110E2,-1.114828233E-2,6.108647794E-4,1.221729536E-2
1.661240396E2,-1.053741761E-2,2.138026757E-3,2.244928107E-2
1.666281686E2,-9.315688163E-3,9.773836471E-3,-6.261364091E-3
1.671322981E2,3.359756200E-3,1.099556591E-2,2.290742937E-3
1.676364276E2,3.711003438E-2,3.588830680E-2,-3.207040019E-3
1.681405574E2,6.811141968E-2,6.872228812E-3,-5.497782957E-3
1.686446873E2,1.174387559E-1,5.436696485E-2,-1.466075517E-2
1.691488173E2,1.676823795E-1,-3.802633286E-2,-8.704823442E-3
1.696529471E2,2.012799382E-1,6.719512399E-3,-4.199695215E-2
1.701570769E2,2.244928032E-1,3.283398226E-2,-1.145371422E-2
1.706612066E2,2.842048407E-1,1.282816008E-2,-2.901607752E-2
1.711653362E2,2.784016132E-1,7.941242307E-2,-2.596175298E-2
1.716694658E2,3.167333901E-1,-1.007926930E-2,-5.192350596E-3
1.721735953E2,2.952004075E-1,9.330959618E-2,-3.909534588E-2
1.726777246E2,2.904661894E-1,1.832594397E-3,-1.404988952E-2
1.731818537E2,2.590066791E-1,3.970621154E-3,-5.497782957E-3
1.736859827E2,1.892153621E-1,-9.315688163E-3,-2.306014486E-2
1.741901116E2,1.131627038E-1,-5.574141070E-2,1.649334840E-2
1.746942405E2,6.001746282E-2,-3.054323979E-2,-1.618791744E-2
1.751983692E2,5.803215317E-3,-6.307178736E-2,-5.803215317E-3
1.757024980E2,-9.560033679E-2,-2.580903657E-2,1.832594350E-2
1.762066266E2,-1.852447391E-1,-3.924806044E-2,3.344484791E-2
1.767107551E2,-2.263254076E-1,-3.145953640E-2,3.558287397E-2
1.772148836E2,-2.805396616E-1,-1.603520103E-2,5.543597788E-2
1.777190120E2,-3.179551065E-1,-2.962694131E-2,7.360920310E-2
1.782231405E2,-3.396408260E-1,5.497782957E-3,4.138609022E-2
1.787272688E2,-3.379609287E-1,-4.031707719E-2,5.543597788E-2
1.792313971E2,-3.484983444E-1,-6.444623321E-2,1.010981202E-1
1.797355253E2,-3.026835024E-1,6.123919412E-2,2.779434808E-2
1.802396532E2,-2.316704690E-1,-3.634645417E-2,4.245510325E-2
1.807437811E2,-1.545487940E-1,2.489273995E-2,-3.970621154E-3
1.812479089E2,-9.743293375E-2,9.926552884E-3,-2.443459118E-3
1.817520368E2,-2.336557768E-2,2.641990222E-2,1.007926930E-2
1.822561647E2,2.748891478E-3,-6.261364091E-3,2.260199748E-2
1.827602925E2,1.985310577E-3,1.252272818E-2,-2.580903657E-2
1.832644205E2,-1.023198478E-2,-1.924224012E-2,-5.803215317E-3
1.837685485E2,3.665188793E-3,-6.719512399E-3,-3.970621154E-3
1.842726764E2,-7.483093534E-3,1.084284950E-2,1.191186346E-2
1.847768043E2,1.527161920E-3,-2.794706449E-2,7.788525894E-3
1.852809322E2,-8.704823442E-3,4.413498193E-2,1.114828233E-2
1.857850601E2,-2.901607659E-3,-1.664606482E-2,3.665188793E-3
1.862891883E2,-2.703076601E-2,1.450803876E-2,3.023780696E-2
1.867933166E2,1.267544460E-2,2.168569900E-2,-3.191768378E-2
1.872974449E2,-8.093958721E-3,-4.886918236E-3,9.315688163E-3
1.878015732E2,6.108647678E-3,4.581485875E-3,-6.872228812E-3
1.883057014E2,6.108647678E-3,-1.267544460E-2,9.468403645E-3
1.888098297E2,7.330377586E-3,-5.345067009E-3,-7.941242307E-3
1.893139579E2,-5.039634649E-3,6.566796452E-3,5.955931731E-3
1.898180862E2,-9.773836471E-3,-5.497782957E-3,1.099556591E-2
1.903222145E2,3.054323897E-4,-9.162971750E-3,-6.108647678E-3
1.908263428E2,-3.970621154E-3,5.039634649E-3,-9.162971983E-4
1.913304711E2,-1.175914705E-2,7.483093534E-3,5.299251899E-2
1.918345995E2,-6.261364091E-3,3.817904973E-3,9.468403645E-3
1.923387278E2,4.276053514E-3,3.817904973E-3,-3.481929377E-2
1.928428560E2,-5.345067009E-3,1.221729536E-2,1.206457894E-2
1.933469842E2,3.054323897E-4,3.970621154E-3,5.803215317E-3
1.938511123E2,7.177661173E-3,2.015853859E-2,9.468403645E-3
1.943552404E2,1.145371422E-2,-1.298087649E-2,-3.268126398E-2
1.948593683E2,5.192350596E-3,9.926552884E-3,2.382372692E-2
1.953634961E2,3.665188793E-3,8.399390616E-3,-3.665188793E-3
1.958676241E2,9.315688163E-3,-7.177661173E-3,-4.276053514E-3
1.963717520E2,5.039634649E-3,-1.007926930E-2,1.359174121E-2
1.968758797E2,2.214384824E-2,-2.275471389E-2,-4.902189970E-2
1.973800072E2,2.932151034E-2,-3.909534588E-2,-4.535670951E-2
1.978841346E2,-8.246674202E-3,2.901607659E-3,3.573558852E-2
1.983882619E2,-1.069013379E-3,7.024944760E-3,1.527161949E-4
1.988923892E2,-2.748891478E-3,1.374445762E-2,1.420260593E-2
1.993965163E2,-6.872228812E-3,3.054323897E-4,7.941242307E-3
1.999006434E2,0.000000000E0,2.596175298E-3,-3.817904973E-3
2.004047706E2,-0.000000000E0,-2.138026757E-3,2.290742937E-3
2.009088984E2,-1.221729559E-3,-1.069013379E-3,-0.000000000E0
2.014130247E2,1.221729559E-3,1.527161949E-4,-4.581485991E-4
2.019171518E2,4.581485991E-4,-0.000000000E0,-1.679878100E-3
2.024212788E2,2.901607659E-3,-1.527161920E-3,3.054323897E-4
2.029254060E2,-1.527161920E-3,-1.527161949E-4,-1.374445739E-3
2.034295333E2,3.054323897E-4,-1.985310577E-3,-3.054323897E-4
2.039336605E2,9.162971983E-4,-1.069013379E-3,-7.635809598E-4
2.044377878E2,-1.221729559E-3,1.069013379E-3,-4.581485991E-4
2.049419150E2,3.512472380E-3,-1.527161920E-3,-1.527161920E-3
2.054460423E2,-4.581485991E-4,4.581485991E-4,-2.290742937E-3
2.059501697E2,3.054323897E-4,-9.162971983E-4,4.581485991E-4
2.064542972E2,9.162971983E-4,-7.635809598E-4,6.108647794E-4
2.069584248E2,-4.581485991E-4,1.679878100E-3,4.581485991E-4
2.074625524E2,1.374445739E-3,-1.679878100E-3,3.054323897E-4
2.079666801E2,-1.221729559E-3,-0.000000000E0,-1.832594397E-3
2.084708078E2,-0.000000000E0,-1.069013379E-3,-3.054323897E-4
2.089749355E2,6.108647794E-4,-1.221729559E-3,3.054323897E-4
2.094790630E2,-9.162971983E-4,1.069013379E-3,-1.221729559E-3
2.099831906E2,9.162971983E-4,-4.581485991E-4,3.054323897E-4
2.104873182E2,-6.108647794E-4,9.162971983E-4,-7.635809598E-4
2.109914459E2,3.054323897E-4,-3.359756200E-3,-1.069013379E-3
2.114955736E2,6.108647794E-4,-9.162971983E-4,2.901607659E-3
2.119997013E2,-2.901607659E-3,1.985310577E-3,1.679878100E-3
2.125038289E2,4.581485991E-4,-3.054323839E-3,-1.527161949E-4
2.130079564E2,-1.527161949E-4,-9.162971983E-4,-6.108647794E-4
2.135120838E2,-9.162971983E-4,4.581485991E-4,9.162971983E-4
2.140162113E2,1.374445739E-3,-0.000000000E0,6.108647794E-4
2.145203390E2,-3.054323897E-4,3.970621154E-3,-2.138026757E-3
2.150244667E2,2.443459118E-3,-1.374445739E-3,-4.581485991E-4
2.155285945E2,-0.000000000E0,-1.527161949E-4,-1.832594397E-3
2.160327223E2,6.108647794E-4,-7.635809598E-4,-9.162971983E-4
2.165368501E2,2.443459118E-3,-2.748891478E-3,1.527161949E-4
2.170409778E2,-1.527161920E-3,9.162971983E-4,-9.162971983E-4
2.175451172E2,1.679878100E-3,-1.069013379E-3,2.443459118E-3
2.180492335E2,-4.581485991E-4,2.748891478E-3,1.527161920E-3
2.185533614E2,-0.000000000E0,3.054323897E-4,-3.359756200E-3
2.190574893E2,1.679878100E-3,-3.817904973E-3,1.527161949E-4
2.195616173E2,-1.374445739E-3,1.221729559E-3,-6.108647794E-4
2.200657453E2,3.054323839E-3,-2.290742937E-3,-7.635809598E-4
2.205698734E2,6.108647794E-4,1.221729559E-3,2.596175298E-3
2.210740016E2,7.635809598E-4,-5.497782957E-3,9.162971983E-4
2.215781301E2,-2.748891478E-3,-9.773836471E-3,-1.435532235E-2
2.220822587E2,2.443459118E-3,-5.650499370E-3,-7.483093534E-3
2.225863882E2,2.443459118E-3,-3.665188793E-3,-2.306014486E-2
2.230905188E2,1.527161949E-4,-1.679878100E-3,3.817904973E-3
2.235946504E2,8.093958721E-3,-9.621120058E-3,-1.557705179E-2
2.240987830E2,1.114828233E-2,8.704823442E-3,-1.374445739E-3
2.246029162E2,1.786779426E-2,-1.527161949E-4,-2.901607659E-3
2.251070499E2,1.588248461E-2,-4.734201822E-3,-7.635809947E-3
2.256111839E2,1.038470119E-2,5.192350596E-3,-6.414080039E-3
2.261153182E2,4.734201822E-3,-3.817904973E-3,2.382372692E-2
2.266194527E2,6.414080039E-3,-1.771507785E-2,-2.611446939E-2
2.271235876E2,-1.527161949E-4,-1.389717404E-2,-7.635809598E-4
2.276277225E2,-7.177661173E-3,1.985310577E-2,-3.817904973E-3
2.281318576E2,-1.511890348E-2,-1.221729559E-3,7.941242307E-3
2.286359925E2,-5.955931731E-3,-2.061668597E-2,-3.207040019E-3
2.291401273E2,-1.175914705E-2,5.039634649E-3,-2.290742937E-3
2.296442619E2,-7.330377586E-3,-6.261364091E-3,8.704823442E-3
2.301483965E2,5.803215317E-3,-5.955931731E-3,-7.483093534E-3
2.306525311E2,-1.221729559E-3,1.466075517E-2,-6.108647794E-4
2.311566655E2,-2.290742937E-3,1.237001177E-2,-2.290742937E-3
2.316607998E2,-5.192350596E-3,7.635809598E-4,4.428769462E-3
2.321649338E2,6.872228812E-3,4.581485991E-4,6.566796452E-3
2.326690676E2,5.803215317E-3,3.970621154E-3,-1.527161920E-3
2.331732013E2,-5.650499370E-3,2.031125315E-2,1.084284950E-2
2.336773350E2,-1.527161989E-2,-2.260199748E-2,2.672533318E-2
2.341814686E2,7.177661173E-3,-1.466075517E-2,8.704823442E-3
2.346856021E2,9.926552884E-3,4.841103405E-2,-1.191186346E-2
2.351897354E2,9.621120058E-3,-6.291907281E-2,3.054323839E-3
2.356938687E2,4.871646687E-2,-7.528908551E-2,-5.864302069E-2
2.361980020E2,3.054323897E-4,5.406153202E-2,-5.192350596E-3
2.367021352E2,-1.221729559E-3,-2.046396956E-2,7.024944760E-3
2.372062684E2,-2.244928107E-2,6.719512399E-3,6.001746282E-2
2.377104015E2,1.313359290E-2,4.092793912E-2,-1.221729536E-2
2.382145346E2,2.412915789E-2,-1.878409274E-2,-2.596175298E-3
2.387186675E2,4.276053514E-3,-1.786779426E-2,-1.527161989E-2
2.392228003E2,-2.443459118E-3,2.596175298E-3,-2.290742937E-3
2.397269330E2,-1.511890348E-2,-4.581485875E-3,-7.483093534E-3
2.402310655E2,-4.642572254E-2,-4.581485689E-2,6.261364091E-3
2.407351980E2,-8.384118974E-2,-3.359756200E-3,4.230238497E-2
2.412393306E2,-1.206457913E-1,-4.306596518E-2,1.069013402E-2
2.417434631E2,-1.788306683E-1,-5.864302069E-2,2.428187430E-2
2.422475959E2,-2.394589931E-1,-7.177661359E-2,7.666353136E-2
2.427517287E2,-2.777907550E-1,-7.620538026E-2,7.635809481E-2
2.432558615E2,-2.871064544E-1,-8.872810751E-2,6.826414168E-2
2.437599944E2,-3.040579557E-1,-5.497783050E-2,1.582139730E-1
2.442641273E2,-3.375027776E-1,-1.557705179E-2,9.605848789E-2
2.447682602E2,-3.223838806E-1,-3.512472659E-2,4.886918142E-2
2.452723931E2,-2.501491308E-1,-1.414151937E-1,1.939495653E-1
2.457765260E2,-2.530507445E-1,2.623664141E-1,6.291907281E-2
2.462806589E2,-1.595884264E-1,-3.130681813E-2,2.580903657E-2
2.467847916E2,-1.012508348E-1,-1.143844277E-1,9.315688163E-3
2.472889243E2,-7.208204269E-2,1.035415828E-1,-2.290742937E-3
2.477930570E2,-5.482511222E-2,4.505127668E-2,2.138026804E-2
2.482971896E2,-2.122755162E-2,6.505709887E-2,4.230238497E-2
2.488013221E2,1.496618707E-2,5.054906011E-2,2.122755162E-2
2.493054546E2,2.901607752E-2,-2.290742844E-2,-2.825249545E-2
2.498095870E2,7.483093534E-3,6.566796452E-3,3.054323839E-3
2.503137194E2,8.246674202E-3,7.330377586E-3,3.817904973E-3
2.508178520E2,1.084284950E-2,1.130099874E-2,9.621120058E-3
2.513219846E2,6.108647678E-3,-9.162971983E-4,-9.315688163E-3
2.518261172E2,5.345067009E-3,-1.007926930E-2,-2.138026757E-3
2.523302500E2,-6.719512399E-3,8.857538924E-3,1.282816008E-2
2.528343827E2,6.414080039E-3,-1.145371422E-2,-1.832594397E-3
2.533385154E2,5.955931731E-3,9.162971983E-4,4.581485875E-3
2.538426482E2,-3.054323839E-3,-3.054323839E-3,-1.511890348E-2
2.543467810E2,-5.039634649E-3,-8.246674202E-3,1.023198478E-2
2.548509138E2,-3.512472380E-3,7.941242307E-3,-9.621120058E-3
2.553550466E2,1.527161920E-3,-1.099556591E-2,4.428769462E-3
2.558591795E2,3.054323839E-3,-1.175914705E-2,-8.246674202E-3
2.563633124E2,-3.665188793E-3,-2.138026757E-3,5.650499370E-3
2.568674452E2,-3.970621154E-3,1.695149764E-2,-1.924224012E-2
2.573715781E2,0.000000000E0,-1.924224012E-2,1.191186346E-2
2.578757110E2,8.704823442E-3,-4.581485875E-3,6.719512399E-3
2.583798438E2,4.581485875E-3,2.138026804E-2,-1.679878123E-2
2.588839768E2,-4.581485991E-4,-6.261364091E-3,2.901607659E-3
2.593881100E2,3.665188793E-3,-2.229656465E-2,2.138026757E-3
2.598922431E2,4.581485875E-3,-9.162971983E-4,-1.145371422E-2
2.603963763E2,8.857538924E-3,9.010255337E-3,-1.985310577E-3
2.609005095E2,2.596175298E-3,2.214384824E-2,1.588248461E-2
2.614046427E2,1.496618707E-2,-1.053741761E-2,-2.229656465E-2
2.619087761E2,2.138026757E-3,3.695731983E-2,5.345067009E-3
2.624129097E2,3.207040019E-3,-4.642572254E-2,-1.343902480E-2
2.629170435E2,6.108647794E-4,-2.932151034E-2,-1.954767294E-2
2.634211775E2,-9.315688163E-3,1.588248461E-2,6.566796452E-3
2.639253117E2,-5.345067009E-3,1.130099874E-2,7.177661173E-3
2.644294461E2,3.054323897E-4,-1.893680729E-2,3.665188793E-3
2.649335806E2,-6.261364091E-3,3.512472380E-3,1.771507785E-2
2.654377151E2,-1.069013402E-2,1.954767294E-2,2.809977904E-2
2.659418497E2,2.748891478E-3,0.000000000E0,-7.941242307E-3
2.664459844E2,-3.817904973E-3,-1.450803876E-2,1.313359290E-2
2.669501193E2,-1.343902480E-2,-3.054323839E-3,-7.635809947E-3
2.674542544E2,-3.558287397E-2,-1.191186346E-2,-3.054323897E-4
2.679583896E2,-6.673697382E-2,-5.268708616E-2,2.443459118E-3
2.684625252E2,-1.290451884E-1,-6.429351866E-2,3.711003438E-2
2.689666616E2,-2.025016695E-1,-7.086031139E-2,7.620538026E-2
2.694707989E2,-2.541197538E-1,-6.918043643E-2,5.192350596E-2
2.699749372E2,-2.907716334E-1,-1.412624866E-1,8.200860023E-2
2.704790764E2,-3.262017965E-1,8.093958348E-2,1.064431891E-1
2.709832164E2,-3.216203153E-1,-1.832594350E-2,7.498364896E-2
2.714873571E2,-3.442223072E-1,-1.107192412E-1,1.627954692E-1
2.719914982E2,-2.987128794E-1,4.489856213E-2,1.307250559E-1
2.724956397E2,-2.513708472E-1,-4.963276163E-2,3.695731983E-2
2.729997814E2,-1.974620372E-1,4.138609022E-2,6.673697382E-2
2.735039234E2,-1.108719558E-1,1.298087649E-2,-2.794706449E-2
2.740080656E2,-7.559451461E-2,-6.414080039E-3,2.794706449E-2
2.745122080E2,-5.299251899E-2,1.954767294E-2,-5.039634649E-3
2.750163505E2,-3.558287397E-2,4.657844082E-2,3.405570984E-2
2.755204930E2,-2.596175298E-2,2.519817278E-2,4.581485991E-4
2.760246355E2,-1.343902480E-2,-5.039634649E-3,-3.359756200E-3
2.765287778E2,-7.941242307E-3,1.588248461E-2,-1.313359290E-2
2.770329202E2,1.527161989E-2,1.618791744E-2,-1.023198478E-2
2.775370624E2,3.619373962E-2,-2.199113183E-2,-3.359756200E-3
2.780412045E2,1.878409274E-2,6.872228812E-3,-2.779434808E-2
2.785453466E2,2.183841541E-2,2.290742844E-2,4.031707719E-2
2.790494887E2,3.207040206E-2,-1.435532235E-2,-2.260199748E-2
2.795536310E2,5.375609919E-2,4.673115537E-2,-7.635809598E-4
2.800577735E2,1.110246703E-1,3.924806044E-2,-2.412915789E-2
2.805619161E2,1.582139730E-1,6.536252797E-2,-3.268126398E-2
2.810660590E2,2.061668634E-1,-2.703076601E-2,-1.343902480E-2
2.815702020E2,2.205221802E-1,2.977965772E-2,-4.046979174E-2
2.820743451E2,2.669478953E-1,1.389717404E-2,-5.360338464E-2
2.825784879E2,2.999345958E-1,3.726275265E-2,-7.162389904E-2
2.830826306E2,2.990183234E-1,1.099556610E-1,-7.757982612E-2
2.835867732E2,3.106247485E-1,-1.052214578E-1,-3.970621154E-2
2.840909155E2,2.921460867E-1,9.636391699E-2,-9.178243577E-2
2.845950576E2,2.411388755E-1,-7.330377586E-3,-2.703076601E-2
2.850991996E2,1.849393100E-1,2.168569900E-2,-4.199695215E-2
2.856033414E2,1.330158114E-1,-4.291325063E-2,-5.207622424E-2
2.861074830E2,7.101303339E-2,2.504545636E-2,-4.795288667E-2
2.866116245E2,4.581485689E-2,1.435532235E-2,-8.399390616E-3
2.871157658E2,4.505127668E-2,-2.947422490E-2,-1.878409274E-2
2.876199071E2,1.206457894E-2,4.123337194E-2,-9.926552884E-3
2.881240482E2,2.886336111E-2,-2.092211880E-2,8.857538924E-3
2.886281894E2,9.621120058E-3,4.734201822E-3,2.397644334E-2
2.891323306E2,1.695149764E-2,-2.122755162E-2,7.177661173E-3
2.896364718E2,-1.175914705E-2,1.450803876E-2,5.955931731E-3
2.901406131E2,-1.084284950E-2,2.138026757E-3,1.527161920E-3
2.906447546E2,-6.261364091E-3,3.817904973E-3,2.443459118E-3
2.911488960E2,-4.123337101E-3,2.443459118E-3,1.069013379E-3
2.916530376E2,6.108647794E-4,-1.435532235E-2,5.497782957E-3
2.921571792E2,-1.221729536E-2,2.290742937E-3,-1.160643063E-2
2.926613210E2,-6.872228812E-3,4.581485991E-4,-4.581485991E-4
2.931654631E2,2.229656465E-2,-2.993237413E-2,-2.382372692E-2
2.936696053E2,-1.282816008E-2,1.542433538E-2,-4.886918236E-3
2.941737482E2,1.069013379E-3,-1.038470119E-2,-9.773836471E-3
2.946778915E2,-4.428769462E-3,-6.108647678E-3,-1.084284950E-2
2.951820352E2,-3.054323839E-3,-7.788525894E-3,-1.069013402E-2
2.956861789E2,1.527161949E-4,-6.108647794E-4,-1.740964688E-2
2.961903227E2,3.054323839E-3,-1.374445739E-3,9.010255337E-3
2.966944665E2,2.901607659E-3,-3.054323897E-4,-2.596175298E-3
2.971986102E2,8.399390616E-3,-6.566796452E-3,-2.321286127E-2
2.977027539E2,1.069013402E-2,-3.649916872E-2,9.773836471E-3
2.982068976E2,2.535088919E-2,-1.374445739E-3,2.000582218E-2
2.987110412E2,-4.077522457E-2,4.535670951E-2,7.635809947E-3
2.992151848E2,2.626718581E-2,-7.987056673E-2,-1.038470119E-2
2.997193283E2,-3.817904741E-2,5.803215504E-2,-7.788525894E-3
3.002234717E2,-6.719512399E-3,-4.932733253E-2,-1.000291109E-1
3.007276149E2,1.099556591E-2,-3.207040019E-3,1.035415828E-1
3.012317580E2,1.756236330E-2,3.695731983E-2,1.382081509E-1
3.017359013E2,-4.276053514E-3,6.551524997E-2,-4.123337194E-2
3.022400447E2,3.741546720E-2,-7.727439702E-2,2.901607752E-2
3.027441884E2,-1.481347065E-2,3.924806044E-2,8.246674202E-3
3.032483322E2,2.138026757E-3,4.153880477E-2,3.344484791E-2
3.037524760E2,3.054323839E-3,1.252272818E-2,1.404988952E-2
3.042566199E2,-7.024944760E-3,1.466075517E-2,1.282816008E-2
3.047607639E2,9.315688163E-3,-5.650499370E-3,2.122755162E-2
3.052649078E2,-1.420260593E-2,5.070177838E-2,-4.734201822E-3
3.057690517E2,1.572976820E-2,-1.466075517E-2,1.374445762E-2
3.062731955E2,1.252272818E-2,-4.123337101E-3,-1.343902480E-2
3.067773394E2,-1.069013379E-3,2.504545636E-2,3.008509055E-2
3.072814833E2,1.527161989E-2,-4.581485875E-3,8.384118974E-2
3.077856272E2,-2.183841541E-2,5.497782957E-3,-1.107192412E-1
3.082897710E2,-1.572976820E-2,6.307178736E-2,1.310304999E-1
3.087939148E2,-4.581485875E-3,-6.566796452E-2,-7.696896046E-2
3.092980585E2,-7.788525894E-3,-2.138026757E-3,4.276053514E-3
3.098022022E2,-9.315688163E-3,2.000582218E-2,-1.603520103E-2
3.103063459E2,-9.773836471E-3,-9.162971983E-4,8.857538924E-3
3.108104896E2,7.635809598E-4,2.443459071E-2,-3.039052337E-2
3.113146334E2,4.123337101E-3,1.145371422E-2,-9.621120058E-3
3.118187772E2,9.773836471E-3,1.847865991E-2,-9.773836471E-3
3.123229212E2,1.007926930E-2,-1.939495653E-2,2.046396956E-2
3.128270654E2,1.985310577E-3,8.857538924E-3,-6.566796452E-3
3.133312095E2,2.748891478E-3,-5.039634649E-3,1.328630932E-2
3.138353537E2,1.527161920E-3,-1.099556591E-2,3.359756200E-3
3.143394980E2,-2.596175298E-3,9.621120058E-3,-1.114828233E-2
3.148436422E2,1.374445739E-3,2.290742937E-3,3.054323897E-4
3.153477864E2,2.901607659E-3,-3.054323979E-2,-5.879573524E-2
3.158519305E2,2.748891478E-3,-3.054323897E-4,9.468403645E-3
3.163560748E2,2.748891478E-3,4.886918236E-3,1.191186346E-2
3.168602193E2,-4.276053514E-3,1.786779426E-2,-6.872228812E-3
3.173643637E2,1.374445739E-3,-0.000000000E0,1.221729536E-2
3.178685082E2,1.527161949E-4,-2.290742937E-3,-2.443459118E-3
3.183726528E2,-1.832594397E-3,6.872228812E-3,-1.985310577E-3
3.188767972E2,2.443459118E-3,-6.261364091E-3,4.276053514E-3
3.193809418E2,-2.290742937E-3,5.650499370E-3,-3.054323839E-3
3.198850864E2,2.290742937E-3,-4.581485875E-3,9.162971983E-4
3.203892406E2,-7.635809598E-4,1.221729559E-3,-1.069013379E-3
3.208933756E2,7.635809598E-4,6.108647794E-4,1.221729559E-3
3.213975203E2,1.527161949E-4,-6.108647794E-4,-6.108647794E-4
3.219016649E2,-1.374445739E-3,3.512472380E-3,-7.635809598E-4
3.224058094E2,2.443459118E-3,-1.527161920E-3,3.054323839E-3
3.229099539E2,-1.374445739E-3,1.221729559E-3,-1.221729559E-3
3.234140983E2,1.374445739E-3,-2.290742937E-3,1.069013379E-3
3.239182427E2,-1.527161920E-3,2.748891478E-3,-1.832594397E-3
3.244223871E2,1.374445739E-3,-6.108647794E-4,6.108647794E-4
3.249265314E2,1.527161949E-4,-9.162971983E-4,-3.512472380E-3
3.254306756E2,-4.581485875E-3,3.054323897E-4,-1.114828233E-2
3.259348199E2,3.054323897E-4,-4.581485875E-3,-5.803215317E-3
3.264389641E2,-2.138026757E-3,-4.428769462E-3,-1.481347065E-2
3.269431083E2,1.221729559E-3,-1.374445739E-3,-5.192350596E-3
3.274472524E2,5.803215317E-3,-1.527161949E-4,-3.817904973E-3
3.279513966E2,2.092211880E-2,-9.926552884E-3,-7.483093534E-3
3.284555407E2,4.123337194E-2,-2.504545636E-2,-1.527161920E-3
3.289596848E2,4.780016840E-2,5.803215317E-3,-1.695149764E-2
3.294638288E2,4.948004708E-2,1.282816008E-2,-1.252272818E-2
3.299679728E2,5.390881747E-2,-1.756236330E-2,-1.908952370E-2
3.304721166E2,4.230238497E-2,-1.572976820E-2,-9.162971983E-4
3.309762604E2,1.527161989E-2,-2.153298259E-2,1.527161949E-4
3.314804041E2,-1.832594397E-3,-1.634063199E-2,5.803215317E-3
3.319845479E2,-2.153298259E-2,-1.359174121E-2,1.908952370E-2
3.324886915E2,-2.046396956E-2,-6.047561392E-2,1.374445739E-3
3.329928352E2,-3.894263133E-2,-2.290742937E-3,-3.665188793E-3
3.334969789E2,-5.283980444E-2,-5.543597788E-2,8.093958721E-3
3.340011225E2,-4.673115537E-2,1.740964688E-2,1.603520103E-2
3.345052661E2,-5.650499091E-2,-1.420260593E-2,5.497783050E-2
3.350094098E2,-4.489856213E-2,2.825249545E-2,2.657261863E-2
3.355135534E2,-4.810560122E-2,4.337139800E-2,9.315688163E-3
3.360176971E2,-2.901607752E-2,2.168569900E-2,2.764163166E-2
3.365218408E2,-1.191186346E-2,3.222311661E-2,1.145371422E-2
3.370259844E2,1.267544460E-2,2.535088919E-2,4.581485875E-3
3.375301280E2,1.634063199E-2,2.474002354E-2,2.596175298E-3
3.380342716E2,2.672533318E-2,-9.315688163E-3,4.123337101E-3
3.385384153E2,2.580903657E-2,-9.162971750E-3,-1.084284950E-2
3.390425590E2,2.321286127E-2,1.343902480E-2,-1.038470119E-2
3.395467028E2,3.741546720E-2,3.054323839E-3,-4.108065739E-2
3.400508466E2,8.032871783E-2,4.016435891E-2,-2.794706449E-2
3.405549904E2,1.492037177E-1,-1.588248461E-2,-6.688969582E-2
3.410591344E2,1.930332631E-1,5.390881747E-2,-5.283980444E-2
3.415632784E2,2.732092738E-1,5.558869615E-2,-5.513054505E-2
3.420674225E2,3.616319597E-1,1.740964688E-2,-6.017018110E-2
3.425715670E2,4.366155863E-1,8.704823442E-3,-6.734783947E-2
3.430757116E2,3.970620930E-1,1.078176349E-1,-7.406735420E-2
3.435798566E2,4.039343297E-1,-4.886918142E-2,-5.345066637E-2
3.440840017E2,2.935205400E-1,-2.932151034E-2,-4.856374860E-2
3.445881470E2,1.797469556E-1,3.695731983E-2,-4.245510325E-2
3.450922924E2,1.154534444E-1,2.596175298E-2,-7.941242307E-3
3.455964378E2,6.887500733E-2,-2.779434808E-2,-1.527161989E-2
3.461005834E2,3.726275265E-2,-1.389717404E-2,-1.527161989E-2
3.466047291E2,2.580903657E-2,1.298087649E-2,-1.985310577E-3
3.471088749E2,2.046396956E-2,2.443459118E-3,-1.527161920E-3
3.476130209E2,1.221729536E-2,-2.336557768E-2,-1.679878100E-3
3.481171670E2,3.359756200E-3,-1.572976820E-2,-2.000582218E-2
3.486213130E2,-5.955931731E-3,5.955931731E-3,1.023198478E-2
3.491254592E2,-9.621120058E-3,-2.977965772E-2,1.374445739E-3
3.496296055E2,1.038470119E-2,2.932151034E-2,-3.680460155E-2
3.501337519E2,-6.108647678E-3,-6.872228812E-3,1.298087649E-2
3.506378983E2,-1.221729559E-3,-2.351829410E-2,6.108647794E-4
3.511420448E2,-7.330377586E-3,-1.313359290E-2,-4.016435891E-2
3.516461913E2,-4.123337101E-3,3.665188700E-2,3.237583488E-2
3.521503377E2,1.191186346E-2,-3.375028074E-2,5.650499370E-3
3.526544842E2,-2.000582218E-2,7.254019380E-2,-4.138609022E-2
3.531586309E2,1.985310577E-3,-7.376192510E-2,9.926552884E-3
3.536627775E2,2.061668597E-2,-5.742128938E-2,1.221729536E-2
3.541669242E2,2.244928107E-2,2.260199748E-2,7.177661173E-3
3.546710710E2,-4.474584386E-2,1.278234571E-1,-6.185005978E-2
3.551752178E2,3.268126398E-2,-9.330959618E-2,6.536252797E-2
3.556793651E2,-5.650499370E-3,-2.733619884E-2,-1.832594350E-2
3.561835128E2,-1.084284950E-2,3.558287397E-2,8.246674202E-3
3.566876608E2,-5.803215317E-3,-2.626718581E-2,7.941242307E-3
3.571918088E2,-1.832594350E-2,-1.160643063E-2,-4.581485991E-4
3.576959571E2,-1.756236330E-2,-2.764163166E-2,5.268708616E-2
3.582001054E2,-5.726857483E-2,-1.954767294E-2,-1.114828233E-2
3.587042539E2,-7.696896046E-2,-4.046979174E-2,-3.054323839E-3
3.592084024E2,-1.195767820E-1,-6.627883017E-2,-3.772090003E-2
3.597125510E2,-1.101083755E-1,3.680460155E-2,6.291907281E-2
3.602166999E2,-9.422589093E-2,3.665188793E-3,5.024362728E-2
3.607208492E2,-2.122755162E-2,6.566796452E-3,7.024944760E-3
3.612249992E2,7.330377400E-2,6.276635826E-2,-3.924806044E-2
3.617291496E2,7.819069177E-2,9.376774728E-2,-4.780016840E-2
3.622333002E2,1.676823795E-1,-9.941824526E-2,-3.558287397E-2
3.627374509E2,9.437860548E-2,5.329795182E-2,-3.802633286E-2
3.632416016E2,7.589995116E-2,-3.130681813E-2,-5.192350596E-3
3.637457523E2,3.451386094E-2,-2.214384824E-2,-9.010255337E-3
3.642499030E2,1.038470119E-2,-6.108647794E-4,-1.038470119E-2
3.647540536E2,5.803215317E-3,-1.237001177E-2,-2.748891478E-3
3.652582042E2,-4.886918236E-3,5.345067009E-3,1.160643063E-2
3.657623549E2,-9.162971750E-3,9.773836471E-3,1.313359290E-2
3.662665055E2,-1.252272818E-2,5.955931731E-3,3.833176568E-2
3.667706559E2,-2.596175298E-3,-6.108647794E-4,-1.511890348E-2
3.672748062E2,-1.237001177E-2,1.206457894E-2,6.108647678E-3
3.677789564E2,5.955931731E-3,-1.527161920E-3,9.162971750E-3
3.682831066E2,2.748891478E-3,2.138026804E-2,1.252272818E-2
3.687872568E2,5.345067009E-3,1.832594397E-3,1.695149764E-2
3.692914069E2,-1.832594397E-3,-1.023198478E-2,-1.618791744E-2
3.697955569E2,-4.276053514E-3,2.428187430E-2,8.704823442E-3
3.702997068E2,5.803215317E-3,-2.443459118E-3,9.010255337E-3
3.708038567E2,4.123337101E-3,2.367101051E-2,2.443459118E-3
3.713080065E2,6.566796452E-3,-5.497782957E-3,1.099556591E-2
3.718121564E2,1.298087649E-2,-6.872228812E-3,1.970038936E-2
3.723163062E2,3.207040019E-3,4.276053514E-3,-8.857538924E-3
3.728204560E2,2.596175298E-3,-2.901607659E-3,5.039634649E-3
3.733246056E2,-2.138026757E-3,-2.794706449E-2,-7.131846249E-2
3.738287551E2,-8.552107029E-3,2.153298259E-2,8.857538924E-3
3.743329044E2,4.428769462E-3,-4.886918236E-3,7.483093534E-3
3.748370536E2,-2.855792828E-2,4.321868345E-2,-2.580903657E-2
3.753412027E2,-4.612028971E-2,1.081230640E-1,-1.588248461E-2
3.758453517E2,4.886918236E-3,1.191186346E-2,-3.787361458E-2
3.763495008E2,4.291325063E-2,-4.581485991E-4,2.290742844E-2
3.768536496E2,-1.023198478E-2,-7.040216774E-2,3.619373962E-2
3.773577983E2,2.122755162E-2,-3.634645417E-2,-1.618791744E-2
3.778619470E2,4.581485875E-3,-6.414080039E-3,-3.207040019E-3
3.783660957E2,3.054323839E-3,-2.901607659E-3,-2.748891478E-3
3.788702443E2,1.160643063E-2,-1.374445762E-2,-1.145371422E-2
3.793743929E2,1.679878100E-3,-3.512472380E-3,-3.054323897E-4
3.798785416E2,3.054323897E-4,-2.290742937E-3,-0.000000000E0
3.803826901E2,1.527161920E-3,-1.679878100E-3,-1.679878100E-3
3.808868387E2,3.054323897E-4,4.581485991E-4,-1.527161949E-4
3.813909872E2,1.527161949E-4,-1.374445739E-3,-2.138026757E-3
3.818951357E2,2.901607659E-3,-4.581485875E-3,3.054323897E-4
3.823992842E2,-1.679878100E-3,9.162971983E-4,-7.635809598E-4
3.829034330E2,2.290742937E-3,-1.221729559E-3,-4.581485991E-4
3.834075820E2,-1.527161920E-3,-3.054323897E-4,-7.635809598E-4
3.839117312E2,3.054323897E-4,-4.123337101E-3,-1.160643063E-2
3.844158806E2,-2.290742937E-3,-1.679878100E-3,-7.635809947E-3
3.849200302E2,-9.162971983E-4,9.162971983E-4,-4.276053514E-3
3.854241799E2,2.596175298E-3,-6.108647678E-3,-1.985310577E-3
3.859283297E2,2.138026757E-3,-5.345067009E-3,-1.420260593E-2
3.864324795E2,5.039634649E-3,-1.069013379E-3,-1.023198478E-2
3.869366293E2,8.704823442E-3,-9.162971983E-4,3.054323897E-4
3.874407791E2,1.069013402E-2,1.557705179E-2,-5.955931731E-3
3.879449291E2,1.389717404E-2,1.237001177E-2,-9.162971750E-3
3.884490789E2,2.489273995E-2,-4.337139800E-2,-1.099556591E-2
3.889532287E2,1.450803876E-2,-1.572976820E-2,-2.138026757E-3
3.894573784E2,1.527161920E-3,2.351829410E-2,-5.955931731E-3
3.899615279E2,6.719512399E-3,-1.924224012E-2,-8.093958721E-3
3.904656775E2,5.497782957E-3,-1.404988952E-2,2.596175298E-3
3.909698271E2,-1.679878100E-3,3.054323897E-4,-1.221729559E-3
3.914739767E2,2.901607659E-3,-2.703076601E-2,-7.941242307E-3
3.919781264E2,-5.345067009E-3,-1.878409274E-2,-3.665188793E-3
3.924822762E2,-1.069013402E-2,-1.130099874E-2,-4.123337101E-3
3.929864260E2,-4.581485991E-4,-2.199113183E-2,3.512472380E-3
3.934905758E2,-8.399390616E-3,-1.679878100E-3,2.901607659E-3
3.939947257E2,-1.023198478E-2,-2.290742937E-3,3.665188793E-3
3.944988754E2,-1.695149764E-2,3.665188793E-3,-0.000000000E0
3.950030251E2,-4.734201822E-3,-1.298087649E-2,4.428769462E-3
3.955071748E2,-8.704823442E-3,4.734201822E-3,4.123337101E-3
3.960113246E2,-6.414080039E-3,1.389717404E-2,4.581485991E-4
3.965154744E2,-9.926552884E-3,1.313359290E-2,6.719512399E-3
3.970196242E2,-2.596175298E-3,-2.229656465E-2,-3.054323897E-4
3.975237742E2,-4.886918236E-3,-2.290742937E-3,4.428769462E-3
3.980279244E2,1.832594397E-3,-2.138026757E-3,-8.093958721E-3
3.985320746E2,-4.581485875E-3,2.061668597E-2,8.552107029E-3
3.990362249E2,2.443459118E-3,-1.328630932E-2,-5.955931731E-3
3.995403751E2,-4.734201822E-3,1.023198478E-2,9.315688163E-3
4.000445253E2,2.901607659E-3,-7.635809598E-4,-1.435532235E-2
4.005486755E2,-4.123337101E-3,5.192350596E-3,1.450803876E-2
4.010528257E2,7.788525894E-3,-1.924224012E-2,1.099556591E-2
4.015569760E2,2.901607659E-3,5.115992576E-2,-1.939495653E-2
4.020611266E2,1.130099874E-2,2.687804960E-2,-6.719512399E-3
4.025652772E2,3.145953640E-2,4.123337194E-2,-6.872228812E-3
4.030694280E2,6.169734150E-2,2.412915789E-2,-3.100138716E-2
4.035735788E2,1.043051630E-1,4.321868345E-2,-3.741546720E-2
4.040777295E2,1.125518382E-1,3.573558852E-2,-3.252854943E-2
4.045818803E2,1.385135949E-1,-1.175914705E-1,1.985310577E-3
4.050860311E2,1.221729536E-2,3.115410358E-2,4.428769462E-3
4.055901820E2,-2.718348242E-2,-8.674279600E-2,-2.199113183E-2
4.060943329E2,-7.223475724E-2,-2.764163166E-2,-2.993237413E-2
4.065984838E2,-1.014035568E-1,-3.619373962E-2,6.811141968E-2
4.071026346E2,-8.063415438E-2,-7.819069177E-2,1.832594397E-3
4.076067855E2,-1.017089859E-1,2.367101051E-2,2.550360374E-2
4.081109364E2,-7.162389904E-2,-2.993237413E-2,2.932151034E-2
4.086150872E2,-6.505709887E-2,-2.076940238E-2,2.458730713E-2
4.091192380E2,-6.750056148E-2,-1.007926930E-2,9.621120058E-3
4.096233888E2,-6.414080411E-2,-2.138026757E-3,3.604102135E-2
4.101275396E2,-5.833758786E-2,-2.153298259E-2,3.756818548E-2
4.106316903E2,-9.728021920E-2,5.497782957E-3,1.313359290E-2
4.111358410E2,-6.918043643E-2,1.252272818E-2,2.672533318E-2
4.116399917E2,-2.367101051E-2,1.649334840E-2,1.343902480E-2
4.121441425E2,2.153298259E-2,7.147117704E-2,-1.114828233E-2
4.126482932E2,4.780016840E-2,1.020144150E-1,-1.237001177E-2
4.131524440E2,1.324049383E-1,1.175914705E-2,-1.191186346E-2
4.136565948E2,1.511890292E-1,2.504545636E-2,-4.046979174E-2
4.141607457E2,1.915061027E-1,2.031125315E-2,-3.970621154E-2
4.146648966E2,2.028071135E-1,7.070759684E-2,-7.070759684E-2
4.151690475E2,1.957821548E-1,6.108647957E-2,-4.306596518E-2
4.156731983E2,1.965457499E-1,6.673697382E-2,-6.643154472E-2
4.161773491E2,1.850920320E-1,7.192932814E-2,-5.345066637E-2
4.166815000E2,2.009745091E-1,8.857538924E-3,-5.787943676E-2
4.171856509E2,1.937968582E-1,3.772090003E-2,-5.085449293E-2
4.176898018E2,2.246455252E-1,1.191186346E-2,-5.070177838E-2
4.181939527E2,2.383899838E-1,3.756818548E-2,-5.604684353E-2
4.186981034E2,2.269362658E-1,2.031125315E-2,-5.925388262E-2
4.192022542E2,1.779143661E-1,-5.345067009E-3,-4.718930274E-2
4.197064050E2,1.035415828E-1,3.161225095E-2,-1.588248461E-2
4.202105558E2,7.620538026E-2,3.970621154E-3,-2.489273995E-2
4.207147068E2,4.199695215E-2,-5.497782957E-3,-1.786779426E-2
4.212188580E2,3.298669681E-2,-3.100138716E-2,1.679878100E-3
4.217230094E2,1.756236330E-2,-1.985310577E-3,-7.177661173E-3
4.222271612E2,1.664606482E-2,3.207040019E-3,-3.512472380E-3
4.227313132E2,5.650499370E-3,-6.566796452E-3,-5.345067009E-3
4.232354656E2,5.803215317E-3,-1.618791744E-2,-1.527161920E-3
4.237396209E2,-5.955931731E-3,-1.878409274E-2,-1.985310577E-3
4.242437710E2,-4.092793912E-2,2.580903657E-2,2.947422490E-2
4.247479241E2,-2.916879393E-2,3.054323839E-3,2.596175298E-2
4.252520774E2,-2.351829410E-2,-1.282816008E-2,1.389717404E-2
4.257562308E2,-2.993237413E-2,-1.007926930E-2,8.093958721E-3
4.262603844E2,-4.337139800E-2,-4.367683083E-2,1.206457894E-2
4.267645381E2,-6.856957078E-2,-3.130681813E-2,1.374445762E-2
4.272686921E2,-8.200860023E-2,-5.803215317E-3,2.733619884E-2
4.277728461E2,-8.826996386E-2,-2.367101051E-2,2.825249545E-2
4.282770001E2,-1.009454057E-1,-4.184423760E-2,2.076940238E-2
4.287811542E2,-8.399390429E-2,-4.459312931E-2,3.375028074E-2
4.292853084E2,-9.056070447E-2,-4.902189970E-2,3.344484791E-2
4.297894628E2,-1.050687432E-1,-1.893680729E-2,4.413498193E-2
4.302936172E2,-1.169806048E-1,-3.252854943E-2,4.444041103E-2
4.307977720E2,-1.258381456E-1,-3.069595434E-2,4.123337194E-2
4.313019270E2,-1.281288862E-1,-3.527744114E-2,4.780016840E-2
4.318060820E2,-1.275180280E-1,-4.642572254E-2,5.345066637E-2
4.323102373E2,-1.279761642E-1,-3.023780696E-2,6.444623321E-2
4.328143926E2,-1.285870373E-1,-3.054323979E-2,5.665770918E-2
4.333185479E2,-1.186604798E-1,-3.940077871E-2,6.566796452E-2
4.338227032E2,-1.282816082E-1,-2.977965772E-2,5.039634556E-2
4.343268586E2,-1.206457913E-1,-2.474002354E-2,3.726275265E-2
4.348310143E2,-1.226311028E-1,-1.664606482E-2,4.963276163E-2
4.353351701E2,-1.133154184E-1,-2.367101051E-2,3.802633286E-2
4.358393260E2,-1.017089859E-1,-9.315688163E-3,5.528326333E-2
4.363434820E2,-9.728021920E-2,-2.107483521E-2,2.306014486E-2
4.368476382E2,-9.529490769E-2,-8.093958721E-3,7.437278330E-2
4.373517944E2,-9.086613357E-2,-2.947422490E-2,6.688969582E-2
4.378559507E2,-8.842267841E-2,-9.162971983E-4,2.932151034E-2
4.383601070E2,-7.116574794E-2,1.817322709E-2,1.786779426E-2
4.388642631E2,-2.641990222E-2,1.954767294E-2,1.557705179E-2
4.393684192E2,-2.076940238E-2,1.099556591E-2,4.886918236E-3
4.398725751E2,-2.168569900E-2,3.161225095E-2,-3.207040206E-2
4.403767309E2,-1.007926930E-2,3.375028074E-2,1.527161949E-4
4.408808867E2,3.359756200E-3,-6.108647794E-4,1.084284950E-2
4.413850423E2,2.290742937E-3,-8.857538924E-3,1.557705179E-2
4.418891980E2,-9.773836471E-3,-2.076940238E-2,1.878409274E-2
4.423933535E2,-2.748891525E-2,3.207040206E-2,-6.108647794E-4
4.428975091E2,-1.038470119E-2,3.222311661E-2,4.123337101E-3
4.434016647E2,1.038470119E-2,3.665188793E-3,-1.985310577E-3
4.439058204E2,2.000582218E-2,-1.404988952E-2,1.069013379E-3
4.444099762E2,1.481347065E-2,-3.665188793E-3,7.635809598E-4
4.449141320E2,6.414080039E-3,9.773836471E-3,-8.552107029E-3
4.454182878E2,1.145371422E-2,-1.007926930E-2,6.108647794E-4
4.459224438E2,2.138026757E-3,6.872228812E-3,-7.635809598E-4
4.464265998E2,-1.527161949E-4,3.665188793E-3,-5.650499370E-3
4.469307561E2,9.162971983E-4,-1.588248461E-2,-3.191768378E-2
4.474349128E2,7.635809598E-4,6.872228812E-3,1.802051067E-2
4.479390698E2,2.901607659E-3,-1.221729559E-3,4.581485875E-3
4.484432271E2,-2.138026757E-3,1.634063199E-2,3.359756200E-3
4.489473845E2,1.679878100E-3,-9.162971983E-4,8.246674202E-3
4.494515419E2,-3.054323897E-4,3.817904973E-3,-4.734201822E-3
4.499556995E2,-2.901607659E-3,7.788525894E-3,9.162971983E-4
4.504598571E2,1.221729559E-3,-2.748891478E-3,3.054323897E-4
4.509640148E2,-3.054323897E-4,1.374445739E-3,-9.162971983E-4
4.514681724E2,-6.108647794E-4,1.832594397E-3,0.000000000E0
4.519723300E2,1.832594397E-3,-2.443459118E-3,9.162971983E-4
4.524764876E2,-1.832594397E-3,5.039634649E-3,3.665188793E-3
4.529806451E2,9.162971983E-4,-0.000000000E0,-2.290742937E-3
4.534848025E2,1.374445739E-3,-5.497782957E-3,1.985310577E-3
4.539889600E2,-0.000000000E0,1.374445739E-3,-1.527161920E-3
4.544931173E2,0.000000000E0,4.581485991E-4,-2.290742937E-3
4.549972747E2,1.832594397E-3,-4.276053514E-3,3.665188793E-3
4.555014321E2,-1.527161920E-3,-2.443459118E-3,-8.246674202E-3
4.560055895E2,9.162971983E-4,-1.038470119E-2,-4.886918236E-3
4.565097469E2,-2.596175298E-3,1.069013379E-3,-1.160643063E-2
4.570139041E2,-1.527161949E-4,-8.093958721E-3,-1.007926930E-2
4.575180615E2,2.290742937E-3,1.527161949E-4,1.221729559E-3
4.580222189E2,3.817904973E-3,-9.926552884E-3,-6.566796452E-3
4.585263763E2,9.010255337E-3,-7.330377586E-3,3.665188793E-3
4.590305337E2,4.428769462E-3,4.276053514E-3,-2.290742937E-3
4.595346910E2,1.985310577E-3,1.038470119E-2,-1.099556591E-2
4.600388483E2,6.414080039E-3,-2.351829410E-2,-2.290742937E-3
4.605430054E2,-5.497782957E-3,-2.596175298E-3,-6.414080039E-3
4.610471624E2,4.428769462E-3,-7.330377586E-3,-1.374445739E-3
4.615513195E2,-8.552107029E-3,1.404988952E-2,1.527161949E-4
4.620554768E2,1.069013379E-3,-9.773836471E-3,1.099556591E-2
4.625596343E2,-1.527161920E-3,7.483093534E-3,-9.010255337E-3
4.630637918E2,-4.581485875E-3,1.145371422E-2,-3.512472380E-3
4.635679494E2,4.123337101E-3,-9.162971750E-3,1.527161949E-4
4.640721070E2,5.497782957E-3,1.435532235E-2,-2.443459118E-3
4.645762647E2,1.771507785E-2,2.901607659E-3,-1.160643063E-2
4.650804225E2,2.382372692E-2,1.099556591E-2,-4.886918236E-3
4.655845805E2,3.741546720E-2,1.282816008E-2,-1.313359290E-2
4.660887388E2,4.046979174E-2,3.619373962E-2,-1.237001177E-2
4.665928974E2,5.238165334E-2,2.428187430E-2,-1.053741761E-2
4.670970561E2,5.299251899E-2,2.947422490E-2,-1.267544460E-2
4.676012149E2,5.375609919E-2,1.893680729E-2,-1.450803876E-2
4.681053738E2,5.299251899E-2,-7.788525894E-3,-1.404988952E-2
4.686095326E2,4.245510325E-2,-1.343902480E-2,-5.803215317E-3
4.691136913E2,3.665188700E-2,-1.466075517E-2,-1.145371422E-2
4.696178502E2,2.397644334E-2,-2.321286127E-2,-1.481347065E-2
4.701220089E2,2.183841541E-2,-1.404988952E-2,6.108647678E-3
4.706261677E2,-7.635809598E-4,1.282816008E-2,-1.359174121E-2
4.711303264E2,6.108647794E-4,5.039634649E-3,9.010255337E-3
4.716344853E2,0.000000000E0,-1.069013379E-3,5.803215317E-3
4.721386443E2,4.123337101E-3,-1.710421406E-2,-1.099556591E-2
4.726428031E2,-7.330377586E-3,1.389717404E-2,1.282816008E-2
4.731469620E2,4.123337101E-3,-1.725693047E-2,-6.108647794E-4
4.736511211E2,-3.207040019E-3,-6.108647794E-4,-2.596175298E-3
4.741552806E2,4.581485991E-4,-9.926552884E-3,3.359756200E-3
4.746594405E2,-1.069013402E-2,2.015853859E-2,3.207040019E-3
4.751636008E2,-4.581485875E-3,-4.276053514E-3,2.901607659E-3
4.756677613E2,-6.261364091E-3,3.054323839E-3,-5.345067009E-3
4.761719219E2,-1.527161920E-3,-1.023198478E-2,7.788525894E-3
4.766760824E2,-2.748891478E-3,-7.177661173E-3,4.581485875E-3
4.771802431E2,-2.748891478E-3,2.290742937E-3,-1.221729559E-3
4.776844039E2,-1.679878100E-3,-1.221729559E-3,-1.069013379E-3
4.781885651E2,-8.552107029E-3,5.345067009E-3,-2.290742937E-3
4.786927267E2,-1.404988952E-2,2.061668597E-2,1.069013379E-3
4.791968889E2,-3.512472380E-3,-1.786779426E-2,1.160643063E-2
4.797010520E2,4.428769462E-3,-3.481929377E-2,8.552107029E-3
4.802052155E2,-1.007926930E-2,4.581485689E-2,4.123337101E-3
4.807093794E2,-1.985310577E-3,2.367101051E-2,-1.084284950E-2
4.812135434E2,9.621120058E-3,2.840521187E-2,-1.588248461E-2
4.817177077E2,1.695149764E-2,3.497200832E-2,1.710421406E-2
4.822218725E2,2.519817278E-2,-1.435532235E-2,-1.878409274E-2
4.827260378E2,3.665188793E-3,-4.963276163E-2,1.084284950E-2
4.832302035E2,-2.474002354E-2,-1.357647032E-1,4.123337101E-3
4.837343692E2,-8.567378670E-2,-3.863719851E-2,2.214384824E-2
4.842385348E2,-1.108719558E-1,-6.872228812E-3,1.267544460E-2
4.847427001E2,-9.346231073E-2,-4.734202102E-2,5.711585656E-2
4.852468654E2,-9.728021920E-2,-5.894844979E-2,4.871646687E-2
4.857510307E2,-1.339320987E-1,-3.863719851E-2,6.032289565E-2
4.862551961E2,-1.435532272E-1,-1.183550507E-1,1.029307172E-1
4.867593616E2,-1.751654744E-1,-3.695731983E-2,8.796452731E-2
4.872635271E2,-1.452330947E-1,1.298087649E-2,1.817322709E-2
4.877676927E2,-9.651663154E-2,8.552107029E-3,2.260199748E-2
4.882718584E2,-8.750637621E-2,4.886918236E-3,3.436114267E-2
4.887760243E2,-6.047561392E-2,1.359174121E-2,4.993819445E-2
4.892801904E2,-5.207622424E-2,-3.772090003E-2,3.359756246E-2
4.897843569E2,-6.887500733E-2,4.260781780E-2,-1.007926930E-2
4.902885239E2,-5.894844979E-2,6.872228812E-3,1.313359290E-2
4.907926920E2,-3.924806044E-2,-2.443459071E-2,3.237583488E-2
4.912968611E2,-2.687804960E-2,7.941242307E-3,3.970621154E-3
4.918010314E2,-1.695149764E-2,5.192350596E-2,-2.748891478E-3
4.923052026E2,8.704823442E-3,7.635809598E-4,-1.985310577E-3
4.928093749E2,4.886918236E-3,2.290742937E-3,-1.481347065E-2
4.933135484E2,9.010255337E-3,-1.298087649E-2,1.145371422E-2
4.938177235E2,4.886918236E-3,-2.122755162E-2,5.039634649E-3
4.943219002E2,-2.015853859E-2,2.336557768E-2,-1.359174121E-2
4.948260785E2,8.857538924E-3,-2.748891525E-2,2.733619884E-2
4.953302578E2,-1.695149764E-2,5.177079141E-2,-3.787361458E-2
4.958344380E2,1.832594350E-2,-1.038470119E-2,2.474002354E-2
4.963386186E2,1.557705179E-2,-4.062250629E-2,-7.483093534E-3
4.968428000E2,-8.399390616E-3,2.626718581E-2,7.635809598E-4
4.973469815E2,1.374445739E-3,-9.468403645E-3,4.581485875E-3
4.978511633E2,-1.191186346E-2,2.367101051E-2,-7.635809947E-3
4.983553451E2,-5.955931731E-3,1.298087649E-2,7.941242307E-3
4.988595268E2,-1.007926930E-2,9.315688163E-3,-5.192350596E-3
4.993637082E2,-5.039634649E-3,-2.290742937E-3,1.527161989E-2
4.998678893E2,-7.177661173E-3,7.635809947E-3,-1.175914705E-2
5.003720701E2,-9.162971983E-4,1.221729559E-3,6.872228812E-3
5.008762505E2,3.512472380E-3,-3.970621154E-3,-1.221729559E-3
5.013804305E2,7.024944760E-3,1.939495653E-2,-1.695149764E-2
5.018846101E2,1.786779426E-2,3.466657549E-2,-2.901607659E-3
5.023887894E2,4.718930274E-2,3.711003438E-2,-1.893680729E-2
5.028929682E2,7.024945319E-2,5.574141070E-2,-2.031125315E-2
5.033971466E2,9.498947114E-2,3.207040206E-2,-7.941242307E-3
5.039013243E2,9.269873053E-2,3.237583488E-2,-3.543015569E-2
5.044055012E2,1.215620935E-1,-1.313359290E-2,-1.847865991E-2
5.049096774E2,9.483675659E-2,4.489856213E-2,-2.748891525E-2
5.054138532E2,9.743293375E-2,5.925388262E-2,-3.817904741E-2
5.059180286E2,1.105665267E-1,3.695731983E-2,-2.641990222E-2
5.064222039E2,1.096502244E-1,3.298669681E-2,-2.901607752E-2
5.069263790E2,1.111773923E-1,2.412915789E-2,-2.855792828E-2
5.074305537E2,1.145371497E-1,9.315688163E-3,-1.939495653E-2
5.079347277E2,1.053741723E-1,1.954767294E-2,-3.451386094E-2
5.084389013E2,9.330959618E-2,2.748891478E-3,-2.031125315E-2
5.089430745E2,7.269290835E-2,1.527161949E-4,-1.298087649E-2
5.094472473E2,6.078104675E-2,-6.872228812E-3,3.817904973E-3
5.099514202E2,4.199695215E-2,-5.039634649E-3,-1.206457894E-2
5.104555936E2,2.138026804E-2,9.010255337E-3,-1.298087649E-2
5.109597674E2,2.046396956E-2,9.773836471E-3,-1.527161949E-4
5.114639413E2,9.162971750E-3,4.734202102E-2,-1.786779426E-2
5.119681152E2,4.459312931E-2,-3.313941509E-2,6.414080039E-3
5.124722893E2,2.153298259E-2,-4.276053514E-3,-5.650499370E-3
5.129764632E2,1.114828233E-2,1.069013379E-3,-3.359756200E-3
5.134806371E2,6.261364091E-3,-5.192350596E-3,-7.483093534E-3
5.139848109E2,-2.596175298E-3,-3.665188793E-3,-2.871064469E-2
5.144889847E2,1.404988952E-2,-4.581485875E-3,2.779434808E-2
5.149931584E2,-2.596175298E-3,1.649334840E-2,3.665188793E-3
5.154973319E2,5.650499370E-3,-2.641990222E-2,2.031125315E-2
5.160015051E2,-1.055268943E-1,2.474002354E-2,5.558869615E-2
5.165056783E2,-2.809977904E-2,3.233001828E-1,1.879936308E-1
5.170098511E2,-2.275471240E-1,9.075923562E-1,-2.145662606E-1
5.175140238E2,8.933897316E-2,6.062832847E-2,7.635809598E-4
5.180181964E2,6.414080039E-3,-9.773836471E-3,-9.926552884E-3
5.185223688E2,-4.734201822E-3,-4.276053514E-3,-8.093958721E-3
5.190265410E2,-2.138026757E-3,-1.374445739E-3,4.734201822E-3
5.195307132E2,1.221729559E-3,-2.443459118E-3,1.069013379E-3
5.200348855E2,-3.817904973E-3,-8.704823442E-3,4.886918236E-3
5.205390577E2,4.581485875E-3,1.221729559E-3,-2.901607659E-3
5.210432299E2,1.527161949E-4,-1.832594397E-3,7.635809598E-4
5.215474022E2,-9.162971983E-4,-3.054323897E-4,7.788525894E-3
5.220515746E2,1.221729559E-3,-1.221729559E-3,5.345067009E-3
5.225557470E2,2.901607659E-3,-6.108647678E-3,1.832594397E-3
5.230599193E2,-3.054323897E-4,2.138026757E-3,1.527161949E-4
5.235640915E2,-6.108647794E-4,-1.832594397E-3,6.108647794E-4
5.240682637E2,2.443459118E-3,-2.596175298E-3,4.581485991E-4
5.245724356E2,4.581485875E-3,-9.162971983E-4,-1.221729559E-3
5.250766074E2,9.162971983E-4,-3.970621154E-3,-6.414080039E-3
5.255807792E2,6.872228812E-3,2.596175298E-3,-1.237001177E-2
5.260849511E2,3.359756200E-3,-6.108647794E-4,-9.621120058E-3
5.265891230E2,7.941242307E-3,3.359756200E-3,-1.099556591E-2
5.270932949E2,5.497782957E-3,6.414080039E-3,8.857538924E-3
5.275974668E2,4.092793912E-2,-4.031707719E-2,2.458730713E-2
5.281016386E2,7.437278330E-2,-9.590577334E-2,1.055268943E-1
5.286058104E2,8.048143238E-2,-7.483093441E-2,8.063415438E-2
5.291099820E2,2.947422490E-2,-1.588248461E-2,1.099556591E-2
5.296141537E2,3.100138716E-2,1.298087649E-2,1.007926930E-2
5.301183257E2,-8.399390616E-3,-1.069013402E-2,-5.955931731E-3
5.306224982E2,-1.832594397E-3,1.786779426E-2,-1.985310577E-2
5.311266714E2,-7.177661173E-3,-1.313359290E-2,5.803215317E-3
5.316308452E2,2.168569900E-2,-3.619373962E-2,1.527161920E-3
5.321350194E2,-2.275471389E-2,6.108647678E-3,-8.246674202E-3
5.326391939E2,-3.497200832E-2,-1.603520103E-2,8.399390616E-3
5.331433686E2,-2.611446939E-2,-1.328630932E-2,-8.246674202E-3
5.336475432E2,-2.229656465E-2,-2.153298259E-2,-1.679878100E-3
5.341517178E2,-2.214384824E-2,-4.428769462E-3,-8.093958721E-3
5.346558922E2,-3.665188793E-3,-1.695149764E-2,1.679878100E-3
5.351600666E2,2.336557768E-2,-3.161225095E-2,3.161225095E-2
5.356642408E2,7.635809598E-4,-2.138026757E-3,9.162971750E-3
5.361684150E2,1.466075517E-2,-1.069013402E-2,-1.007926930E-2
5.366725891E2,1.114828233E-2,-3.512472380E-3,-4.276053514E-3
5.371767630E2,-7.635809598E-4,-1.527161989E-2,4.886918236E-3
5.376809367E2,-1.695149764E-2,-1.237001177E-2,1.343902480E-2
5.381851104E2,7.788525894E-3,-4.581485875E-3,6.414080039E-3
5.386892839E2,-2.474002354E-2,-3.207040019E-3,6.566796452E-3
5.391934571E2,-2.138026757E-3,-4.581485875E-3,-7.177661173E-3
5.396976303E2,1.679878100E-3,2.244928107E-2,-1.328630932E-2
5.402018033E2,1.160643063E-2,-9.926552884E-3,1.679878100E-3
5.407059762E2,3.390299529E-2,1.511890348E-2,-8.246674202E-3
5.412101488E2,4.199695215E-2,1.038470119E-2,1.985310577E-3
5.417143215E2,4.825831577E-2,-1.557705179E-2,3.711003438E-2
5.422184943E2,9.315688163E-2,-2.489273995E-2,-6.414080039E-3
5.427226673E2,1.014035568E-1,-1.985310577E-2,6.719512399E-3
5.432268404E2,1.030834317E-1,6.108647678E-3,3.970621154E-2
5.437310138E2,1.285870373E-1,1.130099874E-2,4.428769462E-3
5.442351873E2,9.911280870E-2,-3.191768378E-2,-3.817904973E-3
5.447393611E2,5.375609919E-2,-3.588830680E-2,6.078104675E-2
5.452435349E2,2.733619884E-2,1.191186346E-2,1.634063199E-2
5.457477087E2,2.962694131E-2,-4.993819445E-2,7.941242307E-3
5.462518825E2,1.832594397E-3,-2.733619884E-2,1.267544460E-2
5.467560562E2,4.276053514E-3,-2.367101051E-2,9.926552884E-3
5.472602298E2,-0.000000000E0,4.352411628E-2,-1.282816008E-2
5.477644032E2,-1.374445739E-3,-1.954767294E-2,7.788525894E-3
5.482685765E2,-1.527161989E-2,8.704823442E-3,-5.497782957E-3
5.487727496E2,3.970621154E-3,-5.039634649E-3,-8.399390616E-3
5.492769226E2,-7.635809947E-3,1.985310577E-3,3.512472380E-3
5.497810954E2,3.665188793E-3,-1.053741761E-2,6.719512399E-3
5.502852682E2,-1.985310577E-3,5.039634649E-3,-7.024944760E-3
5.507894408E2,2.290742937E-3,-4.123337101E-3,9.162971750E-3
5.512936134E2,6.719512399E-3,-2.214384824E-2,1.359174121E-2
5.517977858E2,-4.581485991E-4,-3.512472380E-3,-1.481347065E-2
5.523019581E2,-1.221729559E-3,-9.162971750E-3,-6.108647794E-4
5.528061302E2,8.704823442E-3,-6.566796452E-3,-1.374445739E-3
5.533103020E2,1.527161949E-4,-4.734201822E-3,-1.221729559E-3
5.538144737E2,2.519817278E-2,-6.062832847E-2,1.817322709E-2
5.543186450E2,-6.551524997E-2,1.223256737E-1,3.008509055E-2
5.548228162E2,1.267544460E-2,-6.704241037E-2,1.282816008E-2
5.553269871E2,-1.191186346E-2,2.947422490E-2,5.329795182E-2
5.558311578E2,-9.468403645E-3,-2.290742937E-3,-1.679878100E-3
5.563353282E2,-3.970621154E-3,3.207040019E-3,1.053741761E-2
5.568394984E2,3.207040019E-3,1.374445739E-3,-4.001164436E-2
5.573436684E2,-6.108647678E-3,-1.114828233E-2,-2.489273995E-2
5.578478382E2,2.321286127E-2,1.511890348E-2,-2.764163166E-2
5.583520078E2,-2.000582218E-2,3.054323979E-2,1.970038936E-2
5.588561773E2,1.435532235E-2,-2.886336111E-2,-1.985310577E-3
5.593603466E2,-1.496618707E-2,1.710421406E-2,1.985310577E-3
5.598645158E2,-2.244928107E-2,-2.519817278E-2,4.550942779E-2
5.603686849E2,-1.435532235E-2,-2.718348242E-2,-2.382372692E-2
5.608728537E2,-1.939495653E-2,-3.054323897E-4,-3.649916872E-2
5.613770223E2,-4.367683083E-2,2.168569900E-2,-3.512472380E-3
5.618811907E2,-5.360338464E-2,4.825831577E-2,9.621120058E-3
5.623853591E2,-2.886336111E-2,-2.641990222E-2,-1.832594397E-3
5.628895274E2,-1.756236330E-2,4.428769462E-3,-1.191186346E-2
5.633936955E2,-2.871064469E-2,-1.572976820E-2,-2.229656465E-2
5.638978637E2,-1.450803876E-2,1.359174121E-2,-9.010255337E-3
5.644020317E2,-8.093958721E-3,-1.282816008E-2,-1.389717404E-2
5.649061996E2,8.093958721E-3,-8.704823442E-3,1.221729559E-3
5.654103675E2,-4.734201822E-3,1.099556591E-2,1.237001177E-2
5.659145353E2,-6.108647794E-4,-1.511890348E-2,1.175914705E-2
5.664187030E2,-1.527161920E-3,5.039634649E-3,7.177661173E-3
5.669228708E2,-4.734201822E-3,-2.596175298E-3,-2.107483521E-2
5.674270385E2,-3.726275265E-2,-2.886336111E-2,1.908952370E-2
5.679312062E2,-6.948586553E-2,8.857538924E-3,-1.374445739E-3
5.684353738E2,-2.044869810E-1,1.715002805E-1,-8.994983882E-2
5.689395414E2,-1.823431402E-1,1.508836001E-1,-1.490510106E-1
5.694437089E2,-2.817613780E-1,1.605047137E-1,-2.244928032E-1
5.699478763E2,-2.825249732E-1,1.162170291E0,-6.241511106E-1
5.704520438E2,2.838993967E-1,2.790125012E-1,-2.779434621E-1
5.709562112E2,-1.873827726E-1,-3.312414289E-1,-1.916588247E-1
5.714603786E2,-2.747364342E-1,-3.674351573E-1,-1.924224012E-2
5.719645462E2,-1.895207912E-1,-1.823431402E-1,-2.614501119E-1
5.724687141E2,-9.392046183E-2,-1.343902498E-1,-1.307250559E-1
5.729728824E2,-1.560759544E-1,-8.353576064E-2,-1.621845961E-1
5.734770512E2,-1.108719558E-1,-1.543960720E-1,-1.539379209E-1
5.739812202E2,-2.061668634E-1,-3.848448023E-2,3.069595434E-2
5.744853894E2,-2.165515572E-1,-3.642281294E-1,9.743293375E-2
5.749895589E2,-1.427896470E-1,-7.678570151E-1,2.770271897E-1
5.754937285E2,-2.338084877E-1,3.723220825E-1,5.283980444E-2
5.759978982E2,-9.498947114E-2,-9.315688163E-3,2.209803313E-1
5.765020681E2,1.600465775E-1,-1.627954692E-1,5.833758786E-2
5.770062384E2,-5.451968312E-2,-1.113301069E-1,9.712749720E-2
5.775104086E2,-2.351829410E-2,-2.895499170E-1,1.879936308E-1
5.780145788E2,6.994401664E-2,-2.255618125E-1,2.412915789E-2
5.785187492E2,9.926552884E-3,-2.306014486E-2,-5.039634556E-2
5.790229197E2,9.162971983E-4,-2.641990222E-2,-2.061668597E-2
5.795270902E2,3.512472380E-3,-1.130099874E-2,-2.076940238E-2
5.800312609E2,1.679878123E-2,-2.657261863E-2,-2.626718581E-2
5.805354317E2,-1.038470119E-2,1.490510106E-1,-2.532034516E-1
5.810396026E2,-5.864302069E-2,1.327103674E-1,-2.489273995E-2
5.815437735E2,5.177079141E-2,-1.017089859E-1,1.475238502E-1
5.820479445E2,-1.069013402E-2,-9.575305134E-2,5.681042373E-2
5.825521156E2,-1.053741761E-2,-1.007926930E-2,-2.962694131E-2
5.830562867E2,-2.489273995E-2,-2.275471389E-2,-3.130681813E-2
5.835604581E2,-8.857538924E-3,1.175914705E-2,-1.420260593E-2
5.840646297E2,9.162971983E-4,3.054323897E-4,1.450803876E-2
5.845688014E2,1.298087649E-2,-3.497200832E-2,1.282816008E-2
5.850729733E2,1.847865991E-2,-1.710421406E-2,3.298669681E-2
5.855771451E2,2.031125315E-2,-3.283398226E-2,1.634063199E-2
5.860813169E2,-3.054323839E-3,-3.817904973E-3,-3.817904973E-3
5.865854887E2,2.748891478E-3,-2.748891478E-3,-6.566796452E-3
5.870896605E2,5.803215317E-3,-1.420260593E-2,-1.679878100E-3
5.875938323E2,1.023198478E-2,-1.053741761E-2,-1.527161920E-3
5.880980042E2,9.621120058E-3,6.872228812E-3,-3.359756200E-3
5.886021761E2,4.886918236E-3,2.901607659E-3,0.000000000E0
5.891063483E2,-8.078686893E-2,2.672533393E-1,-3.069595434E-2
5.896105206E2,1.837175786E-1,3.440696001E-1,-2.012799382E-1
5.901146930E2,-4.234820008E-1,-9.575305134E-2,1.710421406E-2
5.906188655E2,2.761108875E-1,2.661843300E-1,9.437860548E-2
5.911230379E2,-6.505709887E-2,-1.044578776E-1,2.153298259E-2
5.916272105E2,-2.809977904E-2,-5.406153202E-2,4.948004708E-2
5.921313831E2,-6.169734150E-2,-2.391535640E-1,1.618791670E-1
5.926355555E2,1.342375278E-1,-5.716167092E-1,3.495673835E-1
5.931397279E2,4.612028971E-2,-1.062904745E-1,-9.666935354E-2
5.936439004E2,6.261364091E-3,-7.483093534E-3,-3.359756200E-3
5.941480731E2,3.970621154E-3,-1.542433538E-2,-2.336557768E-2
5.946522458E2,-5.650499370E-3,6.872228812E-3,-5.955931731E-3
5.951564184E2,8.093958721E-3,3.665188793E-3,-3.359756200E-3
5.956605909E2,1.603520103E-2,-2.901607659E-3,-8.399390616E-3
5.961647634E2,3.420842811E-2,-1.527161989E-2,-6.261364091E-3
5.966689357E2,4.321868345E-2,-1.298087649E-2,-8.857538924E-3
5.971731081E2,7.498364896E-2,-3.191768378E-2,-1.924224012E-2
5.976772805E2,1.030834317E-1,-4.306596518E-2,-2.260199748E-2
5.981814530E2,9.010255337E-2,-8.246674202E-3,-1.175914705E-2
5.986856254E2,1.397353113E-1,-7.727439702E-2,-1.649334840E-2
5.991897981E2,1.992946416E-1,-5.955931544E-2,8.857538924E-3
5.996939713E2,2.727511227E-1,-1.357647032E-1,-2.535088919E-2
6.001981452E2,3.110828996E-1,-1.221729591E-1,-2.504545636E-2
6.007023195E2,3.494146466E-1,-1.276707351E-1,-9.773836471E-3
6.012064941E2,3.483456373E-1,-1.296560466E-1,-3.741546720E-2
6.017106689E2,3.365865052E-1,-1.043051630E-1,-3.405570984E-2
6.022148438E2,2.764163017E-1,-4.627300799E-2,-4.031707719E-2
6.027190188E2,2.528980076E-1,-1.168278903E-1,-1.802051067E-2
6.032231938E2,1.635590494E-1,-1.139262840E-1,-4.367683083E-2
6.037273687E2,1.247691289E-1,-4.550942779E-2,-3.573558852E-2
6.042315435E2,7.864884287E-2,-4.963276163E-2,-6.872228812E-3
6.047357182E2,3.726275265E-2,-3.970621154E-2,-1.878409274E-2
6.052398929E2,2.229656465E-2,-1.878409274E-2,-3.115410358E-2
6.057440676E2,2.138026757E-3,1.679878100E-3,-1.832594350E-2
6.062482423E2,-2.748891478E-3,-1.313359290E-2,-5.039634649E-3
6.067524169E2,-3.817904973E-3,-1.466075517E-2,-5.955931731E-3
6.072565915E2,7.330377586E-3,-9.773836471E-3,-1.679878100E-3
6.077607662E2,8.246674202E-3,1.817322709E-2,-1.420260593E-2
6.082649411E2,-6.108647678E-3,3.054323839E-3,-1.282816008E-2
6.087691163E2,8.552107029E-3,-1.313359290E-2,2.443459118E-3
6.092732919E2,-5.497782957E-3,2.672533318E-2,1.527161949E-4
6.097774676E2,-2.748891478E-3,4.886918236E-3,7.024944760E-3
6.102816435E2,1.832594397E-3,-2.092211880E-2,-1.756236330E-2
6.107858193E2,7.635809598E-4,-8.704823442E-3,1.786779426E-2
6.112899951E2,1.802051067E-2,1.725693047E-2,-2.290742844E-2
6.117941709E2,2.596175298E-3,-2.046396956E-2,-6.108647794E-4
6.122983467E2,1.985310577E-3,-3.008509055E-2,-8.552107029E-3
6.128025224E2,1.527161989E-2,1.954767294E-2,1.557705179E-2
6.133066979E2,9.162971983E-4,-1.970038936E-2,-1.466075517E-2
6.138108734E2,1.038470119E-2,2.000582218E-2,-1.221729536E-2
6.143150488E2,-1.069013402E-2,-9.773836471E-3,1.802051067E-2
6.148192243E2,5.650499370E-3,-2.580903657E-2,-1.893680729E-2
6.153233996E2,1.069013379E-3,3.466657549E-2,1.282816008E-2
6.158275751E2,-4.428769462E-3,1.847865991E-2,1.832594397E-3
6.163317508E2,-3.817904973E-3,-1.114828233E-2,-1.374445762E-2
6.168359267E2,7.635809598E-4,-4.581485991E-4,1.954767294E-2
6.173401030E2,1.023198478E-2,1.878409274E-2,-7.024944760E-3
6.178442794E2,3.512472380E-3,1.618791744E-2,9.162971983E-4
6.183484558E2,7.330377586E-3,-2.336557768E-2,4.581485991E-4
6.188526326E2,4.276053514E-3,-1.939495653E-2,7.330377586E-3
6.193568099E2,3.359756200E-3,2.672533318E-2,-1.038470119E-2
6.198609877E2,-6.719512399E-3,-2.122755162E-2,6.872228812E-3
6.203651657E2,3.665188793E-3,3.207040019E-3,-6.108647678E-3
6.208693437E2,-2.290742937E-3,8.246674202E-3,9.162971983E-4
6.213735217E2,-8.857538924E-3,-1.053741761E-2,-6.719512399E-3
6.218776996E2,1.069013379E-3,6.108647794E-4,1.527161949E-4
6.223818776E2,-8.552107029E-3,-9.162971983E-4,7.024944760E-3
6.228860557E2,-1.695149764E-2,-8.093958721E-3,-3.207040019E-3
6.233902339E2,-1.237001177E-2,-1.679878100E-3,-1.374445739E-3
6.238944122E2,-2.840521187E-2,-8.552107029E-3,-3.665188793E-3
6.243985905E2,-5.024362728E-2,-3.573558852E-2,1.466075517E-2
6.249027687E2,-1.924224012E-2,-7.177661173E-3,-2.367101051E-2
6.254069470E2,-2.336557768E-2,5.833758786E-2,9.315688163E-3
6.259111250E2,-2.412915789E-2,4.871646687E-2,-2.290742937E-3
6.264153031E2,1.359174121E-2,1.237001177E-2,1.832594397E-3
6.269194810E2,1.863137633E-2,1.832594350E-2,1.527161920E-3
6.274236588E2,4.718930274E-2,-1.069013402E-2,-1.832594397E-3
6.279278364E2,2.596175298E-3,2.397644334E-2,-2.428187430E-2
6.284320137E2,3.802633286E-2,-5.192350596E-2,5.192350596E-3
6.289361909E2,9.010255337E-3,-6.414080039E-3,1.038470119E-2
6.294403680E2,9.468403645E-3,-2.657261863E-2,-7.941242307E-3
6.299445451E2,0.000000000E0,-6.414080039E-3,-3.512472380E-3
6.304487223E2,-2.138026757E-3,1.985310577E-3,3.359756200E-3
6.309528995E2,-3.512472380E-3,5.650499370E-3,-1.206457894E-2
6.314570768E2,-4.734201822E-3,-8.552107029E-3,7.330377586E-3
6.319612540E2,7.024944760E-3,-6.261364091E-3,-9.773836471E-3
6.324654311E2,-3.359756200E-3,3.252854943E-2,2.443459118E-3
6.329696081E2,2.138026757E-3,-1.084284950E-2,1.496618707E-2
6.334737849E2,2.138026757E-3,-1.679878100E-3,-2.092211880E-2
6.339779619E2,-5.039634649E-3,-5.192350596E-3,1.603520103E-2
6.344821389E2,4.428769462E-3,-2.244928107E-2,-1.466075517E-2
6.349863162E2,-2.443459118E-3,2.443459071E-2,1.679878123E-2
6.354904937E2,-0.000000000E0,-1.786779426E-2,-1.175914705E-2
6.359946712E2,1.527161989E-2,1.191186346E-2,-7.788525894E-3
6.364988488E2,-1.343902480E-2,1.145371422E-2,5.650499370E-3
6.370030262E2,7.483093534E-3,-2.626718581E-2,1.053741761E-2
6.375072039E2,-7.635809947E-3,2.046396956E-2,-8.093958721E-3
6.380113817E2,2.443459118E-3,-5.803215317E-3,1.832594397E-3
6.385155595E2,-2.443459118E-3,2.596175298E-2,-1.832594350E-2
6.390197373E2,-7.177661173E-3,-1.221729559E-3,1.634063199E-2
6.395239151E2,3.817904973E-3,-2.626718581E-2,-9.162971983E-4
6.400280929E2,2.290742937E-3,1.389717404E-2,2.138026757E-3
6.405322707E2,-3.054323897E-4,1.527161949E-4,6.261364091E-3
6.410364485E2,1.099556591E-2,-3.084867075E-2,-4.886918236E-3
6.415406263E2,5.955931731E-3,-4.428769462E-3,-5.803215317E-3
6.420448040E2,6.108647678E-3,-9.468403645E-3,1.221729559E-3
6.425489817E2,-1.832594397E-3,9.010255337E-3,1.160643063E-2
6.430531592E2,-6.719512399E-3,-2.138026757E-3,-1.664606482E-2
6.435573368E2,-3.054323839E-3,-3.329212964E-2,1.404988952E-2
6.440615145E2,-3.970621154E-3,2.214384824E-2,-1.374445739E-3
6.445656921E2,-3.817904973E-3,1.099556591E-2,6.261364091E-3
6.450698696E2,9.162971983E-4,-2.306014486E-2,-1.221729559E-3
6.455740469E2,1.527161920E-3,3.649916872E-2,-4.886918236E-3
6.460782242E2,5.803215317E-3,-2.993237413E-2,-6.108647794E-4
6.465824013E2,3.817904973E-3,-2.412915789E-2,4.123337101E-3
6.470865783E2,-4.581485991E-4,2.290742844E-2,8.399390616E-3
6.475907553E2,-7.941242307E-3,-2.138026757E-3,-1.007926930E-2
6.480949322E2,-2.901607659E-3,-2.382372692E-2,1.191186346E-2
6.485991090E2,0.000000000E0,3.558287397E-2,-4.886918236E-3
6.491032858E2,-4.581485875E-3,5.955931731E-3,7.788525894E-3
6.496074627E2,-1.527161920E-3,-2.000582218E-2,-8.246674202E-3
6.501116395E2,1.527161949E-4,4.581485991E-4,4.123337101E-3
6.506158165E2,1.374445739E-3,1.099556591E-2,-1.221729559E-3
6.511199935E2,-1.679878100E-3,1.679878100E-3,-1.985310577E-3
6.516241703E2,2.138026757E-3,-3.130681813E-2,1.069013379E-3
6.521283474E2,9.926552884E-3,4.642572254E-2,-3.817904973E-3
6.526325244E2,-6.566796452E-3,-1.282816008E-2,-7.330377586E-3
6.531367015E2,1.221729559E-3,-5.787943676E-2,-1.069013379E-3
6.536408786E2,-3.665188793E-3,3.558287397E-2,-9.162971750E-3
6.541450557E2,7.024944760E-3,-1.557705179E-2,1.374445739E-3
6.546492328E2,-2.290742937E-3,6.108647794E-4,-8.399390616E-3
6.551534098E2,-3.512472380E-3,-6.108647678E-3,1.618791744E-2
6.556575866E2,-1.374445739E-3,7.024944760E-3,-9.773836471E-3
6.561617635E2,-8.093958721E-3,-1.374445739E-3,3.054323897E-4
6.566659403E2,-4.276053514E-3,2.138026804E-2,-3.054323839E-3
6.571701172E2,-9.010255337E-3,-9.162971983E-4,4.123337101E-3
6.576742939E2,1.420260593E-2,-1.679878123E-2,3.054323839E-3
6.581784708E2,-3.390299529E-2,9.651663154E-2,-9.926552884E-3
6.586826483E2,-1.527161920E-3,-1.136208475E-1,-2.748891478E-3
6.591868266E2,4.444041103E-2,-9.086613357E-2,3.100138716E-2
6.596910058E2,3.817904973E-3,6.826414168E-2,-1.481347065E-2
6.601951860E2,4.321868345E-2,-7.559451461E-2,-7.024944760E-3
6.606993674E2,3.344484791E-2,-1.328630932E-2,-5.955931731E-3
6.612035500E2,9.926552884E-3,7.177661173E-3,-1.114828233E-2
6.617077340E2,2.626718581E-2,1.145371422E-2,-4.428769462E-3
6.622119192E2,1.908952370E-2,-2.046396956E-2,-4.581485991E-4
6.627161057E2,3.084867075E-2,-1.786779426E-2,-1.374445739E-3
6.632202931E2,3.756818548E-2,4.734201822E-3,3.588830680E-2
6.637244814E2,6.414080039E-3,6.979130208E-2,-1.511890348E-2
6.642286705E2,-6.307178736E-2,1.209512278E-1,-2.641990222E-2
6.647328603E2,6.459894776E-2,-1.687513888E-1,-5.009091273E-2
6.652370507E2,-1.331685185E-1,1.542433500E-1,6.918043643E-2
6.657412417E2,3.573558852E-2,-2.306014486E-2,-5.803215317E-3
6.662454330E2,-7.941242307E-3,-7.788525894E-3,1.343902480E-2
6.667496244E2,-4.642572254E-2,6.108647957E-2,-3.222311661E-2
6.672538161E2,-8.949168772E-2,2.414443046E-1,1.325576603E-1
6.677580078E2,5.299251899E-2,5.955931544E-2,-4.352411628E-2
6.682621995E2,-1.033888608E-1,-3.878991306E-2,6.902772188E-2
6.687663912E2,1.985310577E-2,-5.115992576E-2,-5.894844979E-2
6.692705826E2,2.138026757E-3,1.954767294E-2,-3.054323839E-3
6.697747739E2,3.634645417E-2,-7.574722916E-2,-2.443459071E-2
6.702789649E2,2.489273995E-2,-1.435532235E-2,-1.588248461E-2
6.707831559E2,-1.832594350E-2,4.062250629E-2,-3.054323897E-4
6.712873469E2,5.039634649E-3,-1.908952370E-2,-3.665188793E-3
6.717915381E2,8.704823442E-3,-1.252272818E-2,-5.345067009E-3
6.722957293E2,-7.483093534E-3,2.809977904E-2,-2.596175298E-3
6.727999202E2,3.665188793E-3,-4.581485875E-3,3.054323839E-3
6.733041111E2,1.420260593E-2,-2.809977904E-2,-2.519817278E-2
6.738083021E2,7.635809947E-3,-3.512472380E-3,6.872228812E-3
6.743124932E2,1.832594350E-2,-3.726275265E-2,-4.581485875E-3
6.748166845E2,-6.108647794E-4,6.414080039E-3,-3.207040019E-3
6.753208760E2,-8.093958721E-3,3.543015569E-2,4.428769462E-3
6.758250677E2,1.053741761E-2,-3.298669681E-2,-1.069013379E-3
6.763292597E2,-5.039634649E-3,1.924224012E-2,-1.481347065E-2
6.768334521E2,-1.679878100E-3,-1.710421406E-2,2.138026804E-2
6.773376452E2,-4.276053514E-3,1.481347065E-2,-2.015853859E-2
6.778418396E2,2.076940238E-2,-1.069013402E-2,1.053741761E-2
6.783460355E2,1.527161949E-4,-1.374445762E-2,-1.328630932E-2
6.788502327E2,-6.108647678E-3,8.552107029E-3,1.343902480E-2
6.793544301E2,9.773836471E-3,-4.413498193E-2,-4.886918236E-3
6.798586272E2,-1.634063199E-2,4.108065739E-2,-3.512472380E-3
6.803628240E2,6.108647678E-3,-2.871064469E-2,-1.069013379E-3
6.808670206E2,-4.581485991E-4,-1.221729559E-3,7.635809598E-4
6.813712174E2,1.298087649E-2,2.290742937E-3,-3.207040019E-3
6.818754142E2,-3.054323897E-4,2.290742937E-3,-0.000000000E0
6.823796111E2,-3.665188793E-3,1.588248461E-2,-1.450803876E-2
6.828838081E2,9.621120058E-3,-3.512472659E-2,1.649334840E-2
6.833880050E2,1.542433538E-2,-7.024944760E-3,2.443459118E-3
6.838922019E2,-1.878409274E-2,5.375609919E-2,-9.773836471E-3
6.843963988E2,1.145371422E-2,-3.726275265E-2,2.138026757E-3
6.849005955E2,-6.566796452E-3,1.572976820E-2,-4.276053514E-3
6.854047919E2,-5.650499370E-3,-1.679878100E-3,4.276053514E-3
6.859089879E2,7.330377586E-3,1.527161920E-3,-5.955931731E-3
6.864131838E2,-1.206457894E-2,4.062250629E-2,1.832594397E-3
6.869173795E2,6.108647678E-3,7.635809947E-3,-7.635809598E-4
6.874215754E2,2.275471389E-2,-1.466075517E-2,-1.404988952E-2
6.879257713E2,4.184423760E-2,-2.382372692E-2,-6.719512399E-3
6.884299672E2,-5.497782957E-3,-1.527161920E-3,0.000000000E0
6.889341631E2,-3.054323839E-3,-3.970621154E-3,-1.634063199E-2
6.894383589E2,1.970038936E-2,-2.794706449E-2,3.359756200E-3
6.899425546E2,-1.710421406E-2,3.436114267E-2,-5.192350596E-3
6.904467503E2,3.359756200E-3,-6.108647794E-4,9.468403645E-3
6.909509460E2,5.192350596E-3,-4.169152305E-2,-2.107483521E-2
6.914551418E2,4.428769462E-3,1.679878123E-2,2.092211880E-2
6.919593377E2,-1.481347065E-2,4.062250629E-2,-1.481347065E-2
6.924635337E2,2.321286127E-2,-6.261363626E-2,6.108647678E-3
6.929677297E2,-1.634063199E-2,3.298669681E-2,6.261364091E-3
6.934719258E2,1.893680729E-2,-6.536252797E-2,-4.734201822E-3
6.939761219E2,-1.802051067E-2,2.351829410E-2,9.773836471E-3
6.944803179E2,1.221729559E-3,2.748891525E-2,-3.665188793E-3
6.949845141E2,1.832594397E-3,7.024944760E-3,-2.748891478E-3
6.954887101E2,3.512472380E-3,-3.970621154E-3,-1.175914705E-2
6.959929060E2,1.145371422E-2,7.635809598E-4,1.710421406E-2
6.964971015E2,-1.664606482E-2,2.932151034E-2,-1.007926930E-2
6.970012977E2,1.893680729E-2,-6.215549260E-2,8.704823442E-3
6.975054948E2,-1.679878123E-2,4.031707719E-2,-8.399390616E-3
6.980096931E2,-1.450803876E-2,-3.970621154E-3,-9.773836471E-3
6.985138918E2,1.328630932E-2,7.024944760E-3,1.359174121E-2
6.990180909E2,5.497782957E-3,-2.336557768E-2,-1.435532235E-2
6.995222901E2,1.221729536E-2,-1.282816008E-2,1.252272818E-2
7.000264897E2,-1.588248461E-2,3.313941509E-2,2.901607659E-3
7.005306898E2,1.221729559E-3,7.635809598E-4,1.863137633E-2
7.010348908E2,-1.175914705E-2,5.650499370E-3,-1.389717404E-2
7.015390928E2,1.618791744E-2,-3.069595434E-2,1.786779426E-2
7.020432970E2,-1.328630932E-2,3.420842811E-2,-1.420260593E-2
7.025475032E2,1.007926930E-2,-1.832594350E-2,-1.527161949E-4
7.030517115E2,5.345067009E-3,9.162971983E-4,9.010255337E-3
7.035559214E2,-8.246674202E-3,1.557705179E-2,-1.756236330E-2
7.040601322E2,7.024944760E-3,-2.779434808E-2,1.114828233E-2
7.045643435E2,-1.038470119E-2,1.420260593E-2,-3.054323839E-3
7.050685550E2,-1.069013379E-3,-9.010255337E-3,7.483093534E-3
7.055727667E2,1.985310577E-3,-1.420260593E-2,-1.069013379E-3
7.060769788E2,-5.192350596E-3,2.367101051E-2,-1.985310577E-3
7.065811914E2,-3.054323839E-3,-9.162971983E-4,-7.941242307E-3
7.070854042E2,7.024944760E-3,8.093958721E-3,1.237001177E-2
7.075896173E2,-6.108647794E-4,-3.054323839E-3,3.817904973E-3
7.080938304E2,9.926552884E-3,-3.711003438E-2,-1.298087649E-2
7.085980437E2,8.399390616E-3,7.177661173E-3,-1.313359290E-2
7.091022569E2,-8.552107029E-3,2.474002354E-2,9.315688163E-3
7.096064698E2,-2.443459118E-3,-2.916879393E-2,-1.435532235E-2
7.101106821E2,-9.162971983E-4,-1.221729536E-2,1.099556591E-2
7.106148938E2,-2.397644334E-2,6.032289565E-2,-3.665188793E-3
7.111191050E2,-8.857538924E-3,3.527744114E-2,-2.138026757E-3
7.116233157E2,5.345067009E-3,-3.084867075E-2,-9.773836471E-3
7.121275262E2,1.420260593E-2,4.398226365E-2,4.886918236E-3
7.126317369E2,2.764163166E-2,4.841103405E-2,-4.123337101E-3
7.131359480E2,5.345067009E-3,-1.053741761E-2,-2.474002354E-2
7.136401597E2,7.956513762E-2,-1.638644785E-1,3.497200832E-2
7.141443717E2,-2.153298259E-2,1.127045527E-1,1.542433538E-2
7.146485840E2,1.078176349E-1,-3.010036349E-1,1.527161989E-2
7.151527963E2,7.651081681E-2,-4.108065739E-2,-5.833758786E-2
7.156570088E2,-1.740964688E-2,1.232419685E-1,1.069013379E-3
7.161612216E2,1.131627038E-1,-1.766926348E-1,-1.847865991E-2
7.166654346E2,2.703076601E-2,3.634645417E-2,-1.649334840E-2
7.171696481E2,-3.359756246E-2,1.598938555E-1,1.389717404E-2
7.176738621E2,2.855792828E-2,-1.298087649E-2,-2.641990222E-2
7.181780765E2,9.697478265E-2,-1.046105921E-1,-2.290742937E-3
7.186822913E2,-5.619955808E-2,9.605848789E-2,-3.970621154E-3
7.191865065E2,4.260781780E-2,-6.979130208E-2,6.872228812E-3
7.196907224E2,-7.330377586E-3,1.221729536E-2,-1.404988952E-2
7.201949391E2,2.748891478E-3,-8.093958721E-3,5.955931731E-3
7.206991561E2,1.939495653E-2,-4.367683083E-2,-3.512472380E-3
7.212033734E2,-2.443459071E-2,2.977965772E-2,3.665188793E-3
7.217075906E2,-7.177661173E-3,1.496618707E-2,4.276053514E-3
7.222118073E2,2.748891478E-3,-6.872228812E-3,-6.108647794E-4
7.227160233E2,1.160643063E-2,1.420260593E-2,-1.069013379E-3
7.232202387E2,-3.207040206E-2,1.328630932E-2,3.512472380E-3
7.237244533E2,2.428187430E-2,-4.276053607E-2,5.039634649E-3
7.242286673E2,-3.054323839E-3,3.940077871E-2,-1.359174121E-2
7.247328808E2,-9.773836471E-3,1.847865991E-2,5.803215317E-3
7.252370935E2,2.825249545E-2,-4.841103405E-2,-6.108647678E-3
7.257413053E2,-1.572976820E-2,3.054323979E-2,-2.596175298E-3
7.262455165E2,1.084284950E-2,-2.122755162E-2,4.123337101E-3
7.267497275E2,-9.468403645E-3,1.847865991E-2,-1.832594397E-3
7.272539380E2,3.512472380E-3,-1.664606482E-2,-4.886918236E-3
7.277581479E2,4.428769462E-3,-3.512472380E-3,7.483093534E-3
7.282623573E2,-2.977965772E-2,4.489856213E-2,-1.374445739E-3
7.287665661E2,-5.192350596E-3,-8.704823442E-3,-3.054323897E-4
7.292707742E2,-1.359174121E-2,2.886336111E-2,-7.788525894E-3
7.297749817E2,1.695149764E-2,-3.726275265E-2,4.886918236E-3
7.302791887E2,1.450803876E-2,-1.527161989E-2,1.985310577E-3
7.307833953E2,-1.359174121E-2,3.313941509E-2,-6.719512399E-3
7.312876016E2,2.092211880E-2,-1.099556591E-2,3.359756200E-3
7.317918078E2,-2.916879393E-2,5.070177838E-2,-3.970621154E-3
7.322960138E2,5.604684353E-2,-8.323032409E-2,1.053741761E-2
7.328002197E2,-3.237583488E-2,6.414080411E-2,-2.153298259E-2
7.333044255E2,1.542433538E-2,-3.039052337E-2,3.359756200E-3
7.338086310E2,9.926552884E-3,-2.519817278E-2,7.635809947E-3
7.343128366E2,3.207040019E-3,2.855792828E-2,1.267544460E-2
7.348170422E2,-8.857538924E-3,2.260199748E-2,-2.290742937E-3
7.353212476E2,1.954767294E-2,-3.405570984E-2,3.329212964E-2
7.358254528E2,-2.290742937E-3,5.650499370E-3,-7.177661173E-3
7.363296577E2,9.621120058E-3,-1.740964688E-2,4.734201822E-3
7.368338626E2,-9.315688163E-3,1.496618707E-2,-2.367101051E-2
7.373380676E2,-1.114828233E-2,-0.000000000E0,8.246674202E-3
7.378422726E2,1.527161920E-3,-1.313359290E-2,1.069013379E-3
7.383464777E2,-5.345067009E-3,3.970621154E-2,8.399390616E-3
7.388506827E2,1.007926930E-2,2.550360374E-2,3.054323839E-3
7.393548875E2,5.940660089E-2,-8.857538924E-3,3.848448023E-2
7.398590920E2,2.229656465E-2,3.634645417E-2,-1.893680729E-2
7.403632961E2,5.345066637E-2,3.817904973E-3,-4.886918236E-3
7.408674998E2,6.154462695E-2,-2.138026757E-3,-2.443459071E-2
7.413717032E2,6.139190868E-2,-2.306014486E-2,3.054323897E-4
7.418759064E2,6.154462695E-2,-8.078686893E-2,1.893680729E-2
7.423801094E2,2.244928107E-2,-7.101303339E-2,-2.871064469E-2
7.428843124E2,-1.557705179E-2,-2.718348242E-2,2.748891525E-2
7.433885154E2,-5.726857483E-2,-1.618791744E-2,-1.023198478E-2
7.438927190E2,-8.170316368E-2,1.542433538E-2,7.177661173E-3
7.443969233E2,-6.856957078E-2,5.299251899E-2,1.740964688E-2
7.449011284E2,-4.291325063E-2,3.466657549E-2,3.665188700E-2
7.454053342E2,-5.558869615E-2,7.009673119E-2,-2.596175298E-3
7.459095410E2,3.527744114E-2,-3.909534588E-2,2.703076601E-2
7.464137488E2,-2.000582218E-2,4.596757516E-2,-2.092211880E-2
7.469179573E2,1.007926930E-2,-6.414080039E-3,2.122755162E-2
7.474221667E2,-3.359756200E-3,2.290742844E-2,1.007926930E-2
7.479263769E2,1.084284950E-2,-5.039634649E-3,-8.704823442E-3
7.484305879E2,2.290742844E-2,-4.077522457E-2,-5.497782957E-3
7.489347994E2,-2.183841541E-2,2.260199748E-2,9.773836471E-3
7.494390110E2,-7.483093534E-3,-6.108647678E-3,2.168569900E-2
7.499432226E2,1.084284950E-2,-2.993237413E-2,-1.404988952E-2
7.504474344E2,-7.788525894E-3,1.634063199E-2,-9.621120058E-3
7.509516463E2,1.069013402E-2,-1.695149764E-2,-7.177661173E-3
7.514558587E2,3.817904973E-3,-8.399390616E-3,7.635809947E-3
7.519600713E2,3.817904973E-3,-2.596175298E-3,-1.374445739E-3
7.524642838E2,8.857538924E-3,-1.802051067E-2,-7.895427197E-2
7.529684960E2,1.374445739E-3,-8.246674202E-3,2.412915789E-2
7.534727079E2,8.093958721E-3,-1.221729536E-2,-4.276053514E-3
7.539769196E2,-3.054323839E-3,1.710421406E-2,9.315688163E-3
7.544811309E2,7.024944760E-3,-5.650499370E-3,5.192350596E-3
7.549853420E2,-3.054323897E-4,7.941242307E-3,5.497782957E-3
7.554895530E2,-1.221729559E-3,-6.108647794E-4,-4.276053514E-3
7.559937640E2,2.443459118E-3,-6.719512399E-3,-7.635809598E-4
7.564979755E2,1.374445739E-3,2.290742937E-3,-2.290742937E-3
7.570021866E2,-1.985310577E-3,4.123337101E-3,6.108647794E-4
7.575063979E2,-2.748891478E-3,4.276053514E-3,-0.000000000E0
7.580106093E2,1.527161949E-4,-1.985310577E-3,-9.162971983E-4
7.585148206E2,-1.985310577E-3,3.207040019E-3,-3.970621154E-3
7.590190317E2,7.635809598E-4,-1.069013379E-3,-9.162971983E-4
7.595232427E2,-1.221729559E-3,-1.069013379E-3,-1.069013379E-3
7.600274534E2,-1.527161949E-4,1.679878100E-3,-1.832594397E-3
7.605316640E2,2.901607659E-3,-2.596175298E-3,-4.581485991E-4
7.610358744E2,-6.108647794E-4,1.527161949E-4,-1.069013379E-3
7.615400848E2,7.635809598E-4,-1.374445739E-3,-1.374445739E-3
7.620442951E2,1.832594397E-3,-5.955931731E-3,1.527161949E-4
7.625485054E2,-7.635809598E-4,2.901607659E-3,-7.635809598E-4
7.630527158E2,1.069013379E-3,-3.512472380E-3,1.527161920E-3
7.635569262E2,3.054323839E-3,-4.886918236E-3,1.221729559E-3
7.640611367E2,-7.635809598E-4,4.123337101E-3,-6.108647794E-4
7.645653472E2,-6.108647794E-4,-4.123337101E-3,-1.069013379E-3
7.650695577E2,-2.901607659E-3,1.679878100E-3,-3.054323839E-3
7.655737684E2,-7.635809598E-4,-1.084284950E-2,-1.298087649E-2
7.660779790E2,1.832594397E-3,-8.399390616E-3,-7.635809947E-3
7.665821898E2,1.527161920E-3,-1.069013379E-3,-9.926552884E-3
7.670864006E2,2.596175298E-3,-2.901607659E-3,-1.206457894E-2
7.675906116E2,2.901607659E-3,2.138026804E-2,3.375028074E-2
7.680948226E2,-5.192350596E-3,2.076940238E-2,-3.054323897E-4
7.685990338E2,-5.497782957E-3,2.901607659E-3,-2.275471389E-2
7.691032452E2,4.276053514E-3,-7.788525894E-3,5.955931731E-3
7.696074565E2,-1.527161949E-4,1.527161949E-4,-2.748891478E-3
7.701116675E2,-2.748891478E-3,1.252272818E-2,-4.581485991E-4
7.706158779E2,2.138026757E-3,-3.512472380E-3,-9.162971983E-4
7.711200878E2,3.054323897E-4,1.985310577E-3,1.527161949E-4
7.716242972E2,-1.527161949E-4,-3.054323897E-4,-2.290742937E-3
7.721285060E2,-9.162971983E-4,1.985310577E-3,-6.108647794E-4
7.726327143E2,1.679878100E-3,-1.527161920E-3,-1.069013379E-3
7.731369221E2,1.832594397E-3,-0.000000000E0,-1.679878100E-3
7.736411295E2,-1.679878100E-3,6.566796452E-3,3.054323897E-4
7.741453365E2,1.069013379E-3,-5.650499370E-3,4.581485991E-4
7.746495431E2,4.581485991E-4,0.000000000E0,2.596175298E-3
7.751537491E2,-1.069013379E-3,2.290742937E-3,-2.901607659E-3
7.756579543E2,3.054323897E-4,-1.069013379E-3,-1.069013379E-3
7.761621588E2,9.162971983E-4,-1.832594397E-3,-1.527161949E-4
7.766663624E2,1.832594397E-3,-3.512472380E-3,0.000000000E0
7.771705654E2,-1.221729559E-3,-6.108647794E-4,-1.527161949E-4
7.776747676E2,-6.108647794E-4,2.138026757E-3,-3.207040019E-3
7.781789692E2,1.832594397E-3,-1.527161920E-3,2.290742937E-3
7.786831700E2,1.527161949E-4,-1.679878100E-3,-1.740964688E-2
7.791873699E2,5.955931731E-3,-1.175914705E-2,-2.428187430E-2
7.796915691E2,1.359174121E-2,-8.093958721E-3,1.527161920E-3
7.801957677E2,1.374445762E-2,-2.443459118E-3,1.679878100E-3
7.806999659E2,4.734201822E-3,1.206457894E-2,-4.581485991E-4
7.812041642E2,1.007926930E-2,-8.246674202E-3,-1.237001177E-2
7.817083630E2,1.206457894E-2,-2.015853859E-2,-1.069013379E-3
7.822125627E2,-9.162971750E-3,-1.267544460E-2,-2.535088919E-2
7.827167637E2,-2.703076601E-2,-1.710421406E-2,1.527161920E-3
7.832209661E2,-5.482511222E-2,8.704823442E-3,-3.558287397E-2
7.837251701E2,-3.787361458E-2,1.252272818E-2,2.229656465E-2
7.842293758E2,-4.001164436E-2,4.169152305E-2,-3.054323897E-4
7.847335829E2,6.566796452E-3,-1.374445739E-3,3.512472380E-3
7.852377915E2,-6.261364091E-3,3.481929377E-2,3.054323839E-3
7.857420016E2,5.803215317E-3,1.404988952E-2,-5.345067009E-3
7.862462130E2,2.076940238E-2,9.926552884E-3,-2.138026804E-2
7.867504258E2,6.872228812E-3,1.374445762E-2,1.359174121E-2
7.872546403E2,3.268126398E-2,-5.421425030E-2,-3.329212964E-2
7.877588570E2,-1.450803876E-2,5.039634556E-2,-5.039634649E-3
7.882630759E2,5.345066637E-2,-5.009091273E-2,4.963276163E-2
7.887672970E2,1.924224012E-2,4.948004708E-2,-1.542433538E-2
7.892715199E2,-8.399390616E-3,5.910116807E-2,-1.038470119E-2
7.897757443E2,1.036942974E-1,5.222893879E-2,-2.338084877E-1
7.902799698E2,-3.817904741E-2,7.725912333E-1,7.483093534E-3
7.907841962E2,7.299833745E-2,1.079703495E-1,-7.971785218E-2
7.912884231E2,-6.658425927E-2,7.803797722E-2,-4.046979174E-2
7.917926506E2,-8.109229803E-2,-4.364628792E-1,2.206749022E-1
7.922968785E2,-2.825249545E-2,-3.497200906E-1,1.018617004E-1
7.928011067E2,-7.620538026E-2,-1.023198478E-2,-1.383608729E-1
7.933053355E2,-9.071341902E-2,-7.024944760E-3,1.588248461E-2
7.938095650E2,-7.925970852E-2,-5.955931544E-2,-5.421425030E-2
7.943137949E2,-4.734202102E-2,3.008509055E-2,1.802051067E-2
7.948180252E2,-5.161807314E-2,1.557705179E-2,-1.389717404E-2
7.953222561E2,-4.382954910E-2,-7.788525894E-3,-4.123337101E-3
7.958264877E2,-4.382954910E-2,-2.168569900E-2,-2.596175298E-3
7.963307201E2,-9.468403645E-3,9.101885557E-2,2.641990222E-2
7.968349534E2,6.597339362E-2,-3.359756246E-2,-3.604102135E-2
7.973391877E2,1.252272725E-1,-1.389717311E-1,2.138026804E-2
7.978434232E2,-6.872228812E-3,-4.199695215E-2,-6.185005978E-2
7.983476600E2,-2.901607659E-3,2.779434808E-2,-4.092793912E-2
7.988518981E2,3.420842811E-2,-2.076940238E-2,1.603520103E-2
7.993561376E2,2.351829410E-2,-1.832594350E-2,-2.779434808E-2
7.998603789E2,2.519817278E-2,-5.955931731E-3,1.404988952E-2
8.003646221E2,2.764163166E-2,6.108647678E-3,-1.206457894E-2
8.008688667E2,1.221729536E-2,3.161225095E-2,-8.093958721E-3
8.013731129E2,3.558287397E-2,-8.246674202E-3,-6.108647794E-4
8.018773607E2,3.145953640E-2,-7.635809947E-3,6.719512399E-3
8.023816102E2,1.908952370E-2,1.847865991E-2,-4.886918236E-3
8.028858614E2,3.008509055E-2,-6.261364091E-3,-1.221729536E-2
8.033901141E2,2.214384824E-2,-2.061668597E-2,-1.221729559E-3
8.038943681E2,2.412915789E-2,-4.123337101E-3,-7.635809598E-4
8.043986227E2,1.618791744E-2,4.276053514E-3,-5.650499370E-3
8.049028778E2,1.664606482E-2,-2.550360374E-2,-1.679878100E-3
8.054071333E2,1.023198478E-2,-2.962694131E-2,6.719512399E-3
8.059113891E2,3.054323897E-4,3.054323839E-3,-1.511890348E-2
8.064156455E2,-6.108647678E-3,1.970038936E-2,2.046396956E-2
8.069199024E2,7.177661173E-3,-2.550360374E-2,-1.664606482E-2
8.074241596E2,4.581485991E-4,-7.330377586E-3,2.596175298E-3
8.079284171E2,-2.290742937E-3,6.566796452E-3,3.817904973E-3
8.084326751E2,5.039634649E-3,-1.404988952E-2,9.773836471E-3
8.089369336E2,-4.886918236E-3,1.404988952E-2,-2.779434808E-2
8.094411923E2,-7.330377586E-3,1.328630932E-2,4.886918236E-3
8.099454508E2,1.924224012E-2,-2.657261863E-2,9.621120058E-3
8.104497094E2,-1.023198478E-2,2.138026804E-2,-1.649334840E-2
8.109539680E2,8.093958721E-3,-1.023198478E-2,5.650499370E-3
8.114582268E2,9.010255337E-3,-1.939495653E-2,8.857538924E-3
8.119624855E2,-5.803215317E-3,1.191186346E-2,1.832594397E-3
8.124667446E2,-5.497782957E-3,2.290742937E-3,4.428769462E-3
8.129710039E2,-4.123337101E-3,3.359756200E-3,-4.581485991E-4
8.134752635E2,1.527161949E-4,-5.345067009E-3,8.246674202E-3
8.139795231E2,-8.246674202E-3,7.177661173E-3,-1.023198478E-2
8.144837827E2,1.175914705E-2,-1.007926930E-2,4.428769462E-3
8.149880418E2,-1.557705179E-2,1.939495653E-2,-2.489273995E-2
8.154923002E2,8.246674202E-3,-2.932151034E-2,2.947422490E-2
8.159965578E2,-7.941242307E-3,-1.130099874E-2,-3.756818548E-2
8.165008147E2,-5.192350596E-3,1.160643063E-2,1.786779426E-2
8.170050705E2,1.527161949E-4,-2.306014486E-2,9.162971983E-4
8.175093253E2,-1.389717404E-2,2.138026757E-3,1.084284950E-2
8.180135792E2,-1.450803876E-2,-2.871064469E-2,-3.359756200E-3
8.185178323E2,-2.229656465E-2,1.756236330E-2,7.024944760E-3
8.190220845E2,-1.985310577E-2,-2.443459118E-3,-3.817904973E-3
8.195263359E2,-1.298087649E-2,9.315688163E-3,2.901607659E-3
8.200305863E2,-7.024944760E-3,1.282816008E-2,7.635809598E-4
8.205348360E2,-6.566796452E-3,2.901607752E-2,-1.343902480E-2
8.210390849E2,5.955931731E-3,7.483093534E-3,-3.665188793E-3
8.215433332E2,7.330377586E-3,2.061668597E-2,-6.414080039E-3
8.220475809E2,1.206457894E-2,-1.267544460E-2,1.985310577E-3
8.225518281E2,2.122755162E-2,-3.145953640E-2,-5.497782957E-3
8.230560749E2,-5.345067009E-3,2.000582218E-2,-2.046396956E-2
8.235603215E2,1.664606482E-2,-4.016435891E-2,2.000582218E-2
8.240645677E2,-2.290742937E-3,1.740964688E-2,2.641990222E-2
8.245688137E2,5.803215317E-3,-2.703076601E-2,-2.932151034E-2
8.250730594E2,-1.466075517E-2,8.857538924E-3,8.399390616E-3
8.255773051E2,5.803215317E-3,-3.894263133E-2,7.483093534E-3
8.260815507E2,-2.519817278E-2,1.710421406E-2,7.941242307E-3
8.265857965E2,-2.199113183E-2,-4.092793912E-2,8.093958721E-3
8.270900426E2,-3.329212964E-2,-4.214967042E-2,-2.535088919E-2
8.275942888E2,-4.627300799E-2,6.261364091E-3,3.481929377E-2
8.280985349E2,-5.513054505E-2,0.000000000E0,1.481347065E-2
8.286027808E2,-5.589412898E-2,-9.468403645E-3,2.397644334E-2
8.291070265E2,-6.200277433E-2,-3.283398226E-2,-1.069013379E-3
8.296112719E2,-6.200277433E-2,1.679878123E-2,7.177661173E-3
8.301155170E2,-5.528326333E-2,-1.832594397E-3,4.581485875E-3
8.306197617E2,-5.146535859E-2,-3.054323897E-4,3.955349326E-2
8.311240059E2,-4.871646687E-2,-1.832594397E-3,-4.428769462E-3
8.316282495E2,-5.513054505E-2,-7.024944760E-3,2.138026804E-2
8.321324927E2,-5.207622424E-2,6.566796452E-3,1.221729559E-3
8.326367353E2,-5.406153202E-2,-1.954767294E-2,1.099556591E-2
8.331409774E2,-4.688387364E-2,1.160643063E-2,5.192350596E-3
8.336452191E2,-4.627300799E-2,7.024944760E-3,2.092211880E-2
8.341494605E2,-4.184423760E-2,1.527161920E-3,-2.290742937E-3
8.346537018E2,-3.756818548E-2,1.634063199E-2,3.054323897E-4
8.351579428E2,-3.772090003E-2,-5.345067009E-3,1.863137633E-2
8.356621834E2,-3.573558852E-2,1.908952370E-2,-1.847865991E-2
8.361664238E2,-2.687804960E-2,2.061668597E-2,1.435532235E-2
8.366706638E2,-2.214384824E-2,5.039634649E-3,7.635809598E-4
8.371749033E2,-2.657261863E-2,4.428769648E-2,-9.162971750E-3
8.376791427E2,-1.466075517E-2,-2.443459118E-3,4.886918236E-3
8.381833816E2,-0.000000000E0,-5.803215317E-3,-6.414080039E-3
8.386876202E2,-7.177661173E-3,1.007926930E-2,-9.926552884E-3
8.391918585E2,3.665188793E-3,-9.162971983E-4,1.908952370E-2
8.396960965E2,2.290742937E-3,-2.138026804E-2,-1.328630932E-2
8.402003344E2,-1.389717404E-2,2.336557768E-2,8.246674202E-3
8.407045723E2,-1.145371422E-2,1.130099874E-2,-1.756236330E-2
8.412088105E2,-7.330377586E-3,1.145371422E-2,6.261364091E-3
8.417130487E2,5.955931731E-3,-8.246674202E-3,1.038470119E-2
8.422172869E2,4.581485991E-4,4.123337101E-3,1.832594397E-3
8.427215251E2,7.635809598E-4,4.886918236E-3,-7.330377586E-3
8.432257630E2,-4.734201822E-3,3.207040019E-3,2.596175298E-3
8.437300006E2,-1.985310577E-3,-9.010255337E-3,-6.108647794E-4
8.442342381E2,-4.734201822E-3,9.162971983E-4,-5.955931731E-3
8.447384754E2,-4.581485991E-4,1.832594350E-2,-4.428769462E-3
8.452427127E2,-1.450803876E-2,2.504545636E-2,1.832594397E-3
8.457469498E2,4.077522457E-2,-8.460476995E-2,-1.053741761E-2
8.462511869E2,8.857538924E-3,-6.414080039E-3,-2.351829410E-2
8.467554239E2,-3.848448023E-2,6.475166976E-2,2.290742937E-3
8.472596610E2,2.031125315E-2,-5.283980444E-2,-1.114828233E-2
8.477638982E2,9.926552884E-3,-1.191186346E-2,-7.635809947E-3
8.482681356E2,-6.566796452E-3,9.162971750E-3,-1.435532235E-2
8.487723732E2,3.054323897E-4,-1.420260593E-2,-6.108647794E-4
8.492766108E2,-2.748891478E-3,4.581485875E-3,1.206457894E-2
8.497808484E2,-4.428769462E-3,4.581485875E-3,-1.527161949E-4
8.502850860E2,-3.970621154E-3,-6.108647794E-4,-4.734201822E-3
8.507893236E2,4.581485991E-4,-7.788525894E-3,-2.122755162E-2
8.512935612E2,-7.024944760E-3,1.863137633E-2,-2.015853859E-2
8.517977987E2,1.863137633E-2,-2.428187430E-2,2.260199748E-2
8.523020361E2,-9.010255337E-3,6.566796452E-3,-7.483093534E-3
8.528062734E2,1.679878100E-3,2.596175298E-3,1.695149764E-2
8.533105105E2,3.970621154E-3,-3.054323839E-3,1.710421406E-2
8.538147476E2,1.481347065E-2,-1.191186346E-2,2.229656465E-2
8.543189848E2,4.581485991E-4,2.443459071E-2,2.657261863E-2
8.548232221E2,1.130099874E-2,-1.710421406E-2,1.206457894E-2
8.553274595E2,-1.740964688E-2,2.107483521E-2,-1.160643063E-2
8.558316971E2,8.246674202E-3,-1.511890348E-2,-1.832594397E-3
8.563359347E2,-1.313359290E-2,1.542433538E-2,-2.061668597E-2
8.568401722E2,5.650499370E-3,-1.359174121E-2,6.108647794E-4
8.573444098E2,2.443459118E-3,9.162971983E-4,-2.748891478E-3
8.578486473E2,3.054323839E-3,-9.315688163E-3,9.773836471E-3
8.583528850E2,-7.177661173E-3,1.221729559E-3,-2.244928107E-2
8.588571227E2,-4.276053514E-3,1.603520103E-2,9.926552884E-3
8.593613605E2,4.581485875E-3,-6.414080039E-3,1.985310577E-3
8.598655984E2,-6.414080039E-3,9.162971750E-3,-3.817904973E-3
8.603698366E2,7.024944760E-3,-2.092211880E-2,-9.162971750E-3
8.608740753E2,-9.621120058E-3,1.481347065E-2,2.443459118E-3
8.613783146E2,-1.527161949E-4,-1.679878100E-3,6.566796452E-3
8.618825543E2,-1.069013379E-3,2.290742937E-3,-7.483093534E-3
8.623867945E2,-7.941242307E-3,1.374445762E-2,-9.468403645E-3
8.628910347E2,4.123337101E-3,-1.206457894E-2,1.527161920E-3
8.633952751E2,-1.985310577E-3,-5.650499370E-3,-3.054323839E-3
8.638995154E2,-1.985310577E-3,4.581485875E-3,-8.399390616E-3
8.644037555E2,6.108647794E-4,1.985310577E-2,1.221729559E-3
8.649079955E2,1.649334840E-2,-7.635809947E-3,1.679878100E-3
8.654122351E2,6.261364091E-3,-3.817904973E-3,-6.872228812E-3
8.659164742E2,4.734201822E-3,3.970621154E-3,6.719512399E-3
8.664207130E2,1.160643063E-2,9.773836471E-3,1.985310577E-3
8.669249515E2,-1.099556591E-2,4.245510325E-2,-7.941242307E-3
8.674291897E2,3.756818548E-2,-2.993237413E-2,1.343902480E-2
8.679334275E2,3.222311661E-2,1.710421406E-2,-2.183841541E-2
8.684376650E2,3.176496923E-2,8.704823442E-3,-2.443459118E-3
8.689419021E2,4.673115537E-2,-3.619373962E-2,8.246674202E-3
8.694461390E2,4.214967042E-2,-2.458730713E-2,1.527161949E-4
8.699503757E2,4.886918142E-2,-2.687804960E-2,9.162971983E-4
8.704546123E2,4.291325063E-2,1.007926930E-2,-6.261364091E-3
8.709588487E2,4.214967042E-2,2.596175298E-2,-2.275471389E-2
8.714630847E2,5.299251899E-2,-2.275471389E-2,-6.261364091E-3
8.719673204E2,1.160643063E-2,3.359756246E-2,8.093958721E-3
8.724715556E2,3.512472659E-2,2.183841541E-2,-8.093958721E-3
8.729757903E2,3.512472659E-2,1.878409274E-2,9.162971983E-4
8.734800245E2,5.131264031E-2,-1.740964688E-2,4.734201822E-3
8.739842583E2,4.169152305E-2,1.893680729E-2,-1.466075517E-2
8.744884916E2,3.405570984E-2,3.268126398E-2,-9.621120058E-3
8.749927246E2,4.062250629E-2,-4.428769462E-3,3.054323839E-3
8.754969572E2,2.596175298E-2,1.481347065E-2,-5.192350596E-3
8.760011894E2,1.603520103E-2,5.345067009E-3,-4.581485875E-3
8.765054215E2,2.199113183E-2,-2.672533318E-2,-1.053741761E-2
8.770096536E2,1.771507785E-2,-6.872228812E-3,3.970621154E-3
8.775138859E2,2.443459118E-3,2.779434808E-2,-1.298087649E-2
8.780181184E2,1.511890348E-2,-1.374445762E-2,6.261364091E-3
8.785223511E2,1.298087649E-2,-2.046396956E-2,0.000000000E0
8.790265841E2,3.512472380E-3,-1.069013402E-2,-7.177661173E-3
8.795308172E2,-3.359756200E-3,1.527161920E-3,4.428769462E-3
8.800350504E2,-3.970621154E-3,-2.596175298E-3,1.985310577E-3
8.805392838E2,-9.010255337E-3,1.160643063E-2,-1.313359290E-2
8.810435172E2,-4.886918236E-3,1.084284950E-2,9.010255337E-3
8.815477509E2,7.330377586E-3,-1.160643063E-2,-4.123337101E-3
8.820519848E2,-7.635809598E-4,-4.886918236E-3,3.665188793E-3
8.825562304E2,5.345067009E-3,-1.725693047E-2,-1.221729536E-2
8.830604533E2,3.512472380E-3,-2.748891478E-3,4.276053514E-3
8.835646876E2,2.901607659E-3,1.832594397E-3,-1.985310577E-3
8.840689218E2,-9.773836471E-3,1.618791744E-2,1.466075517E-2
8.845731558E2,5.039634649E-3,-5.345067009E-3,-1.618791744E-2
8.850773896E2,-9.162971983E-4,6.108647678E-3,1.007926930E-2
8.855816231E2,3.970621154E-3,-3.054323979E-2,-9.162971750E-3
8.860858564E2,2.443459118E-3,-5.894844979E-2,3.359756200E-3
8.865900897E2,-2.489273995E-2,-1.038470119E-2,-1.114828233E-2
8.870943228E2,-2.840521187E-2,-2.855792828E-2,3.054323839E-3
8.875985560E2,-3.772090003E-2,-1.206457894E-2,3.207040019E-3
8.881027891E2,-3.390299529E-2,2.122755162E-2,-2.519817278E-2
8.886070225E2,-7.177661173E-3,3.634645417E-2,-3.054323839E-3
8.891112564E2,-3.665188793E-3,2.672533318E-2,-8.246674202E-3
8.896154906E2,-2.748891478E-3,4.138609022E-2,-3.359756200E-3
8.901197252E2,2.214384824E-2,1.114828233E-2,-2.138026757E-3
8.906239602E2,9.773836471E-3,3.573558852E-2,8.704823442E-3
8.911281953E2,2.474002354E-2,-3.100138716E-2,-1.481347065E-2
8.916324303E2,4.718930274E-2,-3.023780696E-2,2.519817278E-2
8.921366653E2,-5.803215317E-3,4.153880477E-2,-1.679878123E-2
8.926409003E2,2.092211880E-2,-9.315688163E-3,-1.954767294E-2
8.931451356E2,9.926552884E-3,2.672533318E-2,2.138026757E-3
8.936493711E2,4.688387364E-2,-2.794706449E-2,2.626718581E-2
8.941536071E2,-5.955931731E-3,6.566796452E-2,-2.794706449E-2
8.946578443E2,3.604102135E-2,-5.436696485E-2,2.168569900E-2
8.951620828E2,4.337139800E-2,-5.650499091E-2,-5.497782957E-3
8.956663228E2,-5.039634649E-3,-1.206457894E-2,-3.145953640E-2
8.961705640E2,-7.483093534E-3,-3.833176568E-2,2.397644334E-2
8.966748063E2,-1.985310577E-2,-3.772090003E-2,-5.192350596E-3
8.971790492E2,-2.183841541E-2,-9.468403645E-3,7.635809947E-3
8.976832930E2,-2.397644334E-2,2.489273995E-2,-1.069013379E-3
8.981875374E2,-2.611446939E-2,2.916879393E-2,1.191186346E-2
8.986917826E2,-8.246674202E-3,-9.010255337E-3,-6.108647794E-4
8.991960285E2,-2.443459118E-3,-2.748891478E-3,5.192350596E-3
8.997002751E2,-1.114828233E-2,2.428187430E-2,-7.024944760E-3
9.002045227E2,-6.108647794E-4,-3.512472380E-3,-2.443459118E-3
9.007087714E2,1.069013379E-3,8.093958721E-3,4.734201822E-3
9.012130210E2,2.748891478E-3,-8.704823442E-3,-1.404988952E-2
9.017172713E2,-3.207040019E-3,4.123337101E-3,1.878409274E-2
9.022215225E2,4.428769462E-3,-1.542433538E-2,-1.786779426E-2
9.027257742E2,-7.330377586E-3,1.695149764E-2,1.985310577E-2
9.032300261E2,1.221729559E-3,2.748891478E-3,-1.175914705E-2
9.037342782E2,3.054323897E-4,-7.788525894E-3,6.108647794E-4
9.042385313E2,1.679878100E-3,7.635809598E-4,-4.276053514E-3
9.047427848E2,3.665188793E-3,-6.872228812E-3,1.221729536E-2
9.052470385E2,-5.650499370E-3,1.221729536E-2,-1.863137633E-2
9.057512917E2,-1.374445739E-3,-1.023198478E-2,8.704823442E-3
9.062555446E2,4.581485991E-4,1.985310577E-3,-6.566796452E-3
9.067597970E2,-6.872228812E-3,1.007926930E-2,1.023198478E-2
9.072640491E2,1.527161920E-3,3.054323839E-3,-9.621120058E-3
9.077683013E2,1.985310577E-3,-2.443459118E-3,7.483093534E-3
9.082725536E2,-3.054323897E-4,-6.872228812E-3,-6.719512399E-3
9.087768062E2,-1.374445739E-3,7.788525894E-3,4.428769462E-3
9.092810591E2,2.290742937E-3,-1.404988952E-2,-2.443459118E-3
9.097853124E2,-4.581485875E-3,1.756236330E-2,2.901607659E-3
9.102895661E2,3.359756200E-3,-7.788525894E-3,7.483093534E-3
9.107938205E2,-3.054323897E-4,6.719512399E-3,-9.621120058E-3
9.112980755E2,1.527161949E-4,2.138026757E-3,7.177661173E-3
9.118023308E2,5.955931731E-3,-1.771507785E-2,-9.315688163E-3
9.123065861E2,-6.108647794E-4,9.773836471E-3,9.468403645E-3
9.128108414E2,2.138026757E-3,1.527161920E-3,-1.221729559E-3
9.133150965E2,-1.832594397E-3,7.941242307E-3,-1.069013379E-3
9.138193515E2,-0.000000000E0,-1.221729559E-3,-7.483093534E-3
9.143236062E2,4.276053514E-3,-2.122755162E-2,5.039634649E-3
9.148278607E2,-6.719512399E-3,6.719512399E-3,-8.552107029E-3
9.153321149E2,1.374445739E-3,-1.832594397E-3,1.985310577E-3
9.158363689E2,-7.941242307E-3,1.740964688E-2,3.054323839E-3
9.163406227E2,1.084284950E-2,-1.939495653E-2,-7.177661173E-3
9.168448764E2,-5.650499370E-3,7.483093534E-3,6.414080039E-3
9.173491298E2,6.108647794E-4,-2.901607659E-3,-1.252272818E-2
9.178533830E2,-5.192350596E-3,5.650499370E-3,1.542433538E-2
9.183576360E2,9.773836471E-3,-1.298087649E-2,-1.007926930E-2
9.188618886E2,-1.374445739E-3,1.130099874E-2,-1.069013379E-3
9.193661404E2,-3.512472380E-3,6.872228812E-3,-7.941242307E-3
9.198703913E2,1.084284950E-2,-3.023780696E-2,6.872228812E-3
9.203746412E2,-3.359756200E-3,4.886918236E-3,-2.733619884E-2
9.208788899E2,-7.635809598E-4,5.497782957E-3,7.024944760E-3
9.213831377E2,3.817904973E-3,-9.162971750E-3,-5.650499370E-3
9.218873846E2,-5.039634649E-3,1.053741761E-2,-4.886918236E-3
9.223916309E2,-7.635809598E-4,-5.345067009E-3,3.054323897E-4
9.228958769E2,8.552107029E-3,-1.084284950E-2,1.527161920E-3
9.234001229E2,-7.788525894E-3,6.719512399E-3,-1.985310577E-3
9.239043692E2,-1.527161920E-3,-5.803215317E-3,-2.229656465E-2
9.244086160E2,-3.054323839E-3,9.926552884E-3,8.552107029E-3
9.249128630E2,7.024944760E-3,1.985310577E-3,1.069013402E-2
9.254171103E2,7.330377586E-3,-2.901607659E-3,3.481929377E-2
9.259213577E2,4.581485991E-4,8.093958721E-3,1.404988952E-2
9.264256053E2,4.276053514E-3,-3.512472380E-3,8.704823442E-3
9.269298528E2,-3.817904973E-3,1.802051067E-2,1.985310577E-3
9.274341002E2,-0.000000000E0,-7.788525894E-3,-1.466075517E-2
9.279383473E2,4.276053514E-3,-4.276053514E-3,-1.740964688E-2
9.284425939E2,6.108647678E-3,-6.108647678E-3,1.099556591E-2
9.289468400E2,-1.374445739E-3,7.177661173E-3,-2.199113183E-2
9.294510857E2,9.162971750E-3,-2.138026804E-2,1.145371422E-2
9.299553309E2,-6.414080039E-3,1.435532235E-2,9.010255337E-3
9.304595761E2,-1.679878100E-3,-7.483093534E-3,-1.404988952E-2
9.309638216E2,-7.330377586E-3,1.160643063E-2,3.665188793E-3
9.314680677E2,1.221729559E-3,-1.863137633E-2,4.428769462E-3
9.319723144E2,-9.926552884E-3,4.428769462E-3,-2.214384824E-2
9.324765618E2,-6.108647678E-3,2.290742844E-2,1.725693047E-2
9.329808101E2,7.788525894E-3,-1.924224012E-2,3.970621154E-3
9.334850587E2,2.748891478E-3,5.650499370E-3,2.901607659E-3
9.339893069E2,-5.192350596E-3,9.162971750E-3,-9.773836471E-3
9.344935542E2,2.748891478E-3,-2.596175298E-3,1.985310577E-3
9.349978003E2,2.138026757E-3,3.207040019E-3,1.634063199E-2
9.355020451E2,-3.054323839E-3,9.315688163E-3,3.054323839E-3
9.360062888E2,-1.985310577E-3,9.162971983E-4,-1.175914705E-2
9.365105312E2,6.261364091E-3,-2.428187430E-2,-1.527161920E-3
9.370147737E2,-4.886918236E-3,-3.207040019E-3,1.069013379E-3
9.375190162E2,-8.552107029E-3,-1.695149764E-2,-2.901607659E-3
9.380232592E2,-1.252272818E-2,-1.511890348E-2,-2.183841541E-2
9.385275028E2,-2.306014486E-2,2.443459071E-2,-8.399390616E-3
9.390317469E2,-7.941242307E-3,-2.596175298E-3,1.939495653E-2
9.395359914E2,-1.389717404E-2,7.941242307E-3,-5.803215317E-3
9.400402358E2,-7.788525894E-3,-2.138026757E-3,8.093958721E-3
9.405444932E2,-9.621120058E-3,9.926552884E-3,8.399390616E-3
9.410487232E2,-8.857538924E-3,-4.123337101E-3,-1.007926930E-2
9.415529660E2,-1.267544460E-2,5.039634649E-3,-3.741546720E-2
9.420572083E2,-3.054323897E-4,-2.748891525E-2,2.122755162E-2
9.425614502E2,-1.374445739E-3,-4.886918236E-3,-1.893680729E-2
9.430656916E2,-3.512472380E-3,2.764163166E-2,9.728021920E-2
9.435699325E2,7.788525894E-3,-5.589412898E-2,-1.241582632E-1
9.440741727E2,-1.069013402E-2,-1.679878123E-2,8.796452731E-2
9.445784124E2,-1.695149764E-2,3.848448023E-2,-1.985310577E-2
9.450826514E2,-2.550360374E-2,-5.665770918E-2,3.130681813E-2
9.455868902E2,5.955931544E-2,4.703658819E-2,-2.458730713E-2
9.460911297E2,-1.206457894E-2,4.413498193E-2,1.197294965E-1
9.465953701E2,3.985892609E-2,5.345067009E-3,3.268126398E-2
9.470996114E2,2.733619884E-2,1.740964688E-2,-4.520399496E-2
9.476038534E2,-1.359174121E-2,-8.246674202E-3,1.664606482E-2
9.481080959E2,4.031707719E-2,-5.268708616E-2,-4.199695215E-2
9.486123384E2,1.466075517E-2,3.084867075E-2,7.177661173E-3
9.491165806E2,1.756236330E-2,9.162971983E-4,-1.572976820E-2
9.496208224E2,2.596175298E-3,3.817904741E-2,-1.328630932E-2
9.501250638E2,2.916879393E-2,-3.665188700E-2,9.926552884E-3
9.506293047E2,1.618791744E-2,1.114828233E-2,-4.581485875E-3
9.511335451E2,1.542433538E-2,-1.237001177E-2,-1.588248461E-2
9.516377848E2,1.786779426E-2,-2.596175298E-3,-2.138026757E-3
9.521420242E2,7.483093534E-3,9.010255337E-3,-9.926552884E-3
9.526462632E2,7.483093534E-3,-1.420260593E-2,-4.886918236E-3
9.531505021E2,9.315688163E-3,-1.099556591E-2,3.970621154E-3
9.536547408E2,1.160643063E-2,6.414080039E-3,-2.168569900E-2
9.541589796E2,2.748891478E-3,1.771507785E-2,2.748891525E-2
9.546632182E2,8.704823442E-3,-4.673115537E-2,-2.122755162E-2
9.551674567E2,1.985310577E-2,-6.566796452E-3,3.176496923E-2
9.556716950E2,-1.771507785E-2,-1.832594350E-2,-2.183841541E-2
9.561759329E2,-1.771507785E-2,-5.283980444E-2,4.886918142E-2
9.566801703E2,-3.634645417E-2,3.909534588E-2,-2.809977904E-2
9.571844073E2,-1.710421406E-2,6.108647794E-4,1.404988952E-2
9.576886438E2,-2.519817278E-2,-2.443459071E-2,-1.221729559E-3
9.581928799E2,-3.344484791E-2,1.679878123E-2,-6.719512399E-3
9.586971156E2,-2.535088919E-2,-9.162971750E-3,1.832594350E-2
9.592013511E2,-2.672533318E-2,-9.162971750E-3,-3.512472380E-3
9.597055863E2,-2.626718581E-2,3.680460155E-2,1.420260593E-2
9.602098212E2,-1.695149764E-2,-5.955931731E-3,-9.468403645E-3
9.607140560E2,-1.802051067E-2,6.108647678E-3,1.496618707E-2
9.612182906E2,-1.756236330E-2,-3.344484791E-2,1.206457894E-2
9.617225250E2,-2.260199748E-2,1.939495653E-2,-1.832594397E-3
9.622267590E2,-1.802051067E-2,1.847865991E-2,-5.650499370E-3
9.627309928E2,-7.024944760E-3,1.863137633E-2,6.414080039E-3
9.632352263E2,-4.123337101E-3,4.581485875E-3,-6.261364091E-3
9.637394594E2,-1.374445739E-3,-2.031125315E-2,7.635809947E-3
9.642436921E2,-7.024944760E-3,-2.153298259E-2,-5.955931731E-3
9.647479245E2,-1.206457894E-2,2.061668597E-2,3.054323839E-3
9.652521568E2,-5.803215317E-3,6.872228812E-3,-5.345067009E-3
9.657563891E2,-3.970621154E-3,1.725693047E-2,-1.374445739E-3
9.662606214E2,2.138026757E-3,1.527161920E-3,6.872228812E-3
9.667648537E2,7.635809598E-4,-1.695149764E-2,-3.512472380E-3
9.672690860E2,-3.054323839E-3,1.023198478E-2,-6.414080039E-3
9.677733181E2,1.679878100E-3,-7.330377586E-3,2.138026757E-3
9.682775502E2,-1.527161920E-3,2.260199748E-2,-4.581485991E-4
9.687817822E2,9.162971983E-4,-1.160643063E-2,-9.162971750E-3
9.692860140E2,3.665188793E-3,-3.207040206E-2,1.817322709E-2
9.697902456E2,-9.468403645E-3,1.924224012E-2,-8.093958721E-3
9.702944770E2,-7.635809598E-4,1.542433538E-2,-9.162971750E-3
9.707987083E2,1.069013379E-3,1.649334840E-2,6.108647794E-4
9.713029393E2,7.788525894E-3,-2.321286127E-2,-5.039634649E-3
9.718071700E2,1.985310577E-3,0.000000000E0,2.138026757E-3
9.723114004E2,1.527161920E-3,-1.145371422E-2,-4.428769462E-3
9.728156306E2,6.108647794E-4,-0.000000000E0,8.399390616E-3
9.733198606E2,-2.290742937E-3,-2.290742937E-3,-5.497782957E-3
9.738240903E2,-9.162971983E-4,1.099556591E-2,3.359756200E-3
9.743283197E2,-4.886918236E-3,1.511890348E-2,-2.901607659E-3
9.748325489E2,-9.162971983E-4,-1.359174121E-2,-1.985310577E-3
9.753367778E2,-1.221729559E-3,3.054323897E-4,3.359756200E-3
9.758410065E2,-4.428769462E-3,1.084284950E-2,-1.084284950E-2
9.763452351E2,6.108647794E-4,-5.497782957E-3,6.566796452E-3
9.768494638E2,-7.635809598E-4,7.177661173E-3,-6.414080039E-3
9.773536930E2,1.527161949E-4,1.053741761E-2,1.374445739E-3
9.778579227E2,4.886918236E-3,-2.000582218E-2,-7.635809598E-4
9.783621529E2,2.596175298E-3,2.901607659E-3,1.527161920E-3
9.788663837E2,-1.069013379E-3,-6.108647794E-4,-9.315688163E-3
9.793706150E2,-6.108647678E-3,-1.023198478E-2,-1.679878100E-3
9.798748467E2,-1.221729559E-3,3.054323897E-4,-9.162971983E-4
9.803790788E2,-4.581485991E-4,-6.261364091E-3,-3.207040019E-3
9.808833112E2,-6.566796452E-3,3.665188793E-3,-5.345067009E-3
9.813875439E2,-1.374445739E-3,-1.435532235E-2,-3.817904973E-3
9.818917768E2,5.345067009E-3,7.483093534E-3,-5.650499370E-3
9.823960100E2,2.443459118E-3,5.650499370E-3,-1.832594397E-3
9.829002435E2,3.054323897E-4,-7.177661173E-3,-1.191186346E-2
9.834044774E2,1.832594397E-3,-0.000000000E0,8.399390616E-3
9.839087122E2,-7.941242307E-3,-5.345067009E-3,-3.772090003E-2
9.844129482E2,2.290742937E-3,3.054323897E-4,-3.665188793E-3
9.849171853E2,7.024944760E-3,-9.162971750E-3,8.399390616E-3
9.854214232E2,1.527161949E-4,9.162971750E-3,3.054323839E-3
9.859256613E2,1.496618707E-2,-1.252272818E-2,4.505127668E-2
9.864298996E2,-1.374445739E-3,2.809977904E-2,1.313359290E-2
9.869341382E2,1.038470119E-2,-1.725693047E-2,3.191768378E-2
9.874383768E2,1.023198478E-2,-4.459312931E-2,-5.039634649E-3
9.879426156E2,-2.122755162E-2,6.276635826E-2,-9.010255337E-3
9.884468546E2,-2.596175298E-3,-1.695149764E-2,-2.550360374E-2
9.889510935E2,7.635809947E-3,-2.748891478E-3,1.175914705E-2
9.894553321E2,-6.108647678E-3,1.191186346E-2,-1.160643063E-2
9.899595702E2,-2.901607659E-3,1.007926930E-2,-1.221729559E-3
9.904638078E2,2.138026757E-3,-4.428769462E-3,-6.261364091E-3
9.909680450E2,-6.108647794E-4,-6.108647794E-4,-3.359756200E-3
9.914722816E2,3.054323897E-4,6.566796452E-3,-4.276053514E-3
9.919765177E2,-6.108647794E-4,-7.635809947E-3,-3.054323839E-3
9.924807533E2,2.443459118E-3,1.069013379E-3,9.162971983E-4
9.929849889E2,4.276053514E-3,-1.618791744E-2,-8.399390616E-3
9.934892249E2,-4.581485875E-3,1.389717404E-2,7.788525894E-3
9.939934614E2,-2.901607659E-3,-8.246674202E-3,-1.038470119E-2
9.944976985E2,-6.108647794E-4,1.237001177E-2,7.635809947E-3
9.950019364E2,3.359756200E-3,-1.450803876E-2,-3.665188793E-3
9.955061746E2,-5.497782957E-3,5.345067009E-3,-4.581485991E-4
9.960104129E2,2.443459118E-3,2.901607659E-3,-4.581485991E-4
9.965146510E2,7.635809598E-4,3.665188793E-3,7.024944760E-3
9.970188890E2,-6.108647794E-4,5.497782957E-3,-1.634063199E-2
9.975231275E2,3.970621154E-3,-7.330377586E-3,1.496618707E-2
9.980273668E2,3.970621154E-3,-9.621120058E-3,-7.635809598E-4
9.985316067E2,-8.399390616E-3,3.100138716E-2,-4.886918236E-3
