"Time (s)","Linear Acceleration x (m/s^2)","Linear Acceleration y (m/s^2)","Linear Acceleration z (m/s^2)"
5.280742800E-1,-3.363128304E-1,2.697010040E-1,6.114687920E-1
1.028074280E0,-1.214126647E-1,9.715070724E-1,2.440838814E-1
1.528074280E0,2.332118750E-1,-3.912730217E-1,-1.759617805E0
2.028074280E0,-1.098492146E-1,-3.301470518E0,1.905334473E0
2.528074280E0,-1.656489372E-1,-1.005130768E0,3.693276882E0
3.028074280E0,-9.012794495E-1,-7.184877396E-1,-7.682883739E-1
3.528074280E0,3.015440941E0,-4.253324270E-1,2.285302401E0
4.028074280E0,1.045113564E0,3.300431967E-1,3.500629365E-1
4.528074280E0,-1.552715302E-1,-3.752570450E-1,5.731256008E-1
5.028074280E0,5.764455795E-1,-1.064902306E0,1.877297163E0
5.528074280E0,3.317399025E0,-7.816320658E-1,-2.533018589E-2
6.028074280E0,-8.727664948E-1,-6.182976961E-1,-5.513430834E-1
6.528074280E0,4.072186470E0,-2.846568227E-1,-1.353899240E-1
7.028074280E0,2.519067764E0,9.178408235E-2,5.251020193E-1
7.528074280E0,-1.653131962E0,-6.009843349E-1,3.217636347E-1
8.028074280E0,-1.885271072E-1,-6.844743490E-1,1.250536203E0
8.528074280E0,5.492162704E-1,-7.371023297E-2,-8.638656139E-1
9.028074280E0,-5.477418900E-1,-6.179518700E-1,-3.907355070E-1
9.528074280E0,-2.163858414E-1,-6.577033401E-1,7.378489971E-1
1.002807428E1,-1.745824814E-1,-2.028029561E-1,9.627034664E-1
1.052807428E1,3.745937347E-1,2.605974972E-1,3.150829077E-1
1.102807428E1,-3.757038116E-1,-3.077700436E-1,2.733711004E-1
1.152807428E1,-8.990077972E-1,2.974097431E-1,2.101286650E-1
1.202807428E1,2.690315247E-3,1.742758155E-1,-8.391571045E-2
1.252807428E1,-1.769523621E-1,-4.743736386E-1,-3.049596548E-1
1.302807428E1,-3.119649887E-1,-2.000484616E-3,-3.431261778E-1
1.352807428E1,-3.243980408E-1,-5.756261945E-1,2.890220881E-1
1.402807428E1,2.003927231E-1,1.201985627E-1,1.264116287E0
1.452807428E1,1.374927521E0,1.708038449E-1,1.687546253E0
1.502807428E1,-1.266651154E0,-1.057301238E-1,3.615379333E-2
1.552807428E1,-3.447589874E-1,-2.110485435E-1,-9.203841686E-1
1.602807428E1,-5.860519409E-2,2.352354079E-1,-3.530688286E-1
1.652807428E1,-4.097871780E-1,-1.378221214E-1,2.485954165E-1
1.702807428E1,6.362600327E-1,1.653271914E-2,1.347409487E-1
1.752807428E1,8.984127045E-1,1.145547330E-1,1.276103020E0
1.802807428E1,2.823181152E-1,-2.054303288E-1,-6.594045162E-1
1.852807428E1,-2.013974190E0,-2.897240520E-1,-6.921229362E-1
1.902807428E1,-8.697319031E-2,-3.538436592E-1,2.675968409E-1
1.952807428E1,3.020191193E-2,-4.026966691E-1,6.328058243E-2
2.002807428E1,6.503801346E-1,-2.779850960E-1,5.551815033E-3
2.052807428E1,-3.983821869E-1,-3.085612059E-1,-5.235788822E-1
2.102807428E1,1.516752243E-1,-3.065108657E-1,1.499345303E-1
2.152807428E1,3.414421082E-1,-1.132203937E-1,-3.201646805E-1
2.202807428E1,-2.458238602E-1,-3.193779588E-1,-2.881263494E-1
2.252807428E1,-3.361282349E-1,3.157071471E-1,-1.596479416E-1
2.302807428E1,-8.098793030E-2,1.975428760E-1,-2.961741686E-1
2.352807428E1,-1.377549171E0,-3.099969923E-1,-5.881155729E-1
2.402807428E1,-1.000499725E-1,-2.054159939E-1,5.568107367E-1
2.452807428E1,-7.543888092E-1,7.274833322E-2,-3.275054693E-1
2.502807428E1,-7.765026093E-1,-5.304243565E-1,-8.733332157E-2
2.552807428E1,3.746032715E-3,-6.218845248E-1,5.634362698E-1
2.602807428E1,9.267225266E-1,-1.095091105E0,-9.283642769E-1
2.652807428E1,-1.754184246E0,-3.591759205E-1,-2.856800556E-1
2.702807428E1,1.262205124E0,-4.503768682E-1,-2.572355270E-1
2.752807428E1,-1.614999771E-1,-6.398099661E-1,-7.826904058E-1
2.802807428E1,-5.230989456E-1,-1.392178535E0,1.233084917E0
2.852807428E1,-3.429889679E-1,-1.141707301E0,5.082832575E-1
2.902807428E1,1.888942719E-2,-6.843726635E-1,1.088444710E0
2.952807428E1,4.960250854E-1,-1.883056164E-1,5.622327328E-2
3.002807428E1,-1.322737694E0,-1.169598579E0,-5.304926038E-1
3.052807428E1,-3.113918304E-1,-1.089562654E0,-1.569424868E-1
3.102807428E1,1.129353523E0,-2.663626671E-1,-2.367464304E-1
3.152807428E1,5.267429352E-2,-2.182209492E-1,8.176147938E-2
3.202807428E1,3.220729828E-1,8.503746986E-2,1.069998741E-2
3.252807428E1,-1.121902466E-2,1.106670976E0,-3.003438711E-1
3.302807428E1,-4.933357239E-1,1.376327515E0,-1.695562005E-1
3.352807428E1,1.005928993E0,1.935782313E0,-1.020312309E-3
3.402807428E1,-2.055692673E-1,5.465984344E-1,1.646360159E-1
3.452807428E1,-6.074905396E-3,2.615014613E-1,5.323443413E-1
3.502807428E1,-6.833658218E-1,1.860643029E-1,-1.173295140E0
3.552807428E1,3.431673050E-1,1.566654444E-2,-5.207324028E-2
3.602807428E1,-5.317964554E-1,-7.797239721E-2,2.330758572E-1
3.652807428E1,8.679151535E-1,1.643449664E-1,2.288677096E-1
3.702807428E1,-1.094906807E0,7.297044992E-2,2.044150829E-1
3.752807428E1,7.644157410E-1,1.081520915E-1,-5.404770374E-2
3.802807428E1,-9.196853638E-1,-2.015132308E-1,2.025741339E-1
3.852807428E1,6.340990067E-1,5.359894037E-2,1.076061726E-1
3.902807428E1,-1.096008301E0,-2.440823913E-1,5.892705917E-1
3.952807428E1,4.343080521E-1,1.321834326E-2,-3.792456388E-1
4.002807428E1,6.135406494E-1,2.843547761E-1,4.672209024E-1
4.052807428E1,-9.010305405E-1,-1.227695942E-1,4.093421698E-1
4.102807428E1,4.528760910E-1,6.496554613E-2,-7.026919127E-1
4.152807428E1,-9.144248962E-1,4.593366086E-1,-2.048201561E-1
4.202807428E1,3.807582855E-1,3.570369482E-1,-4.394912720E-2
4.252807428E1,-4.675836563E-1,3.763421774E-1,-7.672798634E-2
4.302807428E1,-2.938385010E-1,5.923062563E-2,-1.950255632E-1
4.352807428E1,5.527095795E-1,1.662921906E-1,4.327833652E-1
4.402807428E1,-8.399829865E-1,-1.850027442E-1,-2.547696829E-1
4.452807428E1,-2.137260437E-1,-4.224814177E-1,1.230458736E0
4.502807428E1,3.077507019E-1,2.852437496E-1,9.440183640E-2
4.552807428E1,7.365856171E-1,5.727891326E-1,4.680931568E-2
4.602807428E1,-1.645566940E0,-5.566110611E-1,-2.539664507E-1
4.652807428E1,7.190132141E-1,-7.167899013E-1,7.685240507E-1
4.702807428E1,-3.320674896E-1,-1.688790560E0,-7.969570160E-2
4.752807428E1,-7.433128357E-2,-6.510440707E-1,-5.384790897E-2
4.802807428E1,3.033056259E-1,-2.384712100E-1,4.364967346E-3
4.852807428E1,-1.940631866E-2,5.237382650E-2,1.962287426E-1
4.902807428E1,-2.184066772E-1,2.201359272E-1,5.151391029E-2
4.952807428E1,-1.198281288E0,-9.667885303E-2,-4.074742794E-1
5.002807428E1,1.710015297E0,2.201181054E-1,-2.624039650E-1
5.052807428E1,-7.287282944E-1,-1.329821050E-1,9.693384171E-3
5.102807428E1,1.879840851E0,3.328969181E-1,-1.810548544E0
5.152807428E1,-6.297492981E-1,2.234965563E-2,-9.915125370E-1
5.202807428E1,6.120176315E-1,7.764327526E-1,6.525373459E-2
5.252807428E1,-4.024000168E-1,4.426730573E-1,-1.082086086E0
5.302807428E1,5.153484344E-1,3.168771267E-1,-7.760119438E-2
5.352807428E1,9.880323410E-1,-1.834508777E-1,-3.256732225E-1
5.402807428E1,-1.321274757E0,-6.505196095E-1,-1.123547554E-1
5.452807428E1,5.467157364E-1,-5.580497384E-1,8.137711883E-1
5.502807428E1,-7.752714157E-1,-1.899345219E-1,6.591268778E-1
5.552807428E1,1.746779442E0,-2.056486309E-1,1.545804739E0
5.602807428E1,1.548028946E0,-3.591548800E-1,-1.114308834E0
5.652807428E1,-7.066869736E-1,-2.750058174E-1,6.317666769E-1
5.702807428E1,3.287515640E-1,-2.057338059E-1,3.505537510E-1
5.752807428E1,-4.839639664E-1,2.495169640E-3,-4.298498631E-1
5.802807428E1,-4.795160294E-1,-4.566156268E-1,2.021994591E-1
5.852807428E1,3.832969666E-1,-3.437950611E-1,1.350594878E0
5.902807428E1,-1.200885773E-1,-3.728550375E-1,5.705522895E-1
5.952807428E1,-1.807196617E0,-3.889161348E-2,-2.257108688E0
6.002807428E1,-2.061168194E0,-2.537122965E-1,-1.228139162E0
6.052807428E1,1.067468643E0,-2.506909370E-1,-1.252771616E-1
6.102807428E1,-1.581329346E0,-3.548131883E-2,7.493526936E-1
6.152807428E1,1.620043755E0,6.802152097E-2,-2.233045101E-1
6.202807428E1,2.352796555E0,5.432580411E-2,9.996532202E-1
6.252807428E1,-1.672956467E0,2.645939291E-1,7.271201611E-1
6.302807428E1,2.340280533E0,4.258675277E-1,-1.501374364E0
6.352807428E1,-4.144420624E-1,-4.757218957E-1,1.516448855E-1
6.402807428E1,1.121503830E0,4.656632245E-1,-9.464502335E-2
6.452807428E1,-2.877140045E-1,1.172077656E-1,5.735737085E-1
6.502807428E1,-4.706306458E-1,8.501172066E-2,-7.821719646E-1
6.552807428E1,-3.407907486E-1,-3.367834985E-1,-1.174951077E0
6.602807428E1,1.014880180E0,4.941778183E-1,4.361512661E-1
6.652807428E1,-2.883024693E0,-1.451428413E0,-1.634302139E-1
6.702807428E1,-1.582725525E0,-2.960996032E-1,2.498793602E-2
6.752807428E1,-4.177379608E-1,1.404933333E-1,5.329209566E-1
6.802807428E1,8.650493622E-1,1.135707200E-1,-9.407043457E-3
6.852807428E1,-6.910963058E-1,-2.241713703E-1,-4.296607971E-1
6.902807428E1,7.904539108E-1,3.012735546E-1,5.507984161E-1
6.952807428E1,2.141342163E-1,-9.905067086E-2,-5.710310936E-1
7.002807428E1,2.970209122E-1,-3.320226669E-1,-3.583903313E-1
7.052807428E1,-2.072563171E-1,-2.869066000E-1,3.678565025E-1
7.102807428E1,-1.728048325E-1,-3.780928552E-1,-7.147490978E-1
7.152807428E1,-1.841688156E-1,-4.737519324E-1,1.690390110E-1
7.202807428E1,-7.678375244E-1,7.470603287E-2,-8.033990860E-3
7.252807428E1,3.744144440E-1,2.382654101E-1,3.797645569E-1
7.302807428E1,1.403654099E0,3.838901520E-1,1.898074150E-2
7.352807428E1,-1.474323273E0,-7.623145580E-1,-1.064051390E-1
7.402807428E1,1.256094933E0,1.801374555E-2,-5.272746086E-3
7.452807428E1,-3.054685593E-1,-9.265869856E-1,1.278314590E-1
7.502807428E1,6.073560715E-1,-5.240284801E-1,-6.732083559E-1
7.552807428E1,-5.846500397E-2,-2.021449357E-1,1.191519499E-1
7.602807428E1,-2.363195419E-1,-1.840826571E-1,-4.161370993E-1
7.652807428E1,4.407110214E-1,-7.659941912E-3,3.843638897E-1
7.702807428E1,2.449789047E-1,5.054773390E-2,-3.132641315E-2
7.752807428E1,-1.528518677E0,-1.848884225E-1,2.449693680E-1
7.802807428E1,-4.593610764E-1,-4.188050628E-1,-5.574464798E-3
7.852807428E1,-7.808218002E-1,-2.521555424E-1,-4.355924129E-1
7.902807428E1,3.494319916E-1,-5.407243967E-2,7.572233677E-2
7.952807428E1,1.890659332E-1,-3.167996407E-1,-1.725792885E-1
8.002807428E1,-2.682075500E-1,-5.130243301E-2,-1.097095013E-1
8.052807428E1,-9.210491180E-2,1.271412373E-1,1.510182619E-1
8.102807428E1,-5.728473663E-1,-1.930482388E-1,-3.932163715E-1
8.152807428E1,8.189802170E-1,-1.965208054E-1,-1.200110912E-1
8.202807428E1,1.036028862E0,4.125550389E-1,8.401317596E-1
8.252807428E1,1.089706421E-1,-7.569169998E-1,2.336074114E-1
8.302807428E1,-1.295175552E-1,4.021155834E-2,-5.359959602E-2
8.352807428E1,4.109039307E-1,5.695188046E-2,-1.690895557E-1
8.402807428E1,-7.388467789E-1,-6.852900982E-2,5.651032925E-2
8.452807428E1,3.070726395E-1,-1.366035938E-1,-2.190504074E-1
8.502807428E1,-8.841485977E-1,2.255861759E-1,-2.593858242E-1
8.552807428E1,6.298589706E-1,3.017762899E-1,1.859376431E-1
8.602807428E1,-8.673105240E-1,-2.685403824E-2,-6.089847088E-1
8.652807428E1,4.553985596E-2,1.738419533E-1,-4.067659378E-3
8.702807428E1,6.198902130E-1,3.936350346E-2,-2.798418999E-1
8.752807428E1,-1.128365517E0,1.667049527E-2,-4.155731201E-2
8.802807428E1,-7.229938507E-1,8.636862040E-2,-1.245236158E0
8.852807428E1,-1.949310303E-1,1.534202695E-1,-1.347579956E-1
8.902807428E1,1.836557388E-1,7.926477790E-1,-3.826715946E-1
8.952807428E1,7.094364166E-1,-3.237117529E-1,-5.115132332E-1
9.002807428E1,1.251015663E0,1.965256929E-1,-6.250493526E-1
9.052807428E1,-8.341178894E-1,-7.064820528E-1,-7.543492317E-1
9.102807428E1,-4.202499390E-1,-6.384976506E-1,-7.347724438E-1
9.152807428E1,1.703631401E0,-1.279103458E-1,7.555496693E-1
9.202807428E1,-4.277315140E-1,-4.594292343E-1,5.700826645E-1
9.252807428E1,2.423267365E-1,-4.544540942E-1,1.480637312E0
9.302807428E1,1.112170219E0,4.710876942E-2,1.155543089E0
9.352807428E1,7.664813995E-1,1.767883897E-1,1.370595217E0
9.402807428E1,6.125297546E-1,1.915531754E-1,5.078469515E-1
9.452807428E1,-1.261940002E-1,5.604439974E-2,-3.286516666E-2
9.502807428E1,-5.848026276E-2,5.435574055E-2,9.074282646E-1
9.552807428E1,5.781679153E-1,1.889744401E-1,4.142183065E-1
9.602807428E1,-3.443517685E-1,-2.825328708E-1,9.191317558E-1
9.652807428E1,-3.796224594E-1,-1.954646707E-1,1.244540215E0
9.702807428E1,5.486745834E-1,-4.882781208E-1,2.447885752E0
9.752807428E1,4.399728775E-1,3.658058643E-1,1.230702043E0
9.802807428E1,-6.671218872E-1,-5.294303298E-1,-7.618641853E-1
9.852807428E1,-1.841449738E-1,-8.252041340E-1,9.638963938E-1
9.902807428E1,-5.737419128E-1,-2.175268680E-1,-7.106912136E-1
9.952807428E1,7.515430450E-2,2.747595310E-1,-1.098666191E-1
1.000280743E2,-5.574388504E-1,-7.332341671E-1,-1.417791843E-2
1.005280743E2,1.704721451E-1,-4.978216887E-1,-1.906090975E-1
1.010280743E2,-7.672681808E-1,-7.495993376E-2,-7.703248262E-1
1.015280743E2,-2.018880844E-1,-3.105711937E-1,-2.623050213E-1
1.020280743E2,-1.021669388E0,1.014173627E-1,1.565163136E-1
1.025280743E2,-2.083420753E0,-1.736351252E-1,2.542878389E-1
1.030280743E2,8.560762405E-1,-3.098815680E-2,-7.987749577E-1
1.035280743E2,-1.668596268E-1,1.120361686E-1,-7.864220142E-1
1.040280743E2,4.744291306E-1,4.506571591E-1,9.776575565E-1
1.045280743E2,-2.492628098E-1,1.390771866E-1,1.156720161E0
1.050280743E2,-2.225990295E-1,1.448078752E-1,-1.030154228E-1
1.055280743E2,1.066637039E-1,3.061321378E-2,7.070181370E-1
1.060280743E2,9.668178558E-1,4.418522716E-1,8.306843042E-1
1.065280743E2,1.309350967E0,4.112973213E-1,1.685386896E0
1.070280743E2,6.769390106E-1,3.214222193E-1,9.633159637E-1
1.075280743E2,-1.163931847E0,-2.437437475E-1,2.520633340E-1
1.080280743E2,6.168098450E-1,-9.379029274E-3,-1.808558106E-1
1.085280743E2,3.191261292E-1,-2.958632112E-1,-2.163957953E-1
1.090280743E2,8.534526825E-2,5.897068977E-2,3.435879350E-1
1.095280743E2,-9.060220718E-1,-3.370168805E-1,-1.031302929E0
1.100280743E2,3.667755127E-1,-4.514137805E-1,-4.841018319E-1
1.105280743E2,-1.324680328E0,-6.169781685E-1,-6.086149216E-1
1.110280743E2,-3.215427399E-1,-5.091620088E-1,-6.691815853E-1
1.115280743E2,2.892566681E0,-2.102630436E-1,2.368339300E-1
1.120280743E2,-3.906774521E0,-1.018176675E-1,1.574380398E-1
1.125280743E2,7.363643646E-1,-1.118811667E-1,-1.028366923E0
1.130280743E2,-4.370784760E-2,-2.054079175E-1,8.957874179E-1
1.135280743E2,-3.441400528E-1,-9.349286556E-2,-1.878973246E-1
1.140280743E2,-3.882246017E-1,-6.021191478E-1,-3.279759884E-1
1.145280743E2,-6.830816269E-1,-7.238775492E-1,-3.864976168E-1
1.150280743E2,-8.639240265E-1,-1.045302629E0,5.478856564E-1
1.155280743E2,9.351987839E-1,8.234685659E-2,-5.013393164E-1
1.160280743E2,5.001420975E-1,4.169874787E-1,1.656916142E-1
1.165280743E2,8.563232422E-1,-6.833535433E-2,6.496464014E-1
1.170280743E2,-4.516220093E-1,4.348716140E-2,1.222674251E-1
1.175280743E2,7.355165482E-1,1.784737706E-1,2.631822526E-1
1.180280743E2,6.963891983E-1,6.867050529E-1,1.036849141E0
1.185280743E2,-5.867004395E-3,5.191893578E-1,8.757448196E-1
1.190280743E2,1.395688057E0,5.211230516E-1,1.090382576E0
1.195280743E2,-2.537899017E-1,-5.895153284E-1,9.122037888E-1
1.200280743E2,-5.055198669E-1,-8.141651154E-1,5.509116054E-1
1.205280743E2,5.650386810E-1,4.288988113E-1,-9.674637318E-1
1.210280743E2,5.998659134E-1,9.417772293E-3,-1.059578776E0
1.215280743E2,-1.452445984E-3,-1.942455769E-2,-4.034510851E-1
1.220280743E2,-2.292146683E-1,-1.414037943E-1,-3.339258432E-1
1.225280743E2,-1.564135551E0,-9.495617151E-1,-8.860232830E-1
1.230280743E2,-1.622272491E0,-1.028221965E0,-1.536512494E0
1.235280743E2,-8.459806442E-1,1.002061367E-1,-1.297391176E0
1.240280743E2,-6.888189316E-1,-2.978591323E-1,1.913903952E-1
1.245280743E2,2.758474350E-1,-1.659858227E-1,5.441427231E-3
1.250280743E2,-1.014356613E-1,-2.971053123E-1,-5.308319330E-1
1.255280743E2,5.166568756E-1,6.844931841E-2,-7.670414448E-1
1.260280743E2,-7.122364044E-1,-5.312351584E-1,7.612848282E-2
1.265280743E2,2.937040329E-1,-4.164068699E-1,-3.675082326E-1
1.270280743E2,-4.455471039E-1,-8.428667784E-1,-6.857621670E-1
1.275280743E2,3.150701523E-1,-2.589554787E-1,-1.987817287E-1
1.280280743E2,2.966938019E-1,-4.812296629E-1,-4.449129105E-1
1.285280743E2,1.573500633E0,2.534564734E-1,1.015661240E0
1.290280743E2,1.114454269E-1,-2.569596767E-1,-5.738570690E-1
1.295280743E2,-1.912860870E-1,2.075103968E-1,-1.008169413E0
1.300280743E2,5.246953964E-1,1.305136085E-2,4.062116146E-2
1.305280743E2,4.391765594E-1,-6.125784516E-1,-5.899846554E-2
1.310280743E2,7.503890991E-2,-8.587121367E-1,1.939153969E-1
1.315280743E2,1.799801826E0,8.004547358E-1,-5.804192424E-1
1.320280743E2,1.955509186E-2,-3.794962168E-1,1.106437296E-1
1.325280743E2,-1.182098389E-1,-2.981234789E-1,-1.788626313E-1
1.330280743E2,7.642879486E-1,4.439617395E-1,-2.091213465E-1
1.335280743E2,3.407020569E-1,2.774834633E-2,2.482828200E-1
1.340280743E2,-2.088079453E-1,6.247267723E-1,-4.731295109E-1
1.345280743E2,-5.685930252E-1,-4.298042059E-1,8.616837859E-2
1.350280743E2,7.146596909E-1,1.015106678E0,-1.858445704E-1
1.355280743E2,-8.207902908E-1,-6.148551106E-1,5.832220316E-1
1.360280743E2,8.032884598E-1,2.084702253E-1,-1.656374633E-1
1.365280743E2,8.283290863E-1,1.598074138E-1,-3.325404227E-1
1.370280743E2,-2.655048370E-1,-6.494812965E-1,9.294956923E-2
1.375280743E2,6.207189560E-1,-1.284219623E-1,2.228588760E-1
1.380280743E2,6.070346832E-1,3.028152585E-1,9.707084298E-2
1.385280743E2,-4.874658585E-1,1.186519861E0,-3.510414660E-1
1.390280743E2,6.146059036E-1,1.201644182E0,2.338364571E-1
1.395280743E2,-1.127557755E-1,7.373331785E-1,1.694459617E-1
1.400280743E2,6.281089783E-1,6.270806193E-1,-2.594267726E-1
1.405280743E2,-1.932296753E-1,-2.783542275E-1,6.184035540E-2
1.410280743E2,4.683103561E-1,6.150501966E-1,-3.361862898E-1
1.415280743E2,-1.015607834E0,-7.702907920E-1,3.516530991E-1
1.420280743E2,1.100517273E0,5.514273643E-1,-2.399213314E-1
1.425280743E2,-4.926614761E-1,7.217782736E-2,5.292284489E-2
1.430280743E2,1.279869080E-1,-2.618107200E-1,-2.634829283E-2
1.435280743E2,1.484994888E-1,6.091744900E-1,-1.745508909E-1
1.440280743E2,-4.175834656E-1,-5.802382827E-1,1.484379470E-1
1.445280743E2,3.622360229E-1,6.349444389E-1,-2.640563250E-1
1.450280743E2,-4.340677261E-1,-5.203084350E-1,3.293121159E-1
1.455280743E2,6.920213699E-1,8.026807308E-1,-2.793120146E-1
1.460280743E2,-8.456411362E-1,-7.745793462E-1,2.161334157E-1
1.465280743E2,6.302461624E-1,7.721630931E-1,-2.306853533E-1
1.470280743E2,-7.810497284E-1,-7.869681120E-1,2.313393950E-1
1.475280743E2,6.713743210E-1,8.688354492E-1,-2.693130970E-1
1.480280743E2,-7.726526260E-1,-7.799063921E-1,1.987048388E-1
1.485280743E2,9.453697205E-1,9.682546854E-1,-2.968299389E-1
1.490280743E2,-8.325576782E-1,-8.664148450E-1,1.840587258E-1
1.495280743E2,7.759141922E-1,8.213750720E-1,-2.388182878E-1
1.500280743E2,-5.873680115E-1,-5.780214071E-1,2.814843655E-1
1.505280743E2,9.331007004E-1,6.630910635E-1,-2.488520145E-1
1.510280743E2,-8.041591644E-1,-7.906395197E-1,2.722043991E-1
1.515280743E2,8.011102676E-1,6.795021296E-1,-2.247051001E-1
1.520280743E2,-6.369237900E-1,-5.747197866E-1,1.307097673E-1
1.525280743E2,7.064580917E-1,5.482661724E-1,-1.862698197E-1
1.530280743E2,-9.924507141E-1,-9.283708930E-1,1.974643469E-1
1.535280743E2,8.672943115E-1,7.167854905E-1,-2.616351843E-1
1.540280743E2,-1.246380806E0,-9.933617115E-1,4.282992482E-1
1.545280743E2,1.204373360E0,9.047156572E-1,-2.717590928E-1
1.550280743E2,-1.341392517E0,-1.014357686E0,3.012827039E-1
1.555280743E2,1.194931984E0,9.140030146E-1,-2.523435950E-1
1.560280743E2,-1.311020851E0,-1.063788056E0,3.683270812E-1
1.565280743E2,1.117225647E0,6.281933188E-1,-4.638060331E-1
1.570280743E2,6.176185608E-1,9.711285233E-1,-4.114047885E-1
1.575280743E2,-1.488752365E0,-1.211876869E0,3.420556188E-1
1.580280743E2,1.392631531E0,8.260923028E-1,-2.856780887E-1
1.585280743E2,-1.065985680E0,-3.638268709E-1,2.573407888E-1
1.590280743E2,1.497354507E-1,2.996385098E-1,1.387683749E-1
1.595280743E2,-4.354400635E-1,7.794816494E-1,-3.055384159E-1
1.600280743E2,2.139749527E-1,1.195925474E0,-3.260558844E-2
1.605280743E2,-3.329448700E-1,6.820363998E-1,-1.028599143E-1
1.610280743E2,3.802385330E-1,3.142200708E-1,5.196896195E-1
1.615280743E2,-6.157169342E-1,-1.925933361E-2,-3.011138439E-1
1.620280743E2,-5.884647369E-2,-3.853416443E-2,-2.066165209E-1
1.625280743E2,-2.339010239E-1,1.864913702E-1,-3.634871244E-1
1.630280743E2,-4.263114929E-2,1.044741631E0,-1.770569086E-1
1.635280743E2,-1.874446869E-1,4.502282143E-1,1.651372910E-1
1.640280743E2,1.691236496E-1,-4.160864353E-1,2.702757120E-1
1.645280743E2,1.682643890E-1,-2.584414482E-1,-1.456094980E-1
1.650280743E2,-5.758342743E-1,-3.271492720E-1,3.456891775E-1
1.655280743E2,-8.962802887E-1,-2.454566956E-1,-8.462104797E-1
1.660280743E2,-2.398204803E-2,-1.164799571E0,2.563837767E-1
1.665280743E2,-6.869878769E-1,3.024861813E-1,-2.602505684E-2
1.670280743E2,9.197330475E-2,1.847671270E-1,-6.578421593E-2
1.675280743E2,-3.543701172E-1,1.654929817E-1,7.301426530E-1
1.680280743E2,3.036680222E-1,-1.174407452E-1,8.114846349E-1
1.685280743E2,-9.708986282E-1,-3.037753701E-2,3.762286901E-2
1.690280743E2,1.171697617E0,5.125964880E-1,5.250594616E-1
1.695280743E2,-2.452106476E-1,2.943688333E-1,5.491805077E-1
1.700280743E2,-3.977193832E-1,7.085615396E-1,3.452706039E-1
1.705280743E2,-2.641143799E-1,8.188394308E-1,-1.084937453E-1
1.710280743E2,4.642295837E-2,4.620195627E-1,1.693374962E-1
1.715280743E2,-6.147480011E-2,-4.884384871E-1,2.630280256E-1
1.720280743E2,-3.418064117E-2,-4.561368227E-1,-1.772046089E-2
1.725280743E2,1.700830460E-1,-6.653161049E-1,4.122911692E-1
1.730280743E2,6.128349304E-1,-3.880153894E-1,1.274894476E-1
1.735280743E2,5.758104324E-1,-4.754274487E-1,6.274702549E-1
1.740280743E2,3.409290314E-1,-5.379760861E-1,-3.070948124E-1
1.745280743E2,-4.715108871E-1,-2.747742534E-1,-7.774982452E-1
1.750280743E2,-1.122356415E0,-2.445252538E-1,-1.578202248E-1
1.755280743E2,4.116420746E-1,-2.809746861E-1,-6.773062944E-1
1.760280743E2,2.456302643E-1,-2.785941958E-2,-4.915412664E-1
1.765280743E2,-1.747045517E-1,6.520739198E-2,-2.450633049E-1
1.770280743E2,-1.419830322E-2,7.223446369E-1,-5.879175663E-1
1.775280743E2,3.530740738E-1,-1.185928583E-1,2.382373810E-2
1.780280743E2,-1.152821541E0,-6.916503906E-1,-3.023772240E-1
1.785280743E2,1.363563538E-1,-5.334848762E-1,3.667354584E-2
1.790280743E2,-9.084205627E-1,-9.648001194E-2,-3.874874115E-1
1.795280743E2,-4.634609222E-1,-1.373584270E-1,-4.992480278E-1
1.800280743E2,5.792484283E-1,3.284299374E-2,-5.026030540E-2
1.805280743E2,-1.437244415E-1,-3.852176666E-1,5.293087959E-1
1.810280743E2,8.421354294E-1,-2.616660595E-1,3.333027363E-1
1.815280743E2,-5.790729523E-1,-4.731396437E-1,4.645965099E-1
1.820280743E2,1.956201553E0,-1.156667471E-1,4.500412941E-2
1.825280743E2,-6.546440125E-1,-1.902843714E-1,4.937387705E-1
1.830280743E2,7.374143600E-1,2.117465734E-1,9.802896976E-1
1.835280743E2,-3.523254395E-2,-2.854462862E-1,-8.586276770E-1
1.840280743E2,-8.079767227E-1,2.671499252E-1,-2.307987213E-2
1.845280743E2,-2.052202225E-1,-5.131094456E-1,1.038329482E0
1.850280743E2,-2.483100891E-1,-3.189864159E-1,-5.556163788E-1
1.855280743E2,8.973073959E-1,-1.956384182E-1,1.267326236E0
1.860280743E2,6.284446716E-1,-2.949808836E-1,-3.583749533E-1
1.865280743E2,-7.389087677E-1,-4.988057613E-1,9.442538023E-1
1.870280743E2,5.800027847E-1,-1.833128929E-2,-4.214142561E-1
1.875280743E2,6.177825928E-1,-3.057984114E-1,4.261299372E-1
1.880280743E2,-3.046932220E-1,-3.891795874E-2,-2.325698137E-1
1.885280743E2,-1.503477097E-1,-4.275274277E-2,-9.895050526E-2
1.890280743E2,2.010250092E-2,-2.733752131E-1,2.035421133E-1
1.895280743E2,-5.150947571E-1,-1.915222406E-2,-6.376992464E-1
1.900280743E2,9.853649139E-2,-1.641558111E-1,-1.662672758E-1
1.905280743E2,4.102621078E-1,-2.124839574E-1,-1.229366064E-1
1.910280743E2,2.834825516E-1,-4.610573351E-1,8.590447903E-2
1.915280743E2,-1.249504089E-2,-1.014589787E0,-3.766031265E-1
1.920280743E2,-2.992734909E-1,-2.483869195E-1,4.672343135E-1
1.925280743E2,3.168048859E-1,1.111200452E-1,-7.790696621E-2
1.930280743E2,1.083838463E0,6.967692375E-1,2.818480134E-1
1.935280743E2,-1.035205841E0,-6.083969474E-1,4.222396314E-1
1.940280743E2,-8.695507050E-1,-7.552133799E-1,7.363767028E-1
1.945280743E2,-5.163726807E-1,3.930401802E-1,8.591055870E-2
1.950280743E2,7.049140930E-1,2.459162474E-1,-4.233205318E-1
1.955280743E2,2.245559692E-1,-2.891629934E-1,4.523861408E-2
1.960280743E2,-1.347558975E0,-4.952481389E-1,2.795438170E-1
1.965280743E2,-4.176311493E-1,-6.259470582E-1,-1.613087058E-1
1.970280743E2,7.276821136E-2,1.270626903E0,2.057139874E-1
1.975280743E2,7.790193558E-1,2.061562538E0,-3.263266087E-1
1.980280743E2,-8.875198364E-1,6.254550219E-1,-7.899463177E-2
1.985280743E2,-5.648632050E-1,9.550722837E-1,-1.913280487E-1
1.990280743E2,1.015515327E0,1.283041835E0,-3.931446075E-1
1.995280743E2,-1.611023903E0,-1.078502536E-1,5.327951908E-2
2.000280743E2,1.365279198E0,1.487113714E0,-2.796021700E-1
2.005280743E2,-1.670367241E0,-4.267373681E-1,1.095985770E-1
2.010280743E2,1.074022293E0,9.982011914E-1,-4.780894518E-1
2.015280743E2,-8.427400589E-1,1.982118487E-1,3.494260311E-1
2.020280743E2,5.242156982E-1,4.174829423E-1,-2.131841183E-1
2.025280743E2,-4.353237152E-1,4.260935783E-1,1.602861881E-1
2.030280743E2,2.402210236E-1,2.083241642E-1,-4.420735836E-1
2.035280743E2,-2.802696228E-1,3.494052589E-1,8.603858948E-2
2.040280743E2,1.424093246E-1,-8.213818073E-4,-1.782852411E-1
2.045280743E2,-3.500671387E-1,2.920955420E-1,5.895400047E-2
2.050280743E2,3.806972504E-2,-7.615703344E-2,-1.791245937E-1
2.055280743E2,-1.351041794E-1,4.262627959E-1,2.448666096E-2
2.060280743E2,1.540231705E-1,-5.109918118E-2,-1.954530478E-1
2.065280743E2,-1.927461624E-1,2.913264632E-1,1.051300764E-1
2.070280743E2,6.858158112E-2,-1.718209088E-1,-1.848678589E-1
2.075280743E2,-5.821323395E-2,3.497223854E-1,-5.081212521E-2
2.080280743E2,1.191425323E-1,-1.606298685E-1,-3.226462603E-1
2.085280743E2,-1.764326096E-1,2.244692445E-1,6.922566891E-2
2.090280743E2,3.534955978E-1,-2.999609709E-2,-2.934482098E-1
2.095280743E2,-4.482173920E-1,9.204924107E-3,2.682249546E-1
2.100280743E2,4.340496063E-1,4.324132204E-2,-2.930563688E-1
2.105280743E2,-3.577146530E-1,1.232725382E-2,1.439702511E-1
2.110280743E2,3.763637543E-1,-5.705237389E-3,-2.902246714E-1
2.115280743E2,-3.871231079E-1,7.304203510E-2,9.392499924E-2
2.120280743E2,3.690500259E-1,2.637732029E-2,-3.168575764E-1
2.125280743E2,-4.055442810E-1,5.552196503E-2,6.845057011E-2
2.130280743E2,3.734617233E-1,-1.073503494E-2,-3.289264441E-1
2.135280743E2,-3.774366379E-1,-3.117859364E-3,1.341090202E-1
2.140280743E2,2.236776352E-1,-1.878044605E-1,-2.735626698E-1
2.145280743E2,-2.521018982E-1,9.561711550E-2,1.119296551E-1
2.150280743E2,-1.060619354E-1,-4.387719035E-1,-2.170109749E-1
2.155280743E2,1.891231537E-2,2.679654360E-1,3.437173367E-2
2.160280743E2,2.193164825E-2,-3.061873019E-1,-3.563535213E-1
2.165280743E2,-1.747341156E-1,1.215234995E-1,1.437575817E-1
2.170280743E2,3.197078705E-1,-7.160049677E-2,-4.588637352E-1
2.175280743E2,-2.037143707E-1,1.039155126E-1,2.205144763E-1
2.180280743E2,2.892885208E-1,-7.736098766E-2,-3.680481911E-1
2.185280743E2,-4.885959625E-2,2.034221888E-1,-1.447308064E-2
2.190280743E2,2.452297211E-1,-8.534210920E-2,-2.725808620E-1
2.195280743E2,1.501264572E-1,3.204395175E-1,-4.140353203E-2
2.200280743E2,-1.726436615E-1,-3.725056052E-1,-1.817095280E-1
2.205280743E2,7.263822556E-1,5.331922770E-1,4.103183746E-4
2.210280743E2,-1.395162582E0,-8.535633683E-1,6.589366198E-1
2.215280743E2,5.214214325E-2,-3.083253503E-1,8.269357681E-2
2.220280743E2,1.287937164E0,9.461486340E-1,-1.841502190E-1
2.225280743E2,-1.536862373E0,7.353943586E-2,1.659135818E-1
2.230280743E2,-4.576597214E-1,6.946598291E-1,-1.096719503E-1
2.235280743E2,-6.784639359E-1,3.911482096E-1,-4.080870152E-1
2.240280743E2,-6.034545898E-1,8.255288601E-1,-8.346344233E-1
2.245280743E2,-8.719921112E-2,1.042002439E-1,3.193223476E-1
2.250280743E2,3.068256378E-2,3.533322811E-1,-3.771619797E-1
2.255280743E2,-1.786918640E-1,1.518678665E-2,-2.683533430E-1
2.260280743E2,2.224569321E-1,5.183227062E-1,2.863416672E-1
2.265280743E2,5.110263824E-2,3.790497780E-2,-6.367541552E-1
2.270280743E2,-4.506978989E-1,-1.144325733E-1,3.171073198E-1
2.275280743E2,-4.255285263E-1,3.041059971E-1,-1.238301754E0
2.280280743E2,5.175180435E-1,-3.214836121E-1,7.175242901E-2
2.285280743E2,-2.712154388E-1,-4.833014011E-1,5.737159252E-1
2.290280743E2,3.092594147E-1,5.585215092E-1,-9.389537573E-1
2.295280743E2,8.904647827E-2,-8.168733120E-1,7.217401266E-1
2.300280743E2,-7.477922440E-1,-2.404099703E-1,-4.306466579E-1
2.305280743E2,1.622734070E-1,4.287447929E-1,2.669632435E-2
2.310280743E2,-1.508541107E-1,-1.229341030E-1,-4.274322987E-1
2.315280743E2,-7.871971130E-1,-1.428855658E-1,9.392879009E-1
2.320280743E2,7.884492874E-1,-7.382500172E-2,-3.877162933E-1
2.325280743E2,-9.974441528E-1,-5.112780333E-1,1.752667427E-1
2.330280743E2,-1.443681717E-1,-3.103338480E-1,3.402768373E-1
2.335280743E2,7.087783813E-1,-8.115507960E-1,4.039316177E-1
2.340280743E2,-7.692375183E-1,6.879842281E-2,-1.433927059E0
2.345280743E2,-7.290019989E-1,-1.454878092E0,5.959655643E-1
2.350280743E2,1.913461685E-1,-8.923637271E-1,4.275503755E-1
2.355280743E2,-1.496264458E0,-5.323959589E-1,2.386037111E-1
2.360280743E2,4.937934875E-2,-6.586256027E-1,4.653725624E-1
2.365280743E2,1.080290794E0,5.384809971E-1,-3.636195660E-1
2.370280743E2,1.304613113E0,-1.842159629E-1,-8.647295237E-1
2.375280743E2,-5.277309418E-1,-7.745428085E-1,8.468527198E-1
2.380280743E2,4.023456573E-2,-7.652250528E-1,3.066446781E-1
2.385280743E2,-1.157283783E-1,-8.673245311E-1,8.850800991E-2
2.390280743E2,5.616025925E-1,4.554865062E-1,-1.488621235E-1
2.395280743E2,-6.545410156E-1,-1.119216532E-1,-1.546927691E-1
2.400280743E2,-5.332717896E-1,2.390268594E-1,-1.930762529E-1
2.405280743E2,1.816959381E-1,2.935461402E-1,-7.418133020E-1
2.410280743E2,-8.551321030E-1,-8.963672519E-1,-6.142898798E-1
2.415280743E2,-8.040971756E-1,6.960967183E-1,-8.546202183E-1
2.420280743E2,-1.098183632E0,-2.110762447E-1,-4.584689140E-1
2.425280743E2,5.240812302E-1,6.715606451E-1,-8.896009922E-1
2.430280743E2,-7.904043198E-1,7.132214308E-2,-6.830899715E-1
2.435280743E2,5.790710449E-3,3.332000971E-1,-5.637726784E-1
2.440280743E2,-3.493928909E-1,-2.002372742E-1,1.453819275E-1
2.445280743E2,-1.807212830E-3,3.184747696E-1,1.070928574E-1
2.450280743E2,-1.203813553E-1,-2.603743076E-1,-8.430480957E-3
2.455280743E2,-3.280544281E-1,-3.995583057E-1,-1.588125229E0
2.460280743E2,1.721763611E-1,-8.180377483E-1,5.456118584E-1
2.465280743E2,-1.259387970E0,9.991908073E-2,-7.573294640E-2
2.470280743E2,-2.862367630E-1,-5.911753178E-1,2.648615837E-1
2.475280743E2,2.851839066E-1,-4.783242941E-1,8.678886890E-1
2.480280743E2,-6.080503464E-1,3.545284271E-4,-2.901318073E-1
2.485280743E2,1.278734207E-1,4.686263800E-1,1.775763035E-1
2.490280743E2,-4.601259232E-1,-9.461270571E-1,4.107294083E-1
2.495280743E2,6.577348709E-1,-1.214371920E-1,1.175118446E0
2.500280743E2,-3.841133118E-1,-4.607092142E-1,2.704800367E-1
2.505280743E2,4.159870148E-1,-3.757847548E-1,1.126849651E-2
2.510280743E2,-6.278600693E-1,-3.554730415E-1,4.318710566E-1
2.515280743E2,2.166700363E-1,-8.010005951E-2,4.066900015E-1
2.520280743E2,3.634233475E-1,-4.076548219E-1,7.256729007E-1
2.525280743E2,1.707553864E-2,-5.392743349E-1,-5.915796757E-2
2.530280743E2,4.774580002E-1,4.845726490E-2,4.149314165E-1
2.535280743E2,-7.663087845E-1,-7.929174900E-1,5.402630568E-1
2.540280743E2,1.971435547E-1,-3.660227060E-1,7.712340355E-2
2.545280743E2,-9.760379791E-2,4.201972485E-1,-4.182556868E-1
2.550280743E2,1.633844376E-1,1.543562412E-1,9.809768200E-1
2.555280743E2,5.742530823E-1,-6.614322662E-1,7.296466827E-2
2.560280743E2,4.169158936E-1,2.520972490E-2,-5.780458450E-2
2.565280743E2,-7.796192169E-1,-3.108662367E-2,1.790654659E-1
2.570280743E2,1.073384285E0,8.438929915E-1,-4.886413813E-1
2.575280743E2,-2.031097412E-1,1.599310040E-1,-7.749898434E-1
2.580280743E2,-7.169284821E-1,-3.985216618E-1,-4.849736691E-1
2.585280743E2,5.814933777E-1,-1.252527237E-1,4.607925415E-1
2.590280743E2,3.858699799E-1,4.914178252E-1,-1.834081411E-1
2.595280743E2,-7.774343491E-1,1.684834361E-1,-4.946726561E-1
2.600280743E2,-2.092390060E-1,-4.052146673E-1,-8.947968483E-2
2.605280743E2,-1.141595840E0,-1.405255198E-1,-7.061749697E-1
2.610280743E2,-3.341932297E-1,-4.141896367E-1,3.143477440E-2
2.615280743E2,-6.449556351E-1,-7.841670513E-2,-1.005821705E0
2.620280743E2,4.154777527E-2,-1.984726191E-1,2.673236132E-1
2.625280743E2,-3.866672516E-2,2.793335915E-1,-3.589951992E-1
2.630280743E2,2.324657440E-1,-2.124407291E-1,4.243202209E-1
2.635280743E2,2.843255997E-1,6.751292944E-1,4.085539579E-1
2.640280743E2,5.963182449E-1,-3.944466114E-1,2.755312920E-1
2.645280743E2,2.885084152E-1,-4.431617260E-2,3.390932083E-1
2.650280743E2,6.496019363E-1,-5.211590528E-1,7.435441017E-2
2.655280743E2,-2.117175102E0,-1.586092949E0,7.619340420E-1
2.660280743E2,4.332456589E-1,-9.462230206E-1,4.371576309E-1
2.665280743E2,-4.514436722E-1,-3.232724965E-1,3.799369335E-1
2.670280743E2,8.374080658E-1,-7.229624391E-1,-2.476793528E-1
2.675280743E2,1.062974930E-1,8.879542351E-2,-1.155827045E-1
2.680280743E2,-1.210989952E0,-3.049853444E-1,-2.218365669E-1
2.685280743E2,1.285692215E0,1.181716204E0,-8.921561241E-1
2.690280743E2,-1.752696037E0,-2.022573650E-1,-5.004193783E-1
2.695280743E2,3.662366867E-1,9.081854820E-1,-8.677241802E-1
2.700280743E2,-4.887294769E-2,9.672711492E-1,-8.889780045E-1
2.705280743E2,-4.086513519E-1,4.873512983E-1,-2.594294548E-1
2.710280743E2,1.769864082E0,5.113533735E-1,-5.280447006E-2
2.715280743E2,-1.263782501E0,4.615514278E-1,-1.021582603E0
2.720280743E2,-6.956138611E-1,9.447407722E-2,-1.981410503E0
2.725280743E2,3.474521637E-2,-1.029483080E-1,-9.960279465E-1
2.730280743E2,4.408016205E-1,2.182292938E-1,-1.003527641E-1
2.735280743E2,1.245546341E-1,9.167647362E-2,3.212175369E-1
2.740280743E2,5.856037140E-2,-6.701724529E-1,-2.148041725E-1
2.745280743E2,-9.514999390E-1,-1.416360140E-1,4.125769138E-1
2.750280743E2,8.429079056E-1,1.188291311E-1,2.925708294E-1
2.755280743E2,2.314157486E-1,-5.570502281E-1,2.388510704E-1
2.760280743E2,9.436607361E-2,-6.325258017E-1,2.276585102E-1
2.765280743E2,3.578910828E-1,-7.834955454E-1,4.260663986E-1
2.770280743E2,-6.011657715E-1,-5.239182711E-2,-1.236797571E-1
2.775280743E2,-9.406757355E-2,-1.995772719E-1,5.339615345E-1
2.780280743E2,5.771503448E-1,8.301190734E-1,-4.327790737E-1
2.785280743E2,1.220563889E0,6.606673002E-1,-4.556876421E-1
2.790280743E2,-2.722549438E-2,3.537549376E-1,-5.826011896E-1
2.795280743E2,1.260152817E0,9.783526659E-1,-3.675510883E-1
2.800280743E2,-9.848632812E-1,-2.962835431E-1,3.228278160E-1
2.805280743E2,8.144407272E-1,5.565907955E-1,5.092102289E-1
2.810280743E2,-1.184828758E0,-3.263889551E-1,2.305199504E-1
2.815280743E2,7.513132095E-1,5.392873287E-1,-2.008851171E-1
2.820280743E2,-1.096061707E0,-4.499753118E-1,2.591554523E-1
2.825280743E2,3.994693756E-1,-8.532655239E-2,7.007974386E-1
2.830280743E2,-8.400487900E-1,-1.089758515E0,-4.200429320E-1
2.835280743E2,1.043779373E0,9.623587132E-2,1.370888829E0
2.840280743E2,9.540414810E-1,4.246792793E-1,6.766070127E-1
2.845280743E2,6.213283539E-2,-1.686806679E-1,7.978665233E-1
2.850280743E2,5.334930420E-1,4.725708961E-1,2.583932877E-1
2.855280743E2,2.253522873E-1,-2.503085136E-1,7.916346788E-1
2.860280743E2,6.525230408E-1,3.988280296E-1,-1.593848348E0
2.865280743E2,4.196271896E-1,2.485082150E-1,-1.049365640E0
2.870280743E2,1.013760567E0,-2.028603554E-1,-7.344138622E-2
2.875280743E2,-7.272682190E-1,-3.650758266E-1,-1.245419979E-1
2.880280743E2,6.316509247E-1,-1.960687637E-1,1.666121483E-1
2.885280743E2,-1.469554901E-1,-6.639397144E-1,-6.175739765E-1
2.890280743E2,-1.183223724E-1,-1.186193109E0,1.455335617E-1
2.895280743E2,2.058782578E-1,-2.635205388E-1,-7.113647461E-2
2.900280743E2,-6.200437546E-1,-4.002714157E-1,-5.042183399E-1
2.905280743E2,-3.204088211E-1,-3.832656741E-1,-9.728121758E-2
2.910280743E2,3.880701065E-1,3.220031857E-1,-1.102387905E-1
2.915280743E2,5.078611374E-1,3.543257713E-1,-4.823875427E-2
2.920280743E2,4.927959442E-1,4.309242070E-1,-1.453161240E-3
2.925280743E2,-1.037318230E0,-4.235930443E-1,3.298330307E-2
2.930280743E2,-8.098745346E-1,3.226952553E-1,-3.910083771E-1
2.935280743E2,4.666233063E-1,4.265649915E-1,1.030466557E-1
2.940280743E2,-4.192142487E-1,5.864850283E-1,-1.355876923E-1
2.945280743E2,1.843328476E-1,2.054339647E-1,-2.903015614E-1
2.950280743E2,-3.040723801E-1,-2.900791168E-2,5.262956619E-1
2.955280743E2,2.509803772E-1,6.008193493E-1,-5.627753735E-1
2.960280743E2,-6.482563019E-1,-2.567715645E-1,-3.388776779E-1
2.965280743E2,2.703971863E-1,6.520986557E-3,-4.305937290E-1
2.970280743E2,1.060676575E-2,1.436808109E-1,-4.118840694E-1
2.975280743E2,-5.100402832E-1,-3.882348537E-1,-1.614711285E-1
2.980280743E2,-1.772842407E-1,-1.206562519E-1,-8.739073277E-1
2.985280743E2,9.434185028E-1,-1.936511993E-1,5.656940937E-1
2.990280743E2,5.567407608E-1,-3.695793152E-1,-2.110621929E-1
2.995280743E2,2.081441879E-1,3.440387249E-1,-6.701195240E-1
3.000280743E2,-2.292585373E-1,1.140418053E-1,4.556579590E-1
3.005280743E2,1.154126167E0,-2.715640068E-1,-6.034719944E-1
3.010280743E2,-2.806910038E0,-5.566918850E-1,1.201626778E0
3.015280743E2,-8.434276581E-1,7.640999556E-1,-8.395349979E-1
3.020280743E2,-1.456084251E0,-4.382014275E-3,1.122940302E0
3.025280743E2,7.757511139E-1,5.121730566E-1,-4.811232090E-1
3.030280743E2,4.719772339E-1,3.703918457E-1,8.969621658E-1
3.035280743E2,-4.948768616E-1,2.421123981E-1,-4.112172127E-2
3.040280743E2,7.753658295E-2,5.107060671E-1,-2.650542259E-1
3.045280743E2,-1.790513992E-1,-3.779268265E-1,-1.238753796E-1
3.050280743E2,-3.260164261E-1,-3.655425310E-1,-6.087110043E-1
3.055280743E2,1.631507874E-1,3.680380583E-1,-4.443449974E-1
3.060280743E2,6.606006622E-2,-2.505924106E-1,5.432958603E-1
3.065280743E2,3.014879227E-1,4.138267040E-1,-3.537392616E-1
3.070280743E2,4.786453247E-1,-3.142248988E-1,4.258712530E-1
3.075280743E2,-3.308909416E0,-5.801271200E-1,6.558450460E-1
3.080280743E2,5.448797226E0,-7.925727367E-1,-4.852807522E-1
3.085280743E2,-2.266224861E0,-1.321636677E0,5.892938375E-1
3.090280743E2,1.821795464E0,-1.835396141E-1,-1.518088579E-1
3.095280743E2,1.074638367E-1,3.957434297E-1,2.888226509E-2
3.100280743E2,5.187988281E-4,-7.708525658E-1,-4.952908754E-1
3.105280743E2,5.512390137E-1,4.158836603E-2,-3.006405830E-1
3.110280743E2,1.504339218E0,3.218848705E-1,3.128551245E-1
3.115280743E2,7.305698395E-1,7.523822784E-2,-6.932181120E-1
3.120280743E2,-1.088437080E0,-7.950405478E-1,3.765845299E-1
3.125280743E2,9.100465775E-1,-1.506127715E-1,-1.784765720E-1
3.130280743E2,-1.059964180E0,-1.081547141E0,7.609031796E-1
3.135280743E2,7.498607635E-1,-2.503876090E-1,-1.793707609E-1
3.140280743E2,1.293125153E0,1.211710572E-1,-7.432307005E-1
3.145280743E2,5.668544769E-1,1.788707972E-1,-1.379173994E-1
3.150280743E2,-9.842329025E-1,-8.679963946E-1,2.821089029E-1
3.155280743E2,-5.715961456E-1,3.124650717E0,-2.181802988E-1
3.160280743E2,1.182571411E0,1.932321787E0,-3.499473333E-1
3.165280743E2,-9.163751602E-1,-2.375513315E-2,9.343004227E-2
3.170280743E2,-6.035966873E-1,9.094140530E-1,3.484320641E-2
3.175280743E2,8.427963257E-1,1.187312245E0,-1.362937689E-1
3.180280743E2,-1.741585732E0,5.592594668E-2,4.913592339E-2
3.185280743E2,1.453617096E0,1.249048471E0,-3.531572819E-1
3.190280743E2,-1.293479919E0,1.966823786E-1,3.226678371E-1
3.195280743E2,-2.899131775E-1,2.181207389E-1,9.554624557E-2
3.200280743E2,1.239203453E0,1.214872718E0,-2.565767765E-1
3.205280743E2,-1.171786308E0,-5.177149177E-1,1.295456886E-1
3.210280743E2,1.527698517E0,1.255483985E0,-4.223723412E-1
3.215280743E2,-1.113421440E0,-4.396990836E-1,7.094073296E-2
3.220280743E2,1.360780716E0,9.990240335E-1,-3.497432470E-1
3.225280743E2,-1.407231331E0,-7.814064026E-1,2.350256443E-1
3.230280743E2,1.464775085E0,1.025141597E0,-3.828699589E-1
3.235280743E2,-1.609930992E0,-8.064347506E-1,1.773635149E-1
3.240280743E2,1.521635056E0,8.808352351E-1,-5.055252314E-1
3.245280743E2,-1.718344688E0,-9.076002836E-1,2.876920700E-1
3.250280743E2,1.171840668E0,6.513848901E-1,-3.818535805E-1
3.255280743E2,-1.532127380E0,-6.863017678E-1,4.370069504E-1
3.260280743E2,-1.865053177E-1,-2.929343879E-1,8.169353008E-2
3.265280743E2,6.613206863E-1,1.672302246E0,-2.877486944E-1
3.270280743E2,3.144826889E-1,9.530212283E-1,-1.232630014E-1
3.275280743E2,-1.056784630E0,8.491915464E-2,-5.933547020E-2
3.280280743E2,7.816028595E-2,5.586850643E-2,-2.642740011E-1
3.285280743E2,-2.828750610E-1,9.111353159E-1,-3.175008297E-1
3.290280743E2,1.135424614E0,5.008893013E-1,1.465946674E0
3.295280743E2,3.985424042E-1,3.430546522E-1,3.308799267E-1
3.300280743E2,3.808565140E-1,5.467391014E-1,4.443953037E-1
3.305280743E2,8.097724915E-1,-1.212043881E0,-1.348235607E-1
3.310280743E2,-2.575330734E-1,5.851224661E-1,-3.240649700E-1
3.315280743E2,-8.952674866E-1,2.409605980E-1,-1.756189823E0
3.320280743E2,2.561903000E-1,-5.476508141E-1,-2.271420956E-1
3.325280743E2,6.095962524E-1,-2.533214092E-1,-8.443665504E-2
3.330280743E2,3.903560638E-1,4.137259722E-1,2.807791233E-1
3.335280743E2,1.685085297E-1,-5.604714155E-1,-1.497352123E-1
3.340280743E2,-6.155443192E-1,8.429288864E-2,-9.958148003E-1
3.345280743E2,-2.115182877E-1,4.077398777E-1,-1.087029457E0
3.350280743E2,-7.441415787E-1,-6.551244259E-1,-9.026789665E-2
3.355280743E2,2.056169510E-1,-2.302786112E-1,-9.004735947E-2
3.360280743E2,1.274191856E0,5.717456341E-2,2.666127682E-1
3.365280743E2,3.255376816E-1,-5.550118685E-1,6.811738014E-2
3.370280743E2,8.310565948E-1,-5.808296204E-1,-1.249539852E-1
3.375280743E2,-7.289485931E-1,-9.276719689E-1,4.958573580E-1
3.380280743E2,3.573570251E-1,-1.159584880E0,2.018806934E-1
3.385280743E2,-7.762155533E-1,-1.294238567E0,4.482651949E-1
3.390280743E2,1.318416595E-1,1.035708487E-1,4.795932770E-2
3.395280743E2,-1.360458374E0,-1.164298058E-1,8.618986607E-2
3.400280743E2,-7.776336670E-1,2.052211612E-1,1.993217468E-1
3.405280743E2,3.722639084E-1,1.454813004E0,4.395450354E-1
3.410280743E2,4.200735092E-1,9.287530184E-1,4.914551973E-1
3.415280743E2,8.437252045E-2,6.145592928E-1,5.786690712E-1
3.420280743E2,1.407289505E-1,4.747375250E-1,4.984804988E-1
3.425280743E2,8.740043640E-2,3.181015253E-1,2.861619592E-1
3.430280743E2,5.612201691E-1,6.613142490E-1,6.694604754E-1
3.435280743E2,5.257120132E-1,5.335180759E-1,1.044042468E0
3.440280743E2,-4.924287796E-1,-5.546491146E-1,6.254624128E-1
3.445280743E2,-2.944221497E-1,-1.186477661E0,3.703818023E-1
3.450280743E2,1.236009598E-1,-6.915670633E-1,2.314890862E0
3.455280743E2,-3.961172104E-1,-4.249508381E-1,-7.673008442E-1
3.460280743E2,8.646297455E-2,-4.278762341E-1,-3.490756750E-1
3.465280743E2,1.153526306E-1,-2.549314499E-1,-1.609921455E-1
3.470280743E2,-4.923229218E-1,-4.264078140E-1,5.209921598E-1
3.475280743E2,1.574954987E-1,4.160714149E-2,-5.659104586E-1
3.480280743E2,-4.247674942E-1,-8.398579359E-1,-2.321851254E-1
3.485280743E2,-4.990959167E-2,-3.960276842E-1,-1.907157898E-2
3.490280743E2,-7.211627960E-1,3.132777214E-1,-1.402368546E-1
3.495280743E2,2.720985413E-1,-5.278567076E-1,3.827224970E-1
3.500280743E2,6.260890961E-1,-4.378986955E-1,-1.223969460E-1
3.505280743E2,-1.514387131E-1,-3.396747112E-1,3.259223700E-1
3.510280743E2,2.387714386E-1,-2.334607840E-1,4.801270962E-1
3.515280743E2,8.335332870E-1,-1.321477890E-1,4.175209999E-2
3.520280743E2,-1.626221180E0,-7.753362656E-1,8.890249729E-1
3.525280743E2,1.659972191E0,-4.764708281E-1,6.006193161E-2
3.530280743E2,-1.077899933E0,-5.134600401E-1,-3.069095612E-1
3.535280743E2,1.497380257E0,3.126347065E-1,4.904315472E-1
3.540280743E2,-1.155057907E0,-7.688764930E-1,-3.563623428E-1
3.545280743E2,2.806262970E-1,-5.003608465E-1,-6.329612732E-1
3.550280743E2,6.734199524E-1,-2.498319745E-1,4.367022514E-1
3.555280743E2,-4.755220413E-1,-6.988048553E-1,6.425272226E-1
3.560280743E2,4.546737671E-2,5.830958486E-2,-4.032349586E-1
3.565280743E2,-4.135122299E-1,-1.407154202E-1,1.331412792E-1
3.570280743E2,-2.940740585E-1,-6.845102310E-1,-2.645597458E-1
3.575280743E2,-5.335903168E-1,-1.101071239E0,1.973068714E-1
3.580280743E2,-1.522302628E0,-1.321011305E0,1.089506149E-1
3.585280743E2,-2.484903336E-1,1.014589548E0,-3.939859867E-1
3.590280743E2,-8.710546494E-1,-2.434521914E-3,-1.474881172E-1
3.595280743E2,-1.205598354E0,5.314612389E-1,-1.027096987E0
3.600280743E2,3.660297394E-1,5.354481339E-1,3.345046043E-1
3.605280743E2,-3.686609268E-1,6.278965473E-1,4.985642433E-2
3.610280743E2,-1.056856155E0,1.043022871E-1,-3.982806206E-2
3.615280743E2,2.770700455E-1,1.226133108E-1,2.614023685E-1
3.620280743E2,5.097217560E-1,1.969358921E-1,7.794404030E-1
3.625280743E2,-2.921104431E-2,8.646014929E-1,-8.854722977E-2
3.630280743E2,-2.765254974E-1,1.338561773E-1,-1.771104336E-1
3.635280743E2,-6.113004684E-1,1.234595776E-1,-1.254791737E0
3.640280743E2,4.266214371E-1,-2.087309361E-1,8.576984406E-1
3.645280743E2,-1.880598068E-1,-1.818982363E-1,-6.856431961E-1
3.650280743E2,8.192644119E-1,2.451406717E-1,6.905555725E-2
3.655280743E2,4.412279129E-1,-2.068699598E-1,3.886895180E-1
3.660280743E2,4.709835052E-1,-4.903479815E-1,4.631745815E-1
3.665280743E2,-1.040216446E0,-1.833749413E-1,-1.136016846E-2
3.670280743E2,4.843406677E-1,-1.179473996E-1,-4.305539131E-1
3.675280743E2,-3.947544098E-2,-2.982365787E-1,3.494005203E-1
3.680280743E2,1.165580750E-2,-2.516959012E-1,-2.765953541E-1
3.685280743E2,-5.091981888E-1,-5.530853271E-1,1.105461121E-1
3.690280743E2,-4.416732788E-1,-4.717260599E-3,-4.808404446E-1
3.695280743E2,-8.219909668E-1,-6.581141949E-1,3.898835182E-2
3.700280743E2,5.638837814E-1,-2.355263233E-1,-3.435723782E-1
3.705280743E2,3.940677643E-1,2.435253710E-1,-5.973923206E-1
3.710280743E2,8.415327072E-1,2.029680014E-1,-1.464185715E-1
3.715280743E2,-1.712732315E-1,-8.878297806E-1,1.650314331E-1
3.720280743E2,1.527604103E0,5.133172870E-1,-2.869682312E-1
3.725280743E2,4.080410004E-1,1.310391426E-1,-2.682812214E-1
3.730280743E2,-5.329685211E-1,-7.140034437E-1,1.308476925E-1
3.735280743E2,8.080997467E-1,1.476013541E0,-6.129229069E-1
3.740280743E2,6.344385147E-1,7.479298711E-1,-7.198905945E-2
3.745280743E2,-1.406211853E0,8.787190914E-2,3.549597263E-1
3.750280743E2,4.892578125E-1,1.139934659E0,-2.164449692E-1
3.755280743E2,-4.175100327E-1,5.917459726E-2,-1.769448519E-1
3.760280743E2,4.770441055E-1,5.769375563E-1,1.028909683E-1
3.765280743E2,-5.027465820E-1,-4.473660588E-1,3.605446815E-1
3.770280743E2,6.856422424E-1,2.132830620E-1,-1.090009212E-1
3.775280743E2,-1.088990211E0,-1.948841214E-1,-2.459907532E-2
3.780280743E2,6.468791962E-1,1.439497471E-1,-2.041099072E-1
3.785280743E2,-9.816169739E-1,-1.534881592E-1,4.614634514E-1
3.790280743E2,4.337224960E-1,-7.714152336E-2,-1.458442211E-1
3.795280743E2,-7.035818100E-1,2.872109413E-2,3.253815174E-1
3.800280743E2,5.660972595E-1,1.097636223E-1,-2.158420086E-1
3.805280743E2,-6.851587296E-1,-7.230162621E-2,4.413323402E-1
3.810280743E2,6.633968353E-1,7.386291027E-2,-1.440770626E-1
3.815280743E2,-5.879440308E-1,1.343698502E-1,2.653164864E-1
3.820280743E2,5.047483444E-1,-2.474260330E-2,4.225921631E-2
3.825280743E2,-6.207981110E-1,9.653127193E-2,3.567314148E-1
3.830280743E2,5.193939209E-1,4.316258430E-2,-1.689577103E-1
3.835280743E2,-6.338644028E-1,1.243876219E-1,2.357923985E-1
3.840280743E2,-5.293178558E-2,-3.471089005E-1,3.555750847E-2
3.845280743E2,4.664859772E-1,4.995529652E-1,-9.457850456E-2
3.850280743E2,-7.431354523E-1,-6.497888565E-1,3.049328327E-1
3.855280743E2,4.276294708E-1,9.430595636E-1,-6.290879250E-1
3.860280743E2,-7.196741104E-1,2.984217405E-1,2.445659637E-1
3.865280743E2,1.818103790E-1,-1.840076447E-1,-1.852238178E-1
3.870280743E2,6.130189896E-1,8.200714588E-1,-4.072370529E-1
3.875280743E2,1.671218872E-1,1.082503796E-1,-3.323626518E-2
3.880280743E2,2.491950989E-3,4.136710167E-1,-5.569572449E-1
3.885280743E2,5.788965225E-1,3.634384871E-1,-1.463627815E-1
3.890280743E2,-2.834920883E-1,-9.402644634E-2,3.988537788E-1
3.895280743E2,1.168004036E0,5.039834976E-2,4.580476284E-1
3.900280743E2,-8.349437714E-1,2.872259617E-1,-5.787274837E-1
3.905280743E2,5.969324112E-1,-7.796454430E-2,8.120033741E-1
3.910280743E2,2.804727554E-1,-4.362773895E-2,-2.290012836E-1
3.915280743E2,5.188245773E-1,1.995005608E-1,-2.149684429E-1
3.920280743E2,1.508855820E-1,-2.665905952E-1,5.780985355E-1
3.925280743E2,9.422674179E-1,3.417539597E-1,-1.456594467E-2
3.930280743E2,-1.217843056E0,-2.193324566E-1,-4.407565594E-1
3.935280743E2,2.032861710E-1,-1.186020374E-1,-1.365184784E-3
3.940280743E2,-4.283866882E-1,-8.431231976E-1,4.099225998E-2
3.945280743E2,3.763771057E-2,4.582922459E-1,-2.099246979E-1
3.950280743E2,8.130483627E-1,-3.071777821E-1,1.693449020E-1
3.955280743E2,8.592281342E-1,-1.731175184E-1,4.278907776E-1
3.960280743E2,9.252443314E-1,2.785181999E-1,-4.947438240E-1
3.965280743E2,2.596340179E-1,-4.734573364E-1,-4.511690140E-2
3.970280743E2,3.943538666E-2,-2.870630026E-1,-5.060384274E-1
3.975280743E2,1.724224091E-1,2.501218319E-1,1.563670635E-1
3.980280743E2,2.961559296E-1,1.268160343E-2,2.363946438E-1
3.985280743E2,5.942993164E-1,-5.025871992E-1,9.858608246E-3
3.990280743E2,-1.395231724E0,-1.123147130E0,6.626563072E-1
3.995280743E2,-1.027812958E-1,-1.496961117E-1,6.232328415E-1
4.000280743E2,-2.691564560E-1,-7.750402689E-1,-4.515318871E-1
4.005280743E2,7.282161713E-1,-1.319434643E-1,3.327076435E-1
4.010280743E2,2.581501007E-2,-4.942765832E-1,2.013511658E-1
4.015280743E2,6.093750000E-1,3.092324734E-2,3.957059383E-1
4.020280743E2,9.843025208E-1,6.256227493E-1,5.640380383E-1
4.025280743E2,-1.978673935E-1,-2.320032120E-1,-9.194827080E-2
4.030280743E2,4.269275665E-1,4.988969564E-1,4.636546373E-1
4.035280743E2,-3.126430511E-1,-1.841796637E-1,1.694788933E-1
4.040280743E2,9.204864502E-3,-5.779623985E-3,5.506955385E-1
4.045280743E2,4.940032959E-3,-2.665714025E-1,-2.656149864E-1
4.050280743E2,-1.165316582E0,-4.320043325E-1,-1.129444838E-1
4.055280743E2,-1.106265068E0,-4.279366732E-1,-6.861524582E-1
4.060280743E2,-6.626453400E-1,-4.958188534E-1,-7.802681923E-1
4.065280743E2,5.553140640E-1,1.153491974E0,-1.150249958E0
4.070280743E2,-4.673748016E-1,-4.823101759E-1,-8.890550137E-1
4.075280743E2,9.506254196E-1,7.185246944E-1,-7.304995060E-1
4.080280743E2,-1.388454437E-1,-7.643380165E-1,-1.744329929E-1
4.085280743E2,-1.596765518E0,-6.975313425E-1,-1.269521475E0
4.090280743E2,9.478473663E-2,-6.127861738E-1,-1.740880013E-1
4.095280743E2,-5.612668991E-1,-4.854732752E-1,4.821708202E-1
4.100280743E2,2.661209106E-1,8.049046993E-2,3.466916084E-2
4.105280743E2,7.584571838E-1,5.771111250E-1,-3.620119095E-1
4.110280743E2,1.139497757E-1,4.008579254E-2,2.433078289E-1
4.115280743E2,1.973094940E-1,2.993999720E-1,-2.559933662E-1
4.120280743E2,2.965841293E-1,-1.122381687E-1,2.794094086E-1
4.125280743E2,2.843208313E-1,2.000467777E-1,4.220602512E-1
4.130280743E2,7.050027847E-1,3.826832771E-1,7.042789459E-1
4.135280743E2,-1.669340134E-1,2.846356630E-1,1.768414974E-1
4.140280743E2,-7.649650574E-1,-2.535150051E-1,-9.393692017E-5
4.145280743E2,-4.071903229E-2,2.800464630E-2,1.790665388E-1
4.150280743E2,2.353725433E-1,1.574833393E-1,3.139585257E-1
4.155280743E2,2.915544510E-1,-2.005735636E-1,5.017117262E-1
4.160280743E2,2.704811096E-2,-2.126336098E-2,-1.294319630E-1
4.165280743E2,4.817295074E-2,-2.210664749E-2,1.955664456E-1
4.170280743E2,-1.397562027E-1,-1.678848267E-2,-1.153614998E0
4.175280743E2,-7.450771332E-1,-1.899034977E-1,1.951129436E-1
4.180280743E2,1.205091476E-1,-1.345794201E-1,3.496805429E-1
4.185280743E2,1.138787270E0,6.651539803E-1,6.128511429E-1
4.190280743E2,5.333127975E-1,4.264736176E-1,3.388125896E-1
4.195280743E2,1.373710632E0,9.020953178E-1,1.404881477E-1
4.200280743E2,-4.680099487E-1,-7.361803055E-1,2.637459040E-1
4.205280743E2,7.624874115E-1,-1.825439930E-1,-7.588741779E-1
4.210280743E2,2.151641846E-1,-5.542540550E-2,-5.235259533E-1
4.215280743E2,-1.292326927E0,-7.637306452E-1,-4.719271660E-1
4.220280743E2,-6.863155365E-1,-4.343700409E-2,-8.934371471E-1
4.225280743E2,1.372394562E-1,-1.333711147E-1,-8.436667919E-1
4.230280743E2,-1.137233734E0,-4.901158810E-1,-6.424112320E-1
4.235280743E2,-7.630462646E-1,-5.577518940E-1,-3.686311245E-1
4.240280743E2,-1.206329346E0,-1.046473980E0,-4.679920673E-1
4.245280743E2,1.650189400E0,3.134813309E-1,2.459175587E-1
4.250280743E2,-1.030260086E0,-1.305871487E0,-1.622433662E-1
4.255280743E2,1.843023300E-1,-3.476355076E-1,-5.653524399E-2
4.260280743E2,-3.682203293E-1,-3.265430927E-1,-9.180712700E-2
4.265280743E2,-3.140563965E-1,7.375383377E-2,-1.098563671E-1
4.270280743E2,-2.226476669E-1,-3.204345703E-4,-1.671330929E-1
4.275280743E2,-1.342144012E-1,-3.189799786E-1,5.341858864E-1
4.280280743E2,-6.003475189E-1,6.354153156E-2,-8.145341873E-1
4.285280743E2,3.381261826E-1,1.589016914E-1,3.617143631E-2
4.290280743E2,-5.098972321E-1,-3.353914022E-1,-3.411903381E-1
4.295280743E2,6.936130524E-1,-2.822208405E-2,3.343296051E-2
4.300280743E2,1.333522797E-2,1.074099541E-2,4.745609760E-1
4.305280743E2,2.480068207E-1,-7.868468761E-2,1.876020432E-2
4.310280743E2,6.889438629E-1,4.930063486E-1,1.069359779E-1
4.315280743E2,5.865945816E-1,7.824611664E-2,5.542397499E-1
4.320280743E2,-6.295061111E-1,-3.935654163E-1,-3.541164398E-1
4.325280743E2,2.694082260E-1,3.440494537E-1,1.225662231E-1
4.330280743E2,-6.066012383E-1,-4.267313480E-1,-3.779220581E-1
4.335280743E2,4.763002396E-1,1.719955206E-1,3.842186928E-1
4.340280743E2,-3.388576508E-1,-2.188149691E-1,2.930164337E-2
4.345280743E2,-6.310205460E-1,-2.190432549E-1,-1.506414413E-1
4.350280743E2,2.255401611E-1,-7.917523384E-2,6.066131592E-2
4.355280743E2,1.286506653E-1,-1.403369904E-1,5.311770439E-1
4.360280743E2,2.001466751E-1,3.743314743E-2,3.785500526E-1
4.365280743E2,2.433032990E-1,3.321418762E-1,-7.490773201E-1
4.370280743E2,-4.861507416E-1,-3.095337152E-1,1.203160286E-1
4.375280743E2,1.151828766E-1,-3.728640079E-2,1.514043808E-1
4.380280743E2,1.898155212E-1,-2.452371120E-1,-4.625892639E-1
4.385280743E2,-9.188461304E-2,2.585780621E-2,-1.706504822E-2
4.390280743E2,-2.945079803E-1,-2.903008461E-2,6.256532669E-1
4.395280743E2,3.866662979E-1,2.181586027E-1,7.453544140E-1
4.400280743E2,9.065742493E-1,2.887467146E-1,-5.531525612E-2
4.405280743E2,-1.004429817E0,-5.557259321E-1,7.740473747E-2
4.410280743E2,2.569694519E-1,-1.264811754E-1,4.569816589E-2
4.415280743E2,5.075054169E-1,8.439362049E-2,-2.683954239E-1
4.420280743E2,-9.521551132E-1,-5.849166512E-1,-1.437878609E-2
4.425280743E2,3.763599396E-1,1.901267767E-1,9.609961510E-2
4.430280743E2,8.970928192E-1,-5.515730381E-2,-1.514835358E-1
4.435280743E2,-1.120508194E0,-1.225621819E0,3.205554485E-1
4.440280743E2,9.391317368E-1,3.076910973E-1,-3.339302540E-1
4.445280743E2,-1.937313080E-1,-2.645915747E-2,3.423109055E-1
4.450280743E2,-1.679791451E0,-1.179488659E0,4.734523296E-1
4.455280743E2,-2.515850067E-1,-3.901260495E-1,5.490303040E-3
4.460280743E2,6.841955185E-1,5.389829278E-1,-5.884671211E-2
4.465280743E2,4.276571274E-1,1.035779715E-1,4.601502419E-2
4.470280743E2,-7.238883972E-1,7.845973969E-1,-1.169114113E-1
4.475280743E2,8.077774048E-1,1.339671493E0,-2.321743965E-2
4.480280743E2,-1.156865120E0,-1.538717747E-2,1.371490955E-1
4.485280743E2,-3.126783371E-1,1.003443360E0,1.139993668E-1
4.490280743E2,1.764450073E-1,7.438786030E-1,-2.262830734E-3
4.495280743E2,-5.013828278E-1,7.280873060E-1,1.934425831E-1
4.500280743E2,-7.257738113E-1,-9.816157818E-2,1.367533207E-1
4.505280743E2,1.218373299E0,1.396270037E0,2.374148369E-2
4.510280743E2,-1.344911575E0,-5.429335833E-1,1.308729649E-1
4.515280743E2,1.349304199E0,1.283563495E0,-7.622051239E-2
4.520280743E2,-1.356876373E0,-6.237754822E-1,2.549190521E-1
4.525280743E2,1.253261566E0,1.093470454E0,-2.860665321E-2
4.530280743E2,-1.360535622E0,-6.290743351E-1,2.432174683E-1
4.535280743E2,1.060892105E0,9.332270622E-1,-3.135204315E-2
4.540280743E2,-1.417722702E0,-7.182738781E-1,2.900485992E-1
4.545280743E2,1.209761620E0,9.225702286E-1,2.667570114E-2
4.550280743E2,-1.363114357E0,-4.063960314E-1,3.035113811E-1
4.555280743E2,-4.420537949E-1,-3.478559256E-1,4.562520981E-2
4.560280743E2,1.462822914E0,9.611139297E-1,-3.751151562E-1
4.565280743E2,-1.295530319E0,-7.506011724E-1,2.237296104E-1
4.570280743E2,-8.781232834E-1,5.859133005E-1,-1.041867733E-1
4.575280743E2,-1.118826866E0,-3.613948822E-3,-5.229997635E-2
4.580280743E2,2.794666290E-1,1.256419182E0,-2.637920380E-1
4.585280743E2,-3.137016296E-2,1.060647488E0,-9.907627106E-2
4.590280743E2,3.910827637E-1,4.078028202E-1,4.378271103E-2
4.595280743E2,7.579412460E-1,1.000959873E-1,1.296389103E-1
4.600280743E2,-4.386167526E-1,-4.197835922E-3,-3.491711617E-2
4.605280743E2,6.563148499E-1,3.931155205E-1,-4.360675812E-2
4.610280743E2,8.848628998E-1,7.855713367E-1,-1.115405560E-1
4.615280743E2,-6.418800354E-2,-6.006176472E-1,1.330125332E-1
4.620280743E2,-7.178316116E-1,-2.657747269E-1,-3.032381535E-1
4.625280743E2,-7.143020630E-3,-1.709976196E-1,-3.039503098E-1
4.630280743E2,6.648597717E-1,3.652768135E-1,2.973093987E-1
4.635280743E2,-3.446063995E-1,-2.408115864E-1,2.243032455E-1
4.640280743E2,1.419162750E-1,2.433533669E-1,3.514671326E-2
4.645280743E2,-8.055467606E-1,-2.189993858E-2,1.289627552E-1
4.650280743E2,4.058256149E-1,-5.828173161E-1,3.715300560E-1
4.655280743E2,2.079868317E-2,3.305132389E-1,2.179684639E-1
4.660280743E2,3.629770279E-1,9.392189980E-2,2.412486076E-1
4.665280743E2,-5.611419678E-2,-5.476472378E-1,2.892611027E-1
4.670280743E2,-7.738676071E-1,-6.270849705E-1,2.343764305E-1
4.675280743E2,4.515266418E-2,9.043264389E-2,-2.672219276E-1
4.680280743E2,-1.368233681E0,-6.836018562E-1,-1.063440323E0
4.685280743E2,-1.436950684E0,-5.096216202E-1,-6.781222820E-1
4.690280743E2,7.378921509E-1,6.783540249E-1,3.080561161E-1
4.695280743E2,-5.433692932E-1,-4.190299511E-1,-8.320889473E-1
4.700280743E2,3.572854996E-1,4.089832306E-2,-3.470253944E-1
4.705280743E2,-5.967531204E-1,-3.679244518E-1,-5.627870560E-2
4.710280743E2,5.637664795E-1,4.382534027E-1,-6.739635468E-1
4.715280743E2,-1.590747833E-1,-2.904491425E-1,1.065762043E-1
4.720280743E2,6.443471909E-1,7.152938843E-2,2.027645111E-1
4.725280743E2,3.533716202E-1,-3.156733513E-2,-8.658695221E-1
4.730280743E2,3.307819366E-2,-2.011867762E-1,2.767145634E-1
4.735280743E2,-7.663688660E-1,-3.736468554E-1,2.188348770E-1
4.740280743E2,-9.310817719E-2,1.466088295E-1,4.346466064E-2
4.745280743E2,6.096944809E-1,1.017966270E-1,-7.021336555E-1
4.750280743E2,7.300119400E-1,4.412951469E-1,-1.229863167E-1
4.755280743E2,6.894865036E-1,5.553348064E-1,-6.201910973E-2
4.760280743E2,7.269649506E-1,1.478585005E-1,4.234204292E-1
4.765280743E2,-4.995574951E-1,-2.786034346E-1,2.140033245E-1
4.770280743E2,3.571004868E-1,8.557856083E-2,-1.493806839E-1
4.775280743E2,3.344449997E-1,2.990636826E-1,2.752265930E-1
4.780280743E2,3.983936310E-1,2.008248568E-1,-7.489085197E-2
4.785280743E2,5.663232803E-1,2.648879290E-1,-5.213968754E-1
4.790280743E2,-5.884456635E-1,-5.522772074E-1,1.311604977E-1
4.795280743E2,1.135921478E0,4.816666842E-1,8.905565739E-1
4.800280743E2,-4.091453552E-1,1.607191563E-2,9.172818661E-1
4.805280743E2,-5.654335022E-3,-3.200923204E-1,1.934707165E-1
4.810280743E2,8.745899200E-1,5.419597626E-1,2.606673241E-1
4.815280743E2,1.118388176E0,4.956604242E-1,3.750088215E-1
4.820280743E2,-4.125957489E-1,-3.452980518E-1,-1.049804688E-2
4.825280743E2,1.998980522E0,9.697668552E-1,1.330032349E-1
4.830280743E2,-9.316072464E-1,-2.756774426E-1,-2.921233177E-1
4.835280743E2,-1.201381683E-1,-5.898272991E-2,-4.705719948E-1
4.840280743E2,-4.506959915E-1,1.453661919E-2,-3.285410404E-1
4.845280743E2,1.175566673E0,9.214545488E-1,-3.693075180E-1
4.850280743E2,-5.320510864E-1,-4.504921436E-1,-4.742002487E-1
4.855280743E2,-2.302818298E-1,4.104185104E-2,-1.349368095E-1
4.860280743E2,1.832599640E-1,-1.521002054E-1,-6.077337265E-2
4.865280743E2,3.268346786E-1,2.728680372E-1,-1.755709648E-1
4.870280743E2,-7.995538712E-1,-4.544599056E-1,-2.774729729E-1
4.875280743E2,1.217735291E0,6.621937752E-1,2.879242897E-1
4.880280743E2,4.364376068E-1,8.810043335E-3,1.024856567E-1
4.885280743E2,-7.490515709E-1,-9.979574680E-1,9.331843853E-1
4.890280743E2,2.027339935E-1,-5.035120249E-1,6.887764931E-1
4.895280743E2,1.407904625E0,7.129101753E-1,7.621283531E-1
4.900280743E2,1.224910736E0,-6.002664566E-3,1.303620338E-1
4.905280743E2,1.077884674E0,1.732525826E-1,3.855767250E-1
4.910280743E2,1.474064827E0,9.668409824E-1,5.567963123E-1
4.915280743E2,-5.636787415E-2,-1.059822917E0,4.971513748E-1
4.920280743E2,3.958644867E-1,-1.140508771E0,1.191845417E0
4.925280743E2,1.269006729E-1,5.772778988E-1,4.018514156E-1
4.930280743E2,5.547695160E-1,5.133626461E-1,4.560508728E-1
4.935280743E2,-2.050838470E-1,7.347750664E-2,1.298067570E-1
4.940280743E2,-5.337629318E-1,-7.079896927E-1,8.467888832E-2
4.945280743E2,6.056423187E-1,3.275249004E-1,-9.108114243E-2
4.950280743E2,-3.637714386E-1,1.065444946E-1,2.452843189E-1
4.955280743E2,8.154459000E-1,4.933731556E-1,-1.765391827E-1
4.960280743E2,-8.468713760E-1,-3.242859840E-1,-2.493467331E-1
4.965280743E2,5.477828979E-1,1.958415508E-1,4.368829727E-2
4.970280743E2,-4.360151291E-1,-2.184810638E-1,1.442894936E-1
4.975280743E2,-1.466083527E-1,3.180472851E-1,2.805709839E-3
4.980280743E2,-1.294088364E-1,-2.042973042E-1,-4.975841045E-1
4.985280743E2,-1.003285408E0,-5.265765190E-1,3.342339993E-1
4.990280743E2,-2.148342133E-1,-4.362641573E-1,2.533135414E-1
4.995280743E2,-4.920864105E-2,2.325925827E-1,6.238055229E-2
5.000280743E2,4.732713699E-1,2.440433502E-1,-9.358739853E-2
5.005280743E2,-6.574850082E-1,-7.368814945E-2,-4.542970657E-2
5.010280743E2,7.740755081E-1,2.881580591E-1,2.586612701E-1
5.015280743E2,-3.094406128E-1,1.794064045E-1,-4.486095905E-1
5.020280743E2,-1.164150238E-1,6.796200275E-1,-5.352020264E-3
5.025280743E2,8.156566620E-1,6.576154232E-1,3.582115173E-1
5.030280743E2,-3.463907242E-1,2.171597481E-1,5.431520939E-1
5.035280743E2,-9.841747284E-1,-3.185188770E-1,6.707887650E-1
5.040280743E2,7.887563705E-1,6.061842442E-1,3.823614120E-1
5.045280743E2,3.324108124E-1,7.205629349E-2,3.017332554E-1
5.050280743E2,3.792905807E-1,2.124390602E-1,5.119454861E-1
5.055280743E2,8.397102356E-1,4.662661552E-1,4.321532249E-1
5.060280743E2,6.612634659E-1,4.569456577E-1,1.650167704E-1
5.065280743E2,-2.019062042E-1,-1.903274059E-1,6.748259068E-2
5.070280743E2,4.672241211E-1,1.265444756E-1,3.698992729E-2
5.075280743E2,-1.016437531E0,-8.712879419E-1,-1.741411686E-1
5.080280743E2,6.578302383E-1,-1.807758808E-1,2.640421391E-1
5.085280743E2,-3.552732468E-1,-6.885474920E-1,1.019682884E-1
5.090280743E2,6.594514847E-1,-4.546787739E-1,3.272891045E-2
5.095280743E2,2.257146835E-1,-9.954142570E-1,-5.649197102E-1
5.100280743E2,-7.254858017E-1,-1.887358546E0,-4.803674221E-1
5.105280743E2,1.256637573E0,-3.599107265E-1,-6.335994005E-1
5.110280743E2,-7.184104919E-1,-1.179026365E0,-5.139399767E-1
5.115280743E2,5.677480698E-1,-7.178344727E-1,-7.624483109E-2
5.120280743E2,-5.413627625E-2,-9.136680365E-1,-5.331312418E-1
5.125280743E2,-1.413831711E0,-1.826472163E0,-2.337915897E-1
5.130280743E2,-3.933343887E-1,-1.010237455E0,-4.514713287E-1
5.135280743E2,4.584159851E-1,-1.654712558E-1,-6.703710556E-2
5.140280743E2,4.778060913E-1,9.223175049E-1,-8.836040497E-1
5.145280743E2,-1.344779015E0,1.509475708E-1,-3.622419834E-1
5.150280743E2,7.777051926E-1,1.507721543E0,-2.853870392E-1
5.155280743E2,-2.245893478E-1,6.410018206E-1,-2.608466148E-1
5.160280743E2,-6.317043304E-2,1.167727232E0,-5.310058594E-1
5.165280743E2,-2.036685944E-1,3.618713617E-1,1.958103180E-1
5.170280743E2,-1.646826744E0,-7.388629913E-1,3.669011593E-1
5.175280743E2,3.221921921E-1,4.399615526E-1,3.704128265E-1
5.180280743E2,-1.864328384E-1,-6.469690800E-2,-5.779972076E-1
5.185280743E2,2.155361176E-1,2.014756203E-1,6.954202652E-1
5.190280743E2,1.945972443E-2,-6.130480766E-2,-4.329659939E-1
5.195280743E2,3.922891617E-1,2.888648510E-1,8.438694477E-1
5.200280743E2,-2.127723694E-1,-2.327072620E-1,-3.539643288E-1
5.205280743E2,4.157371521E-1,2.120513916E-1,9.008886814E-1
5.210280743E2,-5.869293213E-2,-1.290419102E-1,-3.221986294E-1
5.215280743E2,2.992706299E-1,1.666688919E-1,1.100829840E0
5.220280743E2,-4.365253448E-2,-1.205669641E-1,-5.139772892E-1
5.225280743E2,3.648471832E-1,2.943544388E-1,1.058761835E0
5.230280743E2,-9.333038330E-2,-1.326031685E-1,-3.588442802E-1
5.235280743E2,3.810653687E-1,8.852005005E-2,1.053758621E0
5.240280743E2,-4.335498810E-2,-1.255075932E-1,-2.648894787E-1
5.245280743E2,3.749904633E-1,2.368171215E-1,8.337202072E-1
5.250280743E2,-2.656478882E-1,-4.441709518E-1,-5.639183521E-1
5.255280743E2,4.391717911E-1,7.113561630E-1,7.710113525E-1
5.260280743E2,5.395126343E-2,-2.243268490E-1,2.843818665E-1
5.265280743E2,-4.993619919E-1,-1.124050617E-1,-1.075774670E0
5.270280743E2,1.129035950E-1,8.284904957E-1,-7.866120338E-2
5.275280743E2,-6.155300140E-2,-2.849977016E-1,7.904672623E-2
5.280280743E2,-4.915599823E-1,-3.279256821E-2,-3.643159866E-1
5.285280743E2,8.462409973E-1,5.583653450E-1,-8.099818230E-2
5.290280743E2,1.551103592E-1,-5.976653099E-2,8.423423767E-2
5.295280743E2,8.083724976E-2,1.656789780E-1,3.117990494E-2
5.300280743E2,-8.636569977E-2,3.289294243E-2,-1.003479958E-2
5.305280743E2,2.021789551E-3,2.126209736E-1,5.253477097E-1
5.310280743E2,2.122669220E-1,1.582417488E-1,-2.822260857E-1
5.315280743E2,-8.308296204E-1,9.742870331E-1,-1.569857597E-1
5.320280743E2,2.216901779E-1,1.321165562E-1,-2.357672453E-1
5.325280743E2,-6.847572327E-2,-1.378939152E-1,-3.776359558E-1
5.330280743E2,1.999359131E-1,3.540515900E-3,-2.628016472E-1
5.335280743E2,2.575273514E-1,4.282102585E-1,8.468278646E-1
5.340280743E2,3.672342300E-1,2.546403408E-1,3.749403954E-1
5.345280743E2,-1.819438934E-1,-3.482334614E-1,8.676815033E-2
5.350280743E2,1.460647583E-1,1.461985111E-1,-4.206385612E-1
5.355280743E2,-6.200742722E-1,1.257550716E-1,-4.324245453E-2
5.360280743E2,5.094528198E-1,-1.040046215E-1,-3.378069401E-1
5.365280743E2,-4.774570465E-1,-5.941145420E-1,-8.366318941E-1
5.370280743E2,-7.393426895E-1,-5.831735134E-1,-4.581060410E-1
5.375280743E2,-4.647645950E-1,2.256011963E-1,-3.152604103E-1
5.380280743E2,-1.298761368E-1,-1.366676092E-1,-1.165039539E-1
5.385280743E2,-9.020090103E-1,-8.038681746E-1,-3.031661510E-1
5.390280743E2,4.079799652E-1,-2.094457150E-1,2.796458006E-1
5.395280743E2,-3.122291565E-1,-2.675014734E-1,7.783091068E-2
5.400280743E2,8.403778076E-2,-2.639770508E-3,3.925552368E-1
5.405280743E2,-1.198034286E-1,4.705724716E-1,8.165502548E-2
5.410280743E2,-2.300167084E-2,-2.633678913E-2,6.815685034E-1
5.415280743E2,2.837066650E-1,-1.068406105E-1,4.020929337E-2
5.420280743E2,-5.027656555E-1,-2.106395960E-1,-1.628491879E-1
5.425280743E2,1.565561295E-1,-1.954345703E-1,5.515129566E-1
5.430280743E2,1.344089508E-1,2.838556767E-1,-3.230264187E-1
5.435280743E2,-1.091928482E-1,-5.848639011E-1,1.142676830E0
5.440280743E2,3.964004517E-1,3.171833754E-1,8.598780632E-1
5.445280743E2,7.640457153E-2,1.488885880E-1,-5.546450615E-2
5.450280743E2,-3.174943924E-1,-3.632363677E-1,-3.836584091E-1
5.455280743E2,1.927537918E-1,9.299673438E-1,1.388521552E0
5.460280743E2,4.577360153E-1,-2.425382733E-1,-5.799155235E-1
5.465280743E2,-3.060522079E-1,-1.680645347E-1,-2.182918191E-1
5.470280743E2,1.038551331E-1,-2.973926067E-2,1.457273960E-3
5.475280743E2,-9.239768982E-2,2.033068538E-1,1.096562147E-1
5.480280743E2,-1.778726578E-1,3.995943069E-2,-3.624719977E-1
5.485280743E2,1.255397797E-1,2.617104053E-1,5.028088093E-1
5.490280743E2,-9.623527527E-3,2.894793749E-1,1.911739111E-1
5.495280743E2,1.836185455E-1,-4.196234643E-1,-2.180159092E-2
5.500280743E2,-2.081947327E-1,-5.651928782E-1,-8.565148115E-1
5.505280743E2,-5.509567261E-1,1.420374215E-1,-2.324046493E-1
5.510280743E2,7.316398621E-2,6.216423512E-1,1.738026738E-1
5.515280743E2,9.186458588E-2,2.005499005E-1,9.407567978E-2
5.520280743E2,1.896181107E-1,-9.737360477E-2,-3.908657730E-1
5.525280743E2,-1.834020615E-1,-5.988168716E-2,-5.869187117E-1
5.530280743E2,6.947612762E-2,-1.658173800E-1,-4.980883598E-1
5.535280743E2,2.668781281E-1,5.030590296E-1,8.099429607E-1
5.540280743E2,6.332588196E-2,-2.733977735E-1,-2.300735712E-1
5.545280743E2,3.039216995E-1,7.555038333E-1,7.728759646E-1
5.550280743E2,-6.544113159E-1,-5.203709602E-1,-6.004645228E-1
5.555280743E2,2.119274139E-1,4.087334871E-1,3.089877069E-1
5.560280743E2,3.369235992E-1,4.895793498E-1,2.623151243E-1
5.565280743E2,-4.382019043E-1,3.270697296E-1,-1.943281889E-1
5.570280743E2,8.757400513E-2,-3.347337246E-2,-1.689734757E-1
5.575280743E2,2.444686890E-1,1.262845397E-1,-5.256457329E-1
5.580280743E2,-1.580076218E-1,1.753695011E-1,2.349565029E-1
5.585280743E2,-4.561328888E-1,-5.050116777E-2,5.296744108E-1
5.590280743E2,3.114595413E-1,1.446914673E-1,1.187468469E-1
5.595280743E2,-5.725755692E-1,-1.773381233E-1,-1.935483217E-1
5.600280743E2,3.397846222E-2,5.167533159E-1,3.184747696E-2
5.605280743E2,-5.912933350E-1,4.423576593E-1,3.596740961E-1
5.610280743E2,5.539894104E-2,-1.488282681E-1,2.190400101E-2
5.615280743E2,8.751869202E-2,-1.071707606E-1,-2.607001364E-2
5.620280743E2,-4.168930054E-1,-7.961174250E-1,2.001137733E-1
5.625280743E2,4.676475525E-1,-3.625020981E-1,1.502024233E-1
5.630280743E2,-1.639223099E-1,-1.415484548E-1,3.480442166E-1
5.635280743E2,1.400804520E-1,-5.873098224E-2,-1.352664530E-1
5.640280743E2,-6.400108337E-2,-3.825714439E-2,3.738406003E-1
5.645280743E2,1.035785675E-1,-3.477815986E-1,1.129826307E-1
5.650280743E2,8.859634399E-3,1.068446785E-1,2.375817895E-1
5.655280743E2,-4.691171646E-1,1.509974450E-1,2.696036100E-1
5.660280743E2,2.603340149E-2,4.886959493E-1,-1.779238582E-1
5.665280743E2,8.953475952E-2,3.797076941E-1,2.740710378E-1
5.670280743E2,2.461309433E-1,2.789935768E-1,2.574281693E-1
5.675280743E2,6.031799316E-2,8.991485834E-2,-4.189586639E-2
5.680280743E2,-2.283334732E-1,3.057003021E-2,-1.940860748E-1
5.685280743E2,3.683471680E-1,-1.839029789E-2,-1.295089722E-1
5.690280743E2,3.034114838E-2,4.434323311E-2,-1.715509892E-1
5.695280743E2,1.206070900E0,-6.486892700E-3,-5.506668091E-1
5.700280743E2,-1.255998611E-1,-2.466225624E-2,-3.278336525E-1
5.705280743E2,4.320521355E-1,-2.045106888E-1,-1.371116161E0
5.710280743E2,2.578608990E-1,-2.109384537E-1,-1.057865143E0
5.715280743E2,1.218542099E0,4.438462257E-1,-4.181337357E-2
5.720280743E2,-1.732349396E-2,-1.735768318E-1,-1.983566284E-1
5.725280743E2,1.165761948E0,4.894948006E-1,-5.105972290E-2
5.730280743E2,6.087317467E-1,5.179314613E-1,9.117336273E-1
5.735280743E2,-2.654619217E-1,-3.282904625E-1,-3.106017113E-1
5.740280743E2,2.684326172E-1,-6.010141373E-1,6.133360863E-1
5.745280743E2,-7.798652649E-1,-5.862388611E-1,4.066286087E-1
5.750280743E2,-4.877510071E-1,-3.951966763E-1,-3.507156372E-1
5.755280743E2,-1.871016026E0,-1.320362329E0,7.227530479E-1
5.760280743E2,-6.136283875E-1,-5.017632842E-1,5.187344551E-1
5.765280743E2,-4.126482010E-1,-4.108162522E-1,2.098541260E-1
5.770280743E2,-1.653426170E0,-7.997216582E-1,-7.104291916E-1
5.775280743E2,-5.404167175E-1,-3.099168539E-1,7.969987392E-1
5.780280743E2,-2.740926743E-1,-4.014992714E-1,3.643296957E-1
5.785280743E2,1.840114594E-2,-3.314168453E-1,4.924573898E-1
5.790280743E2,2.113733292E-1,-2.568051815E-1,-2.954369783E-1
5.795280743E2,-3.535690308E-1,1.110281944E-1,1.069132090E-1
5.800280743E2,1.012601852E-1,-1.079328060E-1,4.022157192E-1
5.805280743E2,1.437854767E-2,-7.779598236E-4,-2.156906128E-1
5.810280743E2,5.057582855E-1,8.745324612E-2,-5.323925018E-1
5.815280743E2,1.192941666E-1,-3.926318884E-1,1.368951797E-2
5.820280743E2,-1.793079376E-1,3.625059128E-2,8.122515678E-2
5.825280743E2,1.488618851E-1,-1.122610569E-1,-1.755764484E-1
5.830280743E2,6.629180908E-2,6.680083275E-2,2.150130272E-1
5.835280743E2,1.076908112E-1,5.055580139E-1,3.953253031E-1
5.840280743E2,2.980232239E-1,2.455251217E-1,2.785472870E-1
5.845280743E2,-1.888885498E-1,2.065157890E-2,-2.751996517E-1
5.850280743E2,-7.557678223E-2,-1.653976440E-1,2.816473246E-1
5.855280743E2,6.856918335E-3,3.285839558E-1,-8.917808533E-3
5.860280743E2,1.938228607E-1,-3.266699314E-1,-1.247833967E-1
5.865280743E2,1.458320618E-1,3.398780823E-1,-1.326960325E-1
5.870280743E2,4.326534271E-2,-2.738575935E-1,5.245825052E-1
5.875280743E2,1.917247772E-1,1.637489796E-1,-6.071181893E-1
5.880280743E2,-1.227779388E-1,2.776069641E-1,2.289047241E-1
5.885280743E2,1.540470123E-2,-4.567787647E-1,2.027201653E-2
5.890280743E2,8.097362518E-2,-5.145263672E-2,-2.217231989E-1
5.895280743E2,-2.031397343E0,-4.914057255E-2,-1.238667250E0
5.900280743E2,4.691276550E-1,6.390464306E-2,1.602453232E0
5.905280743E2,-2.230434418E-1,-9.831404686E-2,3.046977520E-1
5.910280743E2,2.694511414E-1,2.667513490E-1,2.106595039E-1
5.915280743E2,-9.798431396E-2,2.865023613E-1,4.637627602E-1
5.920280743E2,-2.872953415E-1,-2.865796089E-1,-3.532171249E-1
5.925280743E2,-9.148225784E-1,-4.369640350E-1,3.424736261E-1
5.930280743E2,5.170087814E-1,-4.891252518E-2,-1.027516127E-1
5.935280743E2,2.035522461E-2,4.059967995E-1,-1.335669756E-1
5.940280743E2,-3.261566162E-2,2.645213604E-1,1.660571992E-1
5.945280743E2,-8.715629578E-2,2.891447544E-1,-9.591713548E-2
5.950280743E2,-1.434135437E-2,2.926456928E-1,-3.365315199E-1
5.955280743E2,3.598699570E-1,2.929129601E-1,-4.598208070E-1
5.960280743E2,3.139820099E-1,2.381658554E-2,3.115250468E-1
5.965280743E2,-7.042150497E-1,9.033155441E-2,-1.314712912E-1
5.970280743E2,1.734809875E-1,-4.176878929E-2,-2.111567706E-1
5.975280743E2,2.268438339E-1,2.217427492E-1,1.798759699E-1
5.980280743E2,3.140344620E-1,-5.868887901E-2,-4.787612557E-1
5.985280743E2,4.625778198E-1,-3.462294340E-1,4.301088452E-1
5.990280743E2,-2.844133377E-1,5.064936876E-1,3.747805953E-2
5.995280743E2,4.681053162E-1,-1.392688751E-1,7.639634609E-1
6.000280743E2,-2.089529037E-1,-1.659702063E-1,6.128512025E-1
6.005280743E2,-1.600456238E-1,-2.708283663E-1,5.085901022E-1
6.010280743E2,-6.990432739E-4,-7.809758186E-3,2.328203917E-1
6.015280743E2,4.926633835E-1,-1.958056688E-1,6.127493382E-1
6.020280743E2,1.267147064E-1,-2.970835567E-1,9.436806440E-1
6.025280743E2,8.703718185E-1,-3.154012561E-1,1.265374660E0
6.030280743E2,1.405010223E-1,-2.316919565E-1,8.238174915E-1
6.035280743E2,-1.426124573E-2,-4.120581746E-1,-2.446490973E-1
6.040280743E2,-7.828712463E-2,-2.234624624E-1,-4.144806266E-1
6.045280743E2,4.503431320E-1,-4.674611092E-1,8.458070755E-1
6.050280743E2,1.103029251E-1,-5.000443459E-1,-2.858235836E-1
6.055280743E2,2.333908081E-1,1.104488373E-1,-3.504868746E-1
6.060280743E2,8.124637604E-1,-4.241265059E-1,1.051458716E-1
6.065280743E2,4.135608673E-2,-1.767542362E-1,-4.405090809E-1
6.070280743E2,-3.241243362E-1,9.331583977E-2,-8.192062378E-2
6.075280743E2,-3.395824432E-1,-1.216101646E-2,5.123167038E-1
6.080280743E2,-5.393848419E-1,1.164587736E-1,-4.992403984E-1
6.085280743E2,4.798688889E-1,-6.641817093E-2,-4.009315968E-1
6.090280743E2,6.831588745E-1,-5.113292933E-1,-9.688496590E-3
6.095280743E2,8.040580750E-1,-4.116100073E-1,4.068366289E-1
6.100280743E2,-2.682113647E-2,-2.301335335E-2,-9.308947325E-1
6.105280743E2,3.213682175E-1,-1.688655615E-1,-1.957631111E-2
6.110280743E2,-3.917531967E-1,-2.238115072E-1,-2.689783573E-1
6.115280743E2,3.661346436E-1,-4.572361708E-1,-4.034676552E-1
6.120280743E2,3.338317871E-1,-3.777877092E-1,-2.280399799E-1
6.125280743E2,3.372230530E-1,-3.950691223E-2,2.741950750E-1
6.130280743E2,1.822805405E-1,8.148777485E-2,-4.519629478E-2
6.135280743E2,-2.001485825E-1,-5.664229393E-3,9.429121017E-2
6.140280743E2,1.511278152E-1,-1.379913092E-1,2.750408649E-1
6.145280743E2,-6.521911621E-1,-4.682449102E-1,1.713426113E-1
6.150280743E2,-5.852270126E-1,-3.763557673E-1,-5.999763012E-1
6.155280743E2,-3.842468262E-1,-8.642148972E-2,-1.107727885E0
6.160280743E2,2.505302429E-2,-2.911078930E-2,-2.619789839E-1
6.165280743E2,3.548841476E-1,4.926121235E-2,-1.640019417E-1
6.170280743E2,-8.256549835E-1,-1.552625895E-1,-2.934110165E-2
6.175280743E2,-3.111028671E-1,6.013715267E-1,-2.265167236E-1
6.180280743E2,-7.260322571E-3,1.100649834E-1,3.967491984E-1
6.185280743E2,1.039934158E-1,-4.979431629E-2,-1.609476805E-1
6.190280743E2,-3.938808441E-1,-1.204513311E-1,-8.635294437E-2
6.195280743E2,-4.158496857E-1,-5.979573727E-2,-8.932751417E-1
6.200280743E2,2.500343323E-1,-9.573411942E-2,4.008689523E-1
6.205280743E2,-9.473037720E-2,3.207097054E-1,-1.436983347E-1
6.210280743E2,5.120029449E-1,1.816265583E-1,3.839606047E-1
6.215280743E2,-2.214002609E-1,3.468779325E-1,-3.839563131E-1
6.220280743E2,-4.050645828E-1,5.988526344E-2,-1.323466301E-1
6.225280743E2,-2.449779510E-1,3.764772415E-1,2.455139160E-2
6.230280743E2,-1.569433212E-1,-5.361835957E-1,2.982898951E-1
6.235280743E2,7.022514343E-1,3.084349632E-2,-2.512342930E-1
6.240280743E2,-6.402854919E-1,2.546300888E-1,-2.498919964E-1
6.245280743E2,-9.703416824E-1,-3.157818317E-1,-7.473753691E-1
6.250280743E2,-4.811973572E-1,4.488569498E-1,-1.637658119E0
6.255280743E2,-3.426427841E-1,3.669571877E-1,-1.452829838E-1
6.260280743E2,1.547040939E-1,2.858202457E-1,1.135270596E-1
6.265280743E2,-2.663421631E-2,1.545408964E-1,8.023469448E-1
6.270280743E2,6.289749146E-1,2.614245415E-1,4.163920879E-2
6.275280743E2,-8.249282837E-1,-4.394181967E-1,-1.161431074E-1
6.280280743E2,9.496717453E-1,2.569611669E-1,5.987784266E-1
6.285280743E2,-3.532857895E-1,1.420120597E-1,-3.898594975E-1
6.290280743E2,-6.797161102E-1,-3.230535984E-2,-5.798351765E-1
6.295280743E2,4.665660858E-1,2.696441412E-1,1.412484646E-1
6.300280743E2,5.000886917E-1,-6.405920982E-1,8.115482330E-1
6.305280743E2,-7.552423477E-1,1.194905639E-1,-9.409888983E-1
6.310280743E2,-4.731760025E-1,2.651677728E-1,-1.173475146E0
6.315280743E2,-2.022743225E-3,3.961896896E-1,-5.773410797E-1
6.320280743E2,-1.011768341E0,-6.097118258E-1,-2.446422577E-1
6.325280743E2,-1.091260910E-1,-7.576692104E-2,1.776887178E-1
6.330280743E2,5.947561264E-1,1.644963622E-1,1.559126019E0
6.335280743E2,9.839715958E-1,-4.522233009E-1,-1.571340561E-1
6.340280743E2,-3.881826401E-1,-2.277922630E-2,-4.981367588E-1
6.345280743E2,-9.262800217E-1,-2.499753237E-2,-2.522667170E0
6.350280743E2,3.562688828E-1,-6.131389141E-1,6.260893941E-1
6.355280743E2,5.047025681E-1,1.121178865E-1,-3.862092495E-1
6.360280743E2,-5.542850494E-1,-2.021154165E-1,-3.151905537E-2
6.365280743E2,1.928653717E-1,-1.113960743E-1,-4.267954826E-2
6.370280743E2,-3.037061691E-1,1.865056753E-1,-5.076795816E-1
6.375280743E2,3.645219803E-1,2.791035175E-2,9.470345974E-1
6.380280743E2,-2.528486252E-1,9.291017056E-2,2.522602081E-1
6.385280743E2,6.172552109E-1,-7.653236389E-3,5.517580509E-1
6.390280743E2,6.655292511E-1,-5.263733864E-2,5.947800875E-1
6.395280743E2,-4.965867996E-1,-1.173822880E-1,-3.657296896E-1
6.400280743E2,4.513397217E-1,-1.101750135E-1,3.627369404E-1
6.405280743E2,-7.309532166E-2,-1.072050333E-1,-2.915148735E-1
6.410280743E2,-7.480258942E-1,6.818246841E-2,-2.862107754E-2
6.415280743E2,2.547302246E-1,-4.130424261E-1,-4.198427200E-1
6.420280743E2,4.730892181E-2,-1.350144148E-1,-8.621410131E-1
6.425280743E2,-4.587812424E-1,-2.169764042E-2,8.566522598E-2
6.430280743E2,8.617563248E-1,-4.756317139E-1,3.971859217E-1
6.435280743E2,-3.497962952E-1,2.742305994E-1,-1.523947716E-2
6.440280743E2,-4.287910461E-1,-2.639075518E-1,-8.523194790E-1
6.445280743E2,-8.535861969E-2,-3.146166801E-1,1.533273458E-1
6.450280743E2,5.431175232E-3,1.922696829E-1,-3.138053417E-2
6.455280743E2,3.558778763E-1,2.679857016E-1,2.447807789E-1
6.460280743E2,6.327810287E-1,-6.795918941E-2,3.111448288E-1
6.465280743E2,-4.779014587E-1,-2.631807327E-2,-7.227647305E-1
6.470280743E2,-3.566732407E-1,1.154627800E-1,1.418752670E-1
6.475280743E2,1.831264496E-1,-3.658473492E-1,3.772737980E-1
6.480280743E2,1.607770920E-1,-3.767290115E-1,-5.419561863E-1
6.485280743E2,-1.329040527E-1,-1.982337236E-1,9.808421135E-2
6.490280743E2,-2.683010101E-1,-8.422197104E-1,2.840374708E-1
6.495280743E2,-6.520338058E-1,-1.797835827E-1,3.922681808E-1
6.500280743E2,1.640110016E-1,6.927680969E-2,5.248864889E-1
6.505280743E2,-3.020029068E-1,3.512162566E-1,-8.963751793E-2
6.510280743E2,1.402940750E-1,2.241182327E-1,-2.991143465E-1
6.515280743E2,3.181753159E-1,-1.129566431E-1,6.775645018E-1
6.520280743E2,3.407545090E-1,2.371413708E-1,-2.231941223E-1
6.525280743E2,1.077491760E0,8.597970009E-3,4.048194885E-1
6.530280743E2,-3.633203506E-1,1.721947193E-1,7.989356518E-1
6.535280743E2,-3.341054916E-1,1.619262099E-1,-2.194480896E-1
6.540280743E2,-1.065908432E0,3.524392843E-1,-8.905625343E-2
6.545280743E2,1.596991539E0,-4.254256487E-1,1.113988638E0
6.550280743E2,3.213644028E-1,-6.565093994E-3,1.810058355E-1
6.555280743E2,-7.943897247E-1,-4.119651318E-1,-8.814411163E-1
6.560280743E2,-8.696622849E-1,4.059982300E-2,-7.737251520E-1
6.565280743E2,-1.492641449E0,5.964279175E-1,-2.516679764E-1
6.570280743E2,-6.234312057E-1,4.569012523E-1,-1.694267988E-1
6.575280743E2,-4.173908234E-1,2.476609349E-1,-8.348275423E-1
6.580280743E2,-6.782569885E-1,-6.639480591E-3,-7.582229376E-1
6.585280743E2,5.188322067E-1,-5.656737089E-1,6.773262024E-1
6.590280743E2,-6.436157227E-2,-1.920104027E-1,2.334992886E-1
6.595280743E2,-9.419288635E-1,4.247208834E-1,9.647948742E-1
6.600280743E2,-3.215599060E-2,4.210786819E-1,1.169191599E-1
6.605280743E2,-2.003297806E-1,-2.289952040E-1,-5.311956406E-1
6.610280743E2,5.998935699E-1,-2.993388176E-1,-1.320147514E-2
6.615280743E2,-3.294029236E-1,-5.575060844E-2,-1.699063540E0
6.620280743E2,6.133680344E-1,-5.647388697E-1,9.571818113E-1
6.625280743E2,-1.027010918E0,-9.841454029E-2,3.265733719E-1
6.630280743E2,7.076444626E-1,4.296302795E-3,-1.408457756E-2
6.635280743E2,-1.148992538E0,-4.157003164E-1,-7.613992691E-1
6.640280743E2,4.835815430E-1,-1.409256458E-1,-1.062717438E-1
6.645280743E2,2.452669144E0,-5.084705353E-1,2.712678313E-1
6.650280743E2,-8.073129654E-1,-3.068462610E-1,-1.091642380E-1
6.655280743E2,-4.964361191E-1,-7.202903032E-1,8.645328283E-1
6.660280743E2,-6.812744141E-1,-6.137591600E-1,-6.105138063E-1
6.665280743E2,-3.418617249E-1,-2.567827702E-1,4.526845217E-1
6.670280743E2,-3.310327530E-1,-1.564947367E-1,-5.805462599E-1
6.675280743E2,2.801017761E-1,-1.165913343E-1,1.670801789E-1
6.680280743E2,-5.665912628E-1,2.411022186E-1,8.702743053E-2
6.685280743E2,2.278251648E-1,2.406224012E-1,-7.975696027E-2
6.690280743E2,2.653331757E-1,-4.838553667E-1,-7.430145144E-2
6.695280743E2,-2.721538544E-1,2.453267574E-1,-1.355125666E0
6.700280743E2,4.819450378E-1,-2.838034630E-1,8.860816956E-1
6.705280743E2,-9.586677551E-1,6.554430723E-1,-1.154841185E0
6.710280743E2,5.570201874E-1,-5.259181261E-1,9.929254055E-1
6.715280743E2,2.846269608E-1,2.240139246E-1,-8.241117001E-2
6.720280743E2,5.564241409E-1,-1.432241201E-1,2.260564566E-1
6.725280743E2,-1.174387932E0,-7.778775692E-2,-1.834627986E-1
6.730280743E2,5.927629471E-1,3.111095428E-1,3.845950365E-1
6.735280743E2,-4.107007980E-1,-3.483748436E-1,2.968881130E-1
6.740280743E2,2.700366974E-1,-3.326647282E-1,7.438230515E-1
6.745280743E2,-6.413230896E-1,2.377749681E-1,-2.232268453E-1
6.750280743E2,2.214555740E-1,-2.878232002E-1,-2.465385199E-2
6.755280743E2,-7.270908356E-2,5.574036837E-1,-6.045531034E-1
6.760280743E2,-5.887031555E-1,-3.605241776E-1,-1.555963159E-1
6.765280743E2,4.766025543E-1,1.414666176E-1,9.727919102E-1
6.770280743E2,2.124233246E-1,4.204766750E-1,-3.013039231E-1
6.775280743E2,7.265186310E-1,-4.376984835E-1,1.162283182E0
6.780280743E2,-1.035058022E0,5.802859664E-1,-1.256497025E0
6.785280743E2,5.615825653E-1,-7.136578560E-1,8.689888716E-1
6.790280743E2,-8.162689209E-1,6.320716739E-1,-1.047861099E0
6.795280743E2,3.104400635E-2,-4.934996367E-1,8.215605617E-1
6.800280743E2,9.114170074E-2,1.177374125E-1,6.330740452E-2
6.805280743E2,8.957490921E-1,1.455339193E-1,4.916858673E-1
6.810280743E2,-1.533336639E0,-4.688465595E-2,-3.022786379E-1
6.815280743E2,-1.157379150E-2,-2.652835846E-2,-5.249035358E-2
6.820280743E2,2.791433334E-1,-1.709202528E-1,-5.895651579E-1
6.825280743E2,5.531597137E-1,-3.844466209E-1,-8.175898194E-1
6.830280743E2,-4.901189804E-1,2.027384043E-1,6.480423212E-1
6.835280743E2,-6.112632751E-1,4.414743185E-1,-3.183199167E-1
6.840280743E2,2.981557846E-1,-2.864857912E-1,1.242628217E0
6.845280743E2,-7.962474823E-1,-3.294992447E-2,-1.166707397E0
6.850280743E2,8.416252136E-1,-7.483041286E-2,5.066990852E-3
6.855280743E2,-3.179998398E-1,-1.973400116E-1,-6.094998717E-1
6.860280743E2,3.094987869E-1,-1.545391083E-1,6.529877186E-1
6.865280743E2,-4.637365341E-1,5.681355000E-1,-1.734238863E-2
6.870280743E2,1.866655350E-1,-5.321614742E-1,1.510536909E0
6.875280743E2,4.929466248E-1,2.621189356E-1,1.508169174E-1
6.880280743E2,1.147346497E-1,-3.479435444E-1,8.865557909E-1
6.885280743E2,4.903287888E-1,3.913421631E-1,4.179033935E-1
6.890280743E2,5.084514618E-2,-1.101557016E-1,-8.809566498E-4
6.895280743E2,-2.802505493E-1,2.314269543E-2,7.157137394E-1
6.900280743E2,5.289106369E-1,3.069993258E-1,-2.040113807E-1
6.905280743E2,-4.065904617E-1,-2.626661062E-1,6.400393248E-1
6.910280743E2,6.523132324E-3,6.669670939E-1,-8.506181240E-1
6.915280743E2,-1.297536850E0,-1.958523989E-1,2.581902742E-1
6.920280743E2,4.780168533E-1,-8.733320236E-2,-1.470136404E0
6.925280743E2,-1.020668983E0,-6.005941629E-1,3.417466879E-1
6.930280743E2,-2.320575714E-2,8.944439888E-2,-6.732780933E-1
6.935280743E2,1.535595894E0,3.730938435E-1,4.410763979E-1
6.940280743E2,-1.236897469E0,-4.825389385E-2,5.468297005E-2
6.945280743E2,-2.572546005E-1,2.278623581E-1,6.280410290E-2
6.950280743E2,1.255645752E-1,2.715468407E-3,-3.497898579E-3
6.955280743E2,1.172984123E0,1.521683931E-1,-1.284557104E0
6.960280743E2,1.594810486E-1,-2.222195864E-1,1.056976676E0
6.965280743E2,-7.391738892E-2,-1.476538181E-1,-2.736990452E-1
6.970280743E2,8.979759216E-1,1.285073757E-1,2.955830097E-2
6.975280743E2,-1.009881020E0,1.410399675E-1,-1.029689312E0
6.980280743E2,2.455978394E-1,-4.244468212E-1,4.103515148E-1
6.985280743E2,3.201780319E-1,1.694065332E-1,-9.600936174E-1
6.990280743E2,3.732185364E-1,-5.126584768E-1,8.055185676E-1
6.995280743E2,-6.470308304E-1,3.828445673E-1,-4.083683491E-1
7.000280743E2,3.302316666E-1,-4.812759161E-1,9.542354345E-1
7.005280743E2,5.286216736E-3,-2.406080961E-1,4.042185545E-1
7.010280743E2,9.143066406E-2,-7.681083679E-2,-5.869737864E-1
7.015280743E2,2.278327942E-1,5.441546440E-3,-1.454038620E-1
7.020280743E2,-4.401922226E-1,-3.062125444E-1,4.329999685E-1
7.025280743E2,3.025274277E-1,-4.732162952E-1,4.431748390E-2
7.030280743E2,-9.971895218E-1,-6.008565426E-2,-3.671717644E-1
7.035280743E2,-4.313373566E-2,-1.684747934E-1,-1.627585888E-1
7.040280743E2,6.289482117E-3,1.757303476E-1,-5.607165098E-1
7.045280743E2,-1.858749390E-1,-2.280164957E-1,5.122364759E-1
7.050280743E2,7.781934738E-1,-3.620131016E-1,1.097515821E-1
7.055280743E2,-3.071479797E-1,4.419267178E-2,-3.671883345E-1
7.060280743E2,2.079048157E-1,5.441558361E-2,4.379868507E-2
7.065280743E2,-2.110166550E-1,2.607784271E-1,-3.590283394E-1
7.070280743E2,1.432132721E-2,1.045076847E-1,-5.330879092E-1
7.075280743E2,-2.279443741E-1,-2.897572517E-1,5.070018768E-1
7.080280743E2,3.425216675E-2,6.952342987E-1,-3.401938677E-1
7.085280743E2,7.618083954E-1,2.967493534E-1,-1.181237698E-1
7.090280743E2,-5.058240891E-1,-1.948881149E-2,3.145158887E-1
7.095280743E2,-1.583480835E-1,-2.116973400E-1,-2.099358439E-1
7.100280743E2,-4.786109924E-1,-9.684741497E-2,2.697566748E-1
7.105280743E2,6.449794769E-2,-2.263326645E-1,6.874644756E-2
7.110280743E2,-4.288434982E-1,-2.523994446E-1,1.564574838E-1
7.115280743E2,1.846885681E-1,-1.398749352E-1,5.595946312E-2
7.120280743E2,6.316757202E-2,-4.765808582E-2,-8.868652582E-2
7.125280743E2,3.222789764E-1,-1.205661297E-1,5.047451854E-1
7.130280743E2,2.124700546E-1,-2.978626490E-1,-8.234544992E-1
7.135280743E2,1.190643311E-1,2.074291706E-1,-5.534765720E-1
7.140280743E2,-1.943259716E0,5.966507196E-1,-9.165737033E-1
7.145280743E2,6.086473465E-1,-1.834949732E0,-8.984880447E-1
7.150280743E2,-1.478584290E0,5.941033363E-1,-1.351749897E-2
7.155280743E2,1.393944740E0,4.485188723E-1,1.132442713E0
7.160280743E2,-8.676242828E-2,2.921874523E-1,5.867207050E-1
7.165280743E2,-5.520877838E-1,4.277601242E-1,-5.372012854E-1
7.170280743E2,-5.420131683E-1,5.287879109E-1,-9.539402723E-1
7.175280743E2,6.630773544E-1,5.156742334E-1,6.334631443E-1
7.180280743E2,1.170355797E0,2.288244367E-1,4.551138282E-1
7.185280743E2,5.585937500E-1,-1.575537920E-1,-2.928502560E-1
7.190280743E2,1.586282730E0,4.726275206E-1,-3.251690865E-1
7.195280743E2,-1.178095818E0,1.443043947E-1,-1.110842705E0
7.200280743E2,5.708694458E-1,1.984988451E-1,1.202756166E-1
7.205280743E2,3.260040283E-1,-1.722149849E-1,-3.809697628E-1
7.210280743E2,-1.303894043E0,-6.739585400E-1,-6.704897881E-1
7.215280743E2,4.424257278E-1,3.502130508E-3,-4.985582829E-2
7.220280743E2,-8.980102539E-1,7.636725903E-2,8.835756779E-2
7.225280743E2,-2.056236267E-1,-1.552093029E-2,5.433831215E-1
7.230280743E2,6.884546280E-1,-2.427785397E-1,3.556618690E-1
7.235280743E2,3.106555939E-1,-2.067331076E-1,-7.841815948E-1
7.240280743E2,-6.022787094E-1,-4.408377409E-1,-4.942750931E-2
7.245280743E2,1.568552017E0,-2.418596745E-1,1.750000715E-1
7.250280743E2,-1.195068359E-1,-3.636928797E-1,2.365058661E-1
7.255280743E2,5.036640167E-2,-1.427142620E-1,2.858031988E-1
7.260280743E2,5.310859680E-1,2.945899963E-3,8.989894390E-2
7.265280743E2,-3.572349548E-1,-1.494081020E-1,7.941067219E-2
7.270280743E2,2.649211884E-2,-3.064086437E-1,4.224611521E-1
7.275280743E2,3.332939148E-1,-1.908218861E-1,-8.272337914E-2
7.280280743E2,-2.524042130E-1,-3.800940514E-2,-3.006969690E-1
7.285280743E2,1.079196930E-1,-8.082628250E-3,-4.759297371E-1
7.290280743E2,-2.650575638E-1,1.354240179E-1,-1.954904795E-1
7.295280743E2,7.646512985E-1,9.897220135E-2,-1.541441679E-1
7.300280743E2,-1.388711929E-1,-1.465022564E-2,3.905597925E-1
7.305280743E2,-3.489809036E-1,8.188712597E-2,2.769758701E-1
7.310280743E2,6.941270828E-1,1.639119387E-1,3.458820581E-1
7.315280743E2,-2.723026276E-2,-4.899859428E-2,4.672944546E-2
7.320280743E2,1.027314186E0,1.273270845E-1,-3.697338104E-1
7.325280743E2,-5.451927185E-1,7.029569149E-2,-1.626263857E-1
7.330280743E2,8.568086624E-1,-1.623799801E-1,1.336244345E-1
7.335280743E2,-6.833963394E-1,5.508744717E-2,1.764618158E-1
7.340280743E2,-3.930883408E-1,-6.452834606E-2,-5.542132854E-1
7.345280743E2,-3.590412140E-1,-3.304958344E-3,6.775617599E-2
7.350280743E2,7.549676895E-1,-1.939362288E-1,2.469785213E-1
7.355280743E2,2.290830612E-1,-4.578702450E-1,5.772233605E-1
7.360280743E2,3.931875229E-1,-3.090870380E-1,5.557749271E-1
7.365280743E2,5.780220032E-3,-6.136393547E-2,4.488145113E-1
7.370280743E2,5.585575104E-2,1.606473923E-1,-3.871750832E-1
7.375280743E2,-2.169370651E-1,8.521652222E-2,1.611219645E-1
7.380280743E2,-3.384428024E-1,2.602751255E-1,-4.179496765E-1
7.385280743E2,1.105937958E-1,-2.434058189E-1,-1.229680777E-1
7.390280743E2,2.170858383E-1,-3.468251228E-2,2.807737589E-1
7.395280743E2,-6.831474304E-1,1.295392513E-1,-1.959715486E-1
7.400280743E2,3.817892075E-1,5.415487289E-2,1.437561512E-1
7.405280743E2,2.330198288E-1,4.439086914E-1,3.330922127E-2
7.410280743E2,2.570648193E-1,2.935528755E-2,4.520860314E-2
7.415280743E2,-4.432897568E-1,3.578412533E-2,-4.052440226E-1
7.420280743E2,-4.419775009E-1,1.815173626E-1,-2.416597605E-1
7.425280743E2,5.978746414E-1,-8.183574677E-2,-3.023492098E-1
7.430280743E2,-7.801179886E-1,-2.263946533E-1,-1.917016506E-1
7.435280743E2,-2.103118896E-1,7.115364075E-2,-1.356355190E0
7.440280743E2,5.355081558E-1,5.490231514E-2,-1.822986603E-1
7.445280743E2,1.678690910E0,4.843275547E-1,2.170879841E-1
7.450280743E2,-1.035632133E0,-2.084286213E-1,6.397774220E-1
7.455280743E2,-2.063179016E-2,-3.393738270E-1,3.293344975E-1
7.460280743E2,-8.871717453E-1,9.265971184E-2,5.681804419E-1
7.465280743E2,1.348663330E0,-2.516849041E-1,8.759813309E-1
7.470280743E2,-3.777952194E-1,-7.206616402E-1,6.655883789E-1
7.475280743E2,1.915454865E-2,-1.177490950E0,1.059253216E-1
7.480280743E2,-6.695976257E-1,-3.764066696E-1,2.367177010E-1
7.485280743E2,4.310607910E-1,-3.436474800E-1,-1.204769611E-1
7.490280743E2,-2.409381866E-1,-1.061062813E-1,-3.536788225E-1
7.495280743E2,1.782808304E-1,-7.623515129E-1,1.542267799E-1
7.500280743E2,-9.362716675E-1,-4.614596367E-1,-1.261529922E-1
7.505280743E2,5.236349106E-1,7.543325424E-3,8.280408382E-2
7.510280743E2,1.207611084E0,6.043324471E-1,-9.906768799E-3
7.515280743E2,-4.063358307E-1,2.215497494E-1,-1.426907778E-1
7.520280743E2,6.913843155E-1,3.858065605E-1,1.842118502E-1
7.525280743E2,6.114006042E-2,9.823932648E-1,-6.515561342E-1
7.530280743E2,6.323242188E-1,1.124579191E0,1.235353947E-1
7.535280743E2,6.634073257E-1,1.246518850E0,1.054033041E-1
7.540280743E2,-1.233693123E0,6.308276653E-1,-3.430211544E-2
7.545280743E2,1.393188477E0,9.907382727E-1,6.310033798E-2
7.550280743E2,-1.280611992E0,3.185441494E-1,-2.280673981E-1
7.555280743E2,1.137969017E0,8.449627161E-1,1.953018904E-1
7.560280743E2,-3.543558121E-1,5.144194365E-1,-1.350338459E-1
7.565280743E2,-7.562637329E-1,2.004251480E-1,-2.489495277E-1
7.570280743E2,1.594089508E0,7.746726274E-1,7.335674763E-2
7.575280743E2,-1.243723869E0,-1.386330128E-1,-9.564888477E-2
7.580280743E2,1.485925674E0,6.815035343E-1,-3.544950485E-2
7.585280743E2,-1.425362587E0,-2.794234753E-1,-1.638392210E-1
7.590280743E2,1.536368370E0,5.345492363E-1,7.346546650E-2
7.595280743E2,-1.482173920E0,-3.611845970E-1,-1.126285791E-1
7.600280743E2,1.411312103E0,4.521937370E-1,1.909822226E-1
7.605280743E2,-1.585808754E0,-4.809961319E-1,-1.053146124E-1
7.610280743E2,1.245823860E0,4.354581833E-1,1.495856047E-1
7.615280743E2,-1.466541290E0,-4.589738846E-1,-1.613374949E-1
7.620280743E2,1.252294540E0,4.117259979E-1,1.215016842E-1
7.625280743E2,-1.414091110E0,-4.431003332E-1,-1.355717182E-1
7.630280743E2,1.152125359E0,3.695356846E-1,1.435087919E-1
7.635280743E2,-1.326731682E0,-4.561998844E-1,-2.857736349E-1
7.640280743E2,1.437647820E0,4.375412464E-1,1.776622534E-1
7.645280743E2,-1.183396339E0,-4.092271328E-1,-2.646312714E-1
7.650280743E2,1.587685585E0,4.163676500E-1,4.069757462E-2
7.655280743E2,-1.989145279E-1,7.322025299E-2,9.479641914E-3
7.660280743E2,-1.325898170E0,-4.481635094E-1,-2.954115868E-1
7.665280743E2,1.645501137E0,4.509350061E-1,1.451306343E-1
7.670280743E2,-3.944206238E-1,4.851971865E-1,2.021872997E-2
7.675280743E2,5.719594955E-1,-3.080193996E-1,-1.230689287E-1
7.680280743E2,-9.271478653E-1,-5.595699549E-1,1.948190928E-1
7.685280743E2,-1.981992722E-1,3.584704399E-1,-7.017755508E-2
7.690280743E2,-6.173868179E-1,2.205848694E-2,-9.137320518E-2
7.695280743E2,7.522726059E-1,1.691428423E-1,-4.210805893E-2
7.700280743E2,-8.713321686E-1,1.606035233E-2,-3.626728058E-2
7.705280743E2,1.381632805E0,3.739935160E-1,2.499815226E-1
7.710280743E2,1.182916641E0,2.397859097E-1,2.416528463E-1
7.715280743E2,-4.375810623E-1,-2.689383030E-1,3.421783447E-2
7.720280743E2,-1.210657120E0,-3.886896372E-1,-4.994630814E-2
7.725280743E2,9.499855042E-1,1.769796610E-1,1.761909723E-1
7.730280743E2,-7.582025528E-1,-1.612519026E-1,1.019703150E-1
7.735280743E2,-3.034019470E-2,-2.153480053E-2,-3.043293953E-3
7.740280743E2,1.649932861E-1,1.055760384E-1,6.180834770E-2
7.745280743E2,-5.765943527E-1,-1.998654604E-1,-4.099869728E-2
7.750280743E2,9.076290131E-1,3.402898312E-1,9.269869328E-2
7.755280743E2,-7.091493607E-1,-3.527889252E-1,-1.724373102E-1
7.760280743E2,1.144331932E0,3.579006195E-1,1.147997379E-1
7.765280743E2,-1.566358566E0,-5.143510103E-1,-7.904517651E-2
7.770280743E2,6.127967834E-1,6.052935123E-2,8.528125286E-2
7.775280743E2,-3.193273544E-1,2.979040146E-3,9.036111832E-2
7.780280743E2,-6.371116638E-2,-1.137845516E-1,-1.354300976E-2
7.785280743E2,1.123857498E-1,1.326704025E-1,1.823822260E-1
7.790280743E2,-4.986858368E-1,6.235463023E-1,-4.359891415E-1
7.795280743E2,-6.820774078E-2,5.014530420E-1,-2.871598005E-1
7.800280743E2,-3.664770126E-1,2.678368986E-1,-3.922005892E-1
7.805280743E2,-1.555967331E-1,1.857766509E-2,2.912775278E-1
7.810280743E2,-2.743539810E-1,-1.001563668E-2,1.517378092E-1
7.815280743E2,1.643133163E-1,2.179686129E-1,3.492481709E-1
7.820280743E2,-6.736164093E-1,4.084554315E-2,-1.113737941E0
7.825280743E2,-4.638233185E-1,4.082254171E-1,-4.010453224E-1
7.830280743E2,-5.408716202E-1,4.650227427E-1,-8.461651802E-1
7.835280743E2,1.022521019E0,-6.143170595E-1,-4.631328583E-2
7.840280743E2,-2.380399704E-1,8.097448945E-2,-1.681122780E-1
7.845280743E2,-4.399204254E-2,-1.096809283E-1,-4.328746796E-1
7.850280743E2,4.547309875E-2,-1.084151566E-1,2.637199163E-1
7.855280743E2,1.758155823E-1,2.551726103E-1,1.841188669E-1
7.860280743E2,-6.921482086E-2,7.688712329E-2,2.585750818E-1
7.865280743E2,9.377288818E-2,-4.443538487E-1,4.523079395E-1
7.870280743E2,-1.941957474E-1,-1.242512167E-1,2.532494068E-2
7.875280743E2,1.735620499E-1,4.109880328E-1,-4.632334709E-1
7.880280743E2,3.103103638E-1,-2.828702331E-1,-3.174376488E-2
7.885280743E2,-1.036492348E0,-1.982653737E-1,3.217356205E-1
7.890280743E2,-3.285140991E-1,-4.151543975E-1,1.581094265E-1
7.895280743E2,1.257420540E0,-3.447306156E-1,-1.020823717E-1
7.900280743E2,-7.159423828E-2,5.952924490E-3,-1.559001207E-2
7.905280743E2,-5.173501968E-1,-3.294231892E-1,-4.336972237E-1
7.910280743E2,-1.670742035E-2,-3.793002963E-1,1.532461643E-1
7.915280743E2,1.544690132E0,2.758936286E-1,2.135877609E-1
7.920280743E2,-1.825602531E0,9.531348944E-3,-8.336051702E-1
7.925280743E2,-1.325852394E0,7.544440031E-2,-5.375133753E-1
7.930280743E2,5.636081696E-1,2.962852120E-1,2.033293247E-3
7.935280743E2,-2.584409714E-1,1.746885478E-1,8.071649075E-2
7.940280743E2,1.037676811E0,3.547586203E-1,-4.553526640E-1
7.945280743E2,-1.859807968E-1,-2.382424027E-1,2.708778381E-1
7.950280743E2,2.873258591E-1,-2.015981525E-1,9.502762556E-2
7.955280743E2,5.201721191E-1,-9.292027354E-2,7.882964611E-2
7.960280743E2,-1.903333664E-1,9.417675436E-2,-2.856519818E-1
7.965280743E2,1.639389038E0,1.228213072E0,1.498731136E0
7.970280743E2,8.294286728E-1,5.397665501E-1,1.137817800E-1
7.975280743E2,-8.707199097E-1,-2.038639784E-2,1.915987134E-1
7.980280743E2,2.834386826E-1,2.268327177E-1,1.561900377E-1
7.985280743E2,2.448596954E-1,1.259703636E-1,-5.152964592E-1
7.990280743E2,-7.375030518E-1,-2.286085784E-1,2.038111687E-1
7.995280743E2,-1.764936447E-1,2.369177341E-2,-9.159255028E-2
8.000280743E2,-8.861093521E-1,-4.141342342E-1,-5.851011872E-1
8.005280743E2,-2.609214783E-1,-8.177161217E-4,-6.852945685E-1
8.010280743E2,1.659927368E-1,1.446127892E-3,-5.525671840E-1
8.015280743E2,-8.692073822E-2,9.129202366E-2,-1.150790751E-1
8.020280743E2,-4.319362640E-1,-1.663876176E-1,-3.040510714E-1
8.025280743E2,9.782533646E-1,5.802401900E-1,7.580534220E-1
8.030280743E2,-4.840764999E-1,-4.728400707E-1,-5.860489607E-2
8.035280743E2,-2.953510284E-1,-2.550107241E-1,3.842682838E-1
8.040280743E2,4.860076904E-1,5.475223064E-2,3.021622300E-1
8.045280743E2,7.421665192E-1,-2.603566945E-1,7.197619677E-1
8.050280743E2,-7.865781784E-1,-5.592869520E-1,-6.078332663E-1
8.055280743E2,-1.109713554E0,-1.812086105E-1,-6.463918686E-1
8.060280743E2,7.490425110E-1,-2.494024336E-1,5.996692181E-1
8.065280743E2,3.314685822E-2,2.315494418E-1,-8.501325250E-1
8.070280743E2,5.551576614E-1,-3.470386267E-1,-3.193298578E-1
8.075280743E2,-1.201213837E0,-1.134406328E0,-3.197647333E-1
8.080280743E2,-1.073724747E0,-4.160462618E-1,-4.632738829E-1
8.085280743E2,-7.217664719E-1,-2.800918221E-1,-2.342131138E-1
8.090280743E2,7.573299408E-1,-5.776667595E-2,4.929699898E-1
8.095280743E2,3.129873276E-1,-6.549742222E-1,1.376060247E-1
8.100280743E2,-1.188372612E0,-3.796300590E-1,-4.651871920E-1
8.105280743E2,1.187696457E-1,-5.076926947E-2,-5.124281049E-1
8.110280743E2,8.946018219E-1,5.549573898E-1,1.183565855E-1
8.115280743E2,-3.956384659E-1,-3.746347725E-1,4.711607099E-1
8.120280743E2,-3.903532028E-1,-4.224029779E-1,3.056599498E-1
8.125280743E2,-9.984912872E-1,-6.132937968E-2,-6.871724129E-2
8.130280743E2,1.212184906E0,4.069197476E-1,5.885920525E-1
8.135280743E2,-4.127101898E-1,-4.422685504E-1,1.592583656E-1
8.140280743E2,-1.335659027E-1,-7.009933889E-2,-2.854946852E-1
8.145280743E2,3.707094193E-1,5.993458033E-1,-5.472213030E-1
8.150280743E2,5.717487335E-1,-1.580890119E-1,7.163841724E-1
8.155280743E2,-1.096296310E0,-2.710080147E-1,2.945085764E-1
8.160280743E2,-7.292842865E-2,4.928289950E-1,-2.162922621E-1
8.165280743E2,6.655292511E-1,2.766274810E-1,3.131878376E-1
8.170280743E2,1.988792419E-1,1.383911818E-1,-1.033331156E-1
8.175280743E2,4.500370026E-1,4.603573978E-1,-3.954814672E-1
8.180280743E2,5.475130081E-1,3.172436059E-1,-2.696747780E-1
8.185280743E2,-1.803426743E-1,2.481348813E-2,-2.601267099E-1
8.190280743E2,4.810647964E-1,3.262115419E-1,-1.814979315E-1
8.195280743E2,-5.345821381E-2,-6.008279324E-1,6.340463161E-1
8.200280743E2,-4.431638718E-1,-2.332218587E-1,-2.728353739E-1
8.205280743E2,7.621841431E-1,4.372026622E-1,3.896975517E-1
8.210280743E2,4.319057465E-1,-2.209123969E-2,4.468692541E-1
8.215280743E2,-5.822868347E-1,-8.006516099E-2,3.057084084E-1
8.220280743E2,-5.350742340E-1,-8.584558964E-3,4.320085943E-1
8.225280743E2,-3.385705948E-1,-3.531975448E-1,6.032825112E-1
8.230280743E2,5.826015472E-1,3.161661923E-1,-1.347111464E-1
8.235280743E2,-2.410593033E-1,-1.611793488E-1,3.016788960E-1
8.240280743E2,4.507083893E-1,3.627300262E-1,1.868534088E-2
8.245280743E2,-1.024971962E0,-3.843806684E-1,-2.038034201E-1
8.250280743E2,1.191715240E0,5.150321722E-1,-2.898418903E-2
8.255280743E2,-7.859601974E-1,-2.553785741E-1,2.814614773E-2
8.260280743E2,5.842533112E-1,1.068593711E-1,1.432058811E-1
8.265280743E2,-2.574167252E-1,4.778958559E-1,-7.092649937E-1
8.270280743E2,-4.774599075E-1,-5.423163176E-1,2.129807472E-1
8.275280743E2,3.085374832E-1,8.946776390E-3,-5.263297558E-1
8.280280743E2,-5.549650192E-1,-3.904257119E-1,-8.693814278E-1
8.285280743E2,3.424539566E-1,-2.027125657E-2,1.159534454E-1
8.290280743E2,-1.302080154E-1,2.330035716E-1,-4.795870781E-1
8.295280743E2,-3.231372833E-1,-5.038920045E-1,-3.234608173E-1
8.300280743E2,2.265100479E-1,3.702808619E-1,6.907966137E-1
8.305280743E2,-7.009210587E-1,4.442602396E-3,-4.962077141E-1
8.310280743E2,4.430227280E-1,-9.849461168E-2,1.246321201E-1
8.315280743E2,-1.912031174E-1,2.968524396E-1,8.504104614E-2
8.320280743E2,5.535955429E-1,9.593750536E-2,6.401062012E-2
8.325280743E2,-1.243369102E0,-9.192748666E-1,-2.047572136E-1
8.330280743E2,-5.441474915E-2,3.463968039E-1,-5.153236389E-1
8.335280743E2,-7.648468018E-2,9.711739421E-2,9.264929295E-1
8.340280743E2,1.191301346E-1,-3.331907094E-1,6.201791763E-2
8.345280743E2,-2.372932434E-2,-3.684170246E-1,5.953242779E-1
8.350280743E2,-8.406715393E-1,-3.238122463E-1,-5.134534836E-1
8.355280743E2,-6.216506958E-1,-4.360055029E-1,-3.460738659E-1
8.360280743E2,-1.924800873E-1,8.932664990E-2,-7.586479187E-4
8.365280743E2,-1.142578125E-1,1.890315264E-1,-4.292342663E-1
8.370280743E2,4.412469864E-1,6.609214544E-1,-1.938899755E-1
8.375280743E2,8.773450851E-1,5.577541590E-1,4.359937906E-1
8.380280743E2,8.321647644E-1,3.810540140E-1,-4.508984089E-2
8.385280743E2,1.579799652E-1,1.015133560E-1,5.325822830E-1
8.390280743E2,6.662836075E-1,2.983406484E-1,2.670476437E-1
8.395280743E2,2.471904755E-1,4.194256663E-2,4.931194782E-1
8.400280743E2,9.042234421E-1,1.150262058E-1,-2.326620817E-1
8.405280743E2,-7.985115051E-3,-3.068912029E-1,6.271400452E-1
8.410280743E2,5.618457794E-1,-1.391669214E-1,4.406846762E-1
8.415280743E2,6.949138641E-2,-3.232045174E-1,3.487944007E-1
8.420280743E2,-4.192209244E-1,-5.947911739E-1,4.842768908E-1
8.425280743E2,-2.542438507E-1,-2.869870663E-1,2.277132273E-1
8.430280743E2,-4.456520081E-2,-3.749009669E-1,-3.620254993E-2
8.435280743E2,-4.326238632E-1,4.288175702E-2,-3.213187456E-1
8.440280743E2,-7.251701355E-1,-4.599129260E-1,-4.521812201E-1
8.445280743E2,-4.519491196E-1,-2.796783745E-1,-3.121067286E-1
8.450280743E2,-6.769485474E-1,-5.648940802E-2,-2.059406042E-1
8.455280743E2,3.161706924E-1,-3.205334544E-1,2.126159668E-1
8.460280743E2,-8.384542465E-1,-4.436659813E-1,-6.632602215E-2
8.465280743E2,-1.715440750E-1,-6.904404163E-1,2.041958570E-1
8.470280743E2,-3.866519928E-1,-7.294983864E-1,5.342171788E-1
8.475280743E2,-5.425825119E-1,-6.417109966E-1,-1.179220676E-1
8.480280743E2,-3.143939972E-1,-7.170553207E-1,2.310208082E-1
8.485280743E2,4.714813232E-1,-4.624809325E-1,6.995522976E-1
8.490280743E2,1.113891602E-2,-1.131144762E-1,-2.624670267E-1
8.495280743E2,-1.212389946E0,-1.965590119E-1,-4.160480499E-1
8.500280743E2,-5.642423630E-1,5.296757221E-1,-9.116437435E-1
8.505280743E2,-7.142353058E-2,-8.874499798E-2,-2.078627348E-1
8.510280743E2,6.709051132E-1,-4.213899374E-2,1.090974808E-1
8.515280743E2,2.214622498E-2,-4.265602231E-1,2.989058495E-1
8.520280743E2,-2.884445190E-1,-1.552157998E-1,5.331637859E-1
8.525280743E2,-1.387214661E-1,-2.592153549E-1,6.929039955E-3
8.530280743E2,1.871442795E-1,-3.738683462E-2,1.989172697E-1
8.535280743E2,8.356761932E-2,3.743304014E-1,-1.844966412E-1
8.540280743E2,-8.494338989E-1,2.070904970E-1,-3.526078463E-1
8.545280743E2,-8.982629776E-1,-3.674364090E-2,-1.258314848E-1
8.550280743E2,3.119726181E-1,1.920565963E-1,2.607713938E-1
8.555280743E2,-9.448242188E-2,3.647725880E-1,-3.516529799E-1
8.560280743E2,3.837709427E-1,1.971080601E-1,-3.948569298E-2
8.565280743E2,1.321061134E0,6.298547983E-1,3.992508650E-1
8.570280743E2,-3.868865967E-1,-5.519153476E-1,4.345452785E-2
8.575280743E2,9.127912521E-1,-1.462574005E-1,6.165339351E-1
8.580280743E2,-2.023038864E-1,-4.857784510E-1,5.195176601E-1
8.585280743E2,5.649604797E-1,-4.516164660E-1,5.610126257E-1
8.590280743E2,5.727138519E-1,1.120346189E-1,6.290204525E-1
8.595280743E2,4.947299957E-1,-7.717567682E-2,5.575467348E-1
8.600280743E2,-1.481094360E-1,2.700341940E-1,-3.362098932E-1
8.605280743E2,-3.757524490E-1,9.003990889E-2,-3.136078119E-1
8.610280743E2,-7.857160568E-1,-6.317186356E-1,4.574251175E-2
8.615280743E2,4.167356491E-1,-2.127998769E-1,9.818629026E-1
8.620280743E2,4.370565414E-1,6.254484057E-1,-3.475267887E-1
8.625280743E2,-3.231096268E-1,-3.455972672E-2,-4.442567825E-1
8.630280743E2,-7.664966583E-2,-4.187218249E-1,3.205431700E-1
8.635280743E2,6.552944183E-1,4.876365662E-1,5.287003517E-2
8.640280743E2,-3.797044754E-1,2.835003734E-1,-2.277907133E-1
8.645280743E2,-2.706842422E-1,-4.970504940E-1,-3.777904510E-1
8.650280743E2,6.844253540E-1,-1.273708940E-1,6.734036207E-1
8.655280743E2,1.078397751E0,4.785034060E-1,5.915453434E-1
8.660280743E2,-1.897706985E-1,2.001163960E-1,-3.220070601E-1
8.665280743E2,-8.043947220E-1,-2.196183801E-1,-1.716678143E-1
8.670280743E2,6.419401169E-1,-2.154608965E-1,6.944121122E-1
8.675280743E2,-2.202653885E-1,-6.022566557E-2,7.038810253E-1
8.680280743E2,8.557624817E-1,4.897826314E-1,1.231635809E-1
8.685280743E2,-3.551979065E-1,-6.825608015E-2,-1.668212116E-1
8.690280743E2,-1.019846916E0,-3.161531091E-1,-2.622912526E-1
8.695280743E2,-1.434688568E-1,-1.805266142E-1,-3.096427917E-1
8.700280743E2,8.758926392E-2,-1.402664185E-1,9.469545484E-1
8.705280743E2,5.242938995E-1,2.413884401E-1,1.630417705E-1
8.710280743E2,3.789625168E-1,5.109732747E-1,-3.593624234E-1
8.715280743E2,-5.913639069E-1,-5.228179693E-1,-2.568306327E-1
8.720280743E2,1.111850739E-1,1.005777121E-1,2.403517962E-1
8.725280743E2,5.114612579E-1,2.952386141E-1,1.986925006E-1
8.730280743E2,-4.512500763E-2,3.050494790E-1,-9.139886498E-1
8.735280743E2,-3.413944244E-1,-1.242967546E-1,6.103813648E-4
8.740280743E2,2.558221817E-1,-3.818708658E-2,-7.922202349E-2
8.745280743E2,-3.050785065E-1,8.762860298E-2,-7.901065350E-1
8.750280743E2,2.899932861E-1,-6.038296223E-2,-1.238605380E-1
8.755280743E2,-2.762203217E-1,4.490022063E-1,-1.724152565E-1
8.760280743E2,8.823108673E-1,4.178959131E-1,3.815423250E-1
8.765280743E2,-6.211462021E-1,-4.632401168E-1,7.319086790E-2
8.770280743E2,-1.126955986E0,-2.948950529E-1,-3.498143554E-1
8.775280743E2,-4.507617950E-1,-1.617907286E-1,-1.330426335E-1
8.780280743E2,-2.064313889E-1,2.911700010E-1,5.247461796E-2
8.785280743E2,-1.165971756E-1,7.602250576E-2,-1.973019838E-1
8.790280743E2,5.189599991E-1,5.090066791E-1,2.916457653E-1
8.795280743E2,1.188211441E-1,4.479883313E-1,-1.096670628E-1
8.800280743E2,-1.475601196E-1,1.679725051E-1,8.569872379E-2
8.805280743E2,5.079364777E-2,-1.844652295E-1,-9.733796120E-2
8.810280743E2,2.460193634E-2,-3.262323439E-1,-1.071698666E-1
8.815280743E2,2.407035828E-1,1.554559171E-1,-2.169203758E-2
8.820280743E2,-2.690172195E-1,-3.013522625E-1,1.131343842E-1
8.825280743E2,-4.897212982E-2,-3.571551442E-1,-4.392588139E-2
8.830280743E2,-2.761344910E-1,-2.167097479E-1,5.398392677E-2
8.835280743E2,1.424503326E-1,2.829245031E-1,2.138973475E-1
8.840280743E2,2.526502609E-1,-5.990204215E-2,4.841735363E-1
8.845280743E2,-2.461595535E-1,1.510271728E-1,-2.075809240E-1
8.850280743E2,1.451635361E-1,-1.690418422E-1,2.631891370E-1
8.855280743E2,9.240007401E-1,3.202135265E-1,-3.955036402E-1
8.860280743E2,-1.771869659E-1,-1.355459988E-1,1.265953422E0
8.865280743E2,4.129753113E-1,2.135721147E-1,-5.572409630E-1
8.870280743E2,-1.589374542E-1,4.079776406E-1,-6.381201744E-1
8.875280743E2,2.950067520E-1,5.699795485E-2,-5.486536026E-2
8.880280743E2,2.293148041E-1,5.522997379E-1,-1.981611252E-1
8.885280743E2,3.597431183E-1,9.422636032E-2,3.974258900E-1
8.890280743E2,-7.696027756E-1,-7.083815336E-2,3.482854366E-2
8.895280743E2,-1.609382629E-1,-9.314405918E-2,1.574170589E-2
8.900280743E2,5.101146698E-1,-2.337111831E-1,1.064121008E0
8.905280743E2,-3.794765472E-1,-2.971381545E-1,5.167564154E-1
8.910280743E2,5.014123917E-1,1.901302338E-1,7.206556797E-1
8.915280743E2,4.846286774E-2,1.724126339E-1,-1.604953408E-1
8.920280743E2,1.411323547E-1,-1.768986583E-1,3.258354664E-1
8.925280743E2,2.920188904E-1,-2.330428362E-1,-3.295614123E-1
8.930280743E2,7.845582962E-1,3.641431332E-1,1.664540172E-1
8.935280743E2,-1.047035217E0,1.858555079E-1,-1.785602570E-1
8.940280743E2,-2.007808685E-1,-6.878072023E-2,2.722623944E-1
8.945280743E2,-2.255382538E-1,-6.694961786E-1,1.373437166E0
8.950280743E2,-1.733889580E0,-4.793089926E-1,-2.802530527E-1
8.955280743E2,-8.227519989E-1,-5.334363580E-1,-7.922209501E-1
8.960280743E2,2.333860397E-1,1.343942881E-1,-8.978300095E-1
8.965280743E2,3.506469727E-2,3.389993906E-1,-2.179930210E-1
8.970280743E2,2.732057571E-1,-1.186127663E-1,-5.048630238E-1
8.975280743E2,1.032171249E-1,-2.238353491E-1,-6.328237057E-1
8.980280743E2,1.617965698E-1,-2.344719768E-1,-2.258348465E-2
8.985280743E2,1.179313660E-1,-1.319224238E-1,-4.655539989E-1
8.990280743E2,2.637186050E-1,3.015951514E-1,2.499194145E-1
8.995280743E2,6.446847916E-1,3.972953558E-2,-7.498893738E-1
9.000280743E2,-8.228302002E-2,-1.381284595E-1,9.914522171E-1
9.005280743E2,3.985090256E-1,6.061495543E-1,-1.399676800E-1
9.010280743E2,-7.207212448E-1,-1.084898114E-1,3.230381012E-2
9.015280743E2,4.549217224E-1,1.047354937E-1,1.256898165E0
9.020280743E2,-3.940572739E-1,-2.322556376E-1,-8.349188566E-1
9.025280743E2,6.357669830E-2,8.219373226E-2,-4.243570566E-1
9.030280743E2,-4.627208710E-1,-3.666554689E-1,-4.302525520E-2
9.035280743E2,-5.717945099E-2,-2.997252941E-1,-4.108917713E-1
9.040280743E2,1.351375580E-1,-2.551054955E-1,1.234364510E-2
9.045280743E2,-5.947189331E-1,-3.379268646E-1,2.949118614E-2
9.050280743E2,2.104091644E-2,1.974159479E-2,3.460074663E-1
9.055280743E2,-1.432094574E-1,-3.681981564E-1,-6.849478483E-1
9.060280743E2,-2.295274734E-1,3.758112192E-1,-2.198314667E-1
9.065280743E2,4.239492416E-1,8.470928669E-2,8.046209812E-1
9.070280743E2,6.160650253E-1,5.642431974E-1,1.435720921E-2
9.075280743E2,-5.356445312E-1,-6.363940835E-1,7.739787102E-1
9.080280743E2,1.941566467E-1,5.233232379E-1,-1.151789784E0
9.085280743E2,-1.057451248E0,-9.006193280E-1,-3.401899338E-1
9.090280743E2,1.346282959E-1,-4.350467920E-1,3.000092506E-2
9.095280743E2,-2.652273178E-1,1.507284641E-1,-1.902288198E-1
9.100280743E2,-4.813938141E-1,-9.006202221E-2,-6.068556309E-1
9.105280743E2,-3.402423859E-1,-4.639121294E-1,6.665170193E-1
9.110280743E2,-1.318368912E-1,-2.355575562E-3,-6.994572878E-1
9.115280743E2,-6.439342499E-1,-3.709672093E-1,-1.164579391E-2
9.120280743E2,3.481435776E-1,5.117629766E-1,-1.725536585E-1
9.125280743E2,4.916820526E-1,-3.280239105E-1,6.160759926E-2
9.130280743E2,1.897363663E-1,4.061063528E-1,-1.048244238E-1
9.135280743E2,-2.429676056E-1,1.856608391E-1,-1.875543594E-2
9.140280743E2,4.677667618E-1,3.843846321E-1,-1.007965088E0
9.145280743E2,-7.219533920E-1,-4.356854558E-1,7.100390196E-1
9.150280743E2,9.293556213E-2,-2.294093370E-2,3.330636024E-2
9.155280743E2,2.885904312E-1,-9.133923054E-2,2.681380510E-1
9.160280743E2,1.176605225E-1,-1.123905182E-1,4.150688648E-2
9.165280743E2,-4.033651352E-1,1.226137877E-1,3.879263401E-1
9.170280743E2,1.387119293E-1,3.534932733E-1,-2.323150635E-3
9.175280743E2,-7.341270447E-1,1.656204462E-2,-6.091051102E-1
9.180280743E2,-4.308118820E-1,-3.111537397E-1,2.079887390E-1
9.185280743E2,4.038925171E-1,2.726331949E-1,-3.066169024E-1
9.190280743E2,8.944845200E-1,-1.541438699E-1,3.190006018E-1
9.195280743E2,-2.412757874E-1,4.126060009E-2,-2.434934378E-1
9.200280743E2,-1.127369881E0,-2.493677735E-1,1.038076878E-1
9.205280743E2,2.188739777E-1,5.202666521E-1,-1.150633216E0
9.210280743E2,-3.732032776E-1,1.273801923E-1,8.615268469E-1
9.215280743E2,-3.497419357E-1,-1.214109659E-1,-3.513443470E-1
9.220280743E2,9.939470291E-1,3.150300384E-1,5.216022730E-1
9.225280743E2,-4.292593002E-1,-7.375794649E-1,8.381633759E-1
9.230280743E2,-6.025667191E-1,2.041542530E-1,2.682909966E-1
9.235280743E2,-5.881547928E-1,-2.916019559E-1,7.972526550E-1
9.240280743E2,1.932039261E-1,-2.292674780E-1,-5.776076317E-1
9.245280743E2,8.524389267E-1,3.898762465E-1,1.032295227E0
9.250280743E2,1.118202209E-1,-2.187831402E-1,5.859363079E-2
9.255280743E2,-1.175177574E0,1.547138095E-1,-3.068568707E-1
9.260280743E2,-1.237805367E0,-3.608877957E-1,3.635500669E-1
9.265280743E2,2.275657654E-1,2.761467099E-1,-1.069110632E-1
9.270280743E2,-3.838920593E-2,7.471138239E-2,-6.834943295E-1
9.275280743E2,9.590568542E-1,2.820365429E-1,1.229405403E-1
9.280280743E2,3.330564499E-1,-1.004368663E-1,-6.840428114E-1
9.285280743E2,-8.606147766E-2,-4.528399408E-1,1.176066995E0
9.290280743E2,9.672460556E-1,3.340024352E-1,-9.677346945E-1
9.295280743E2,-6.080846786E-1,-5.008490086E-1,1.828253269E-2
9.300280743E2,2.483863831E-1,-3.695040941E-2,-8.944193125E-1
9.305280743E2,7.175331116E-1,4.809874594E-1,-7.087812424E-1
9.310280743E2,2.522258759E-1,-4.744851589E-2,2.990251780E-1
9.315280743E2,-2.809686661E-1,-1.335128248E-1,8.962625265E-1
9.320280743E2,4.991626740E-1,-5.381606817E-1,-1.911900043E-1
9.325280743E2,6.904506683E-1,4.060706496E-1,1.762781143E-1
9.330280743E2,-3.487405777E-1,-1.568248868E-1,2.970882654E-1
9.335280743E2,3.750324249E-1,-1.018590629E-1,6.012058258E-2
9.340280743E2,2.461605072E-1,4.321362674E-1,7.673386335E-1
9.345280743E2,-1.288948059E-1,-2.078298926E-1,-5.965149403E-2
9.350280743E2,-2.301502228E-1,-2.170534134E-1,6.511375308E-1
9.355280743E2,-5.727825165E-1,-6.378815174E-1,-1.956148148E-1
9.360280743E2,1.997318268E-1,1.834537089E-2,-1.542392969E-1
9.365280743E2,6.422166824E-1,2.187962979E-1,5.320155621E-2
9.370280743E2,5.464258194E-1,1.864005178E-1,1.273974180E-1
9.375280743E2,-5.187988281E-4,2.549511790E-1,-3.596019745E-2
9.380280743E2,-5.180063248E-1,-1.666652262E-1,3.922953606E-1
9.385280743E2,3.163595200E-1,5.585629940E-1,-7.398416996E-1
9.390280743E2,-2.290782928E-1,-2.971457839E-1,-4.901133776E-1
9.395280743E2,6.844329834E-1,4.354955554E-1,1.455831528E-1
9.400280743E2,-4.683885574E-1,-2.092930675E-2,-2.310070992E-1
9.405280743E2,5.650596619E-1,2.972107530E-1,2.225586176E-1
9.410280743E2,-4.802141190E-1,-1.990469694E-1,-4.218660593E-1
9.415280743E2,4.847879410E-1,5.026181936E-1,-3.670500517E-1
9.420280743E2,-1.906385422E-1,4.003082514E-1,5.741963387E-1
9.425280743E2,1.816530228E-1,1.214036047E-1,-3.174165487E-1
9.430280743E2,8.446979523E-1,1.060032845E-1,3.781640530E-1
9.435280743E2,-1.936664581E-1,-2.157018185E-1,-4.280544519E-1
9.440280743E2,-3.024598122E0,-1.982355416E-1,9.821873903E-1
9.445280743E2,2.233757973E0,5.443060994E-1,-1.079570293E0
9.450280743E2,-1.591463089E0,-5.145043135E-3,7.718290091E-1
9.455280743E2,1.063209534E0,4.975672960E-1,-6.060605049E-1
9.460280743E2,-2.368793488E-1,1.423016787E-1,4.142384529E-1
9.465280743E2,7.259178162E-2,4.545227289E-1,2.325296402E-3
9.470280743E2,-1.132726669E-1,2.085907757E-1,-4.434846640E-1
9.475280743E2,1.633314133E0,-3.515934944E-2,-7.172214985E-2
9.480280743E2,-8.580322266E-1,-3.589641750E-1,4.225991964E-1
9.485280743E2,1.085734367E0,-5.973237753E-2,4.809799194E-1
9.490280743E2,-1.202676773E0,-1.007717133E0,-6.700325012E-2
9.495280743E2,6.493244171E-1,-7.772582769E-2,-5.076314211E-1
9.500280743E2,3.700857162E-1,9.381455183E-2,3.516871333E-1
9.505280743E2,1.180648804E-3,1.535281688E-1,-3.279632330E-1
9.510280743E2,-5.501909256E-1,4.696732759E-2,-4.843974113E-2
9.515280743E2,5.076122284E-1,1.192298532E-1,-6.127508879E-1
9.520280743E2,6.167726517E-1,2.197164297E-1,-9.106864929E-1
9.525280743E2,6.517801285E-1,6.687289476E-2,-3.431570530E-2
9.530280743E2,-4.020271301E-1,-3.593810201E-1,-1.206934452E-2
9.535280743E2,1.722054482E0,7.167007327E-1,8.300833702E-1
9.540280743E2,-6.259374619E-1,-3.257085085E-1,2.107923031E-1
9.545280743E2,-3.369436264E-1,-1.591282487E-1,-5.480816364E-1
9.550280743E2,-6.920375824E-1,-4.742155969E-1,-1.156151891E0
9.555280743E2,-2.127412319E0,-3.488336205E-1,-6.207312346E-1
9.560280743E2,2.008726120E0,6.336042285E-1,4.342348576E-1
9.565280743E2,-7.738666534E-1,-5.517029762E-1,-9.190926552E-1
9.570280743E2,1.715730667E0,3.098289371E-1,3.131871223E-1
9.575280743E2,2.455883026E-1,3.559143245E-1,-1.564958096E-1
9.580280743E2,1.203974724E0,5.870609283E-1,1.952941418E-1
9.585280743E2,4.106779099E-1,2.527618408E-2,3.567481041E-2
9.590280743E2,-1.573452950E0,-6.595406532E-1,-1.121994257E0
9.595280743E2,1.317406654E0,6.045043468E-1,-3.240983486E-1
9.600280743E2,-1.407331467E0,-5.448569059E-1,-8.585643768E-2
9.605280743E2,1.483407021E0,3.017463684E-1,1.008036137E-1
9.610280743E2,6.955327988E-1,3.394500613E-1,3.094549179E-1
9.615280743E2,-4.272031784E-1,-7.558253407E-2,-3.924441338E-2
9.620280743E2,4.070558548E-1,2.010614276E-1,6.318793297E-1
9.625280743E2,1.818008423E-1,1.987047791E-1,-4.431538582E-1
9.630280743E2,1.162131310E0,4.302825332E-1,8.372657299E-1
9.635280743E2,-8.071031570E-1,-4.552917182E-1,7.690784931E-1
9.640280743E2,5.237350464E-1,6.449174881E-2,4.739522934E-3
9.645280743E2,-9.408969879E-1,-4.832278490E-1,-1.567547321E-1
9.650280743E2,-7.803335190E-1,-1.573134661E-1,8.922433853E-2
9.655280743E2,3.382797241E-1,-3.976005316E-2,-2.651290894E-1
9.660280743E2,1.381868362E0,2.800894976E-1,-3.438313007E-1
9.665280743E2,7.021684647E-1,2.412379384E-1,-4.015980959E-1
9.670280743E2,-1.413288116E-1,1.603955030E-2,-9.658194780E-1
9.675280743E2,-8.366794586E-1,-3.562768698E-1,9.831035137E-2
9.680280743E2,3.773460388E-1,-1.014617085E-1,1.947919130E-1
9.685280743E2,-8.995838165E-1,-4.428851008E-1,6.106879711E-1
9.690280743E2,1.018042564E0,2.392815948E-1,1.294231415E-1
9.695280743E2,-5.377111435E-1,9.854131937E-2,-2.708065510E-1
9.700280743E2,-8.384723663E-1,-3.134140968E-1,1.855158806E-2
9.705280743E2,-1.083736420E0,-6.848666072E-1,4.577896595E-1
9.710280743E2,-1.153820038E0,-4.844230711E-1,-7.847526073E-1
9.715280743E2,-6.758604050E-1,-5.093981624E-1,5.741697550E-1
9.720280743E2,-3.283071518E-1,-9.909689426E-3,2.119706869E-1
9.725280743E2,8.342361450E-1,4.140105844E-1,1.725423336E-2
9.730280743E2,4.678382874E-1,-4.269933701E-2,5.340075493E-2
9.735280743E2,-2.720479965E-1,-1.746723652E-1,-1.263532639E-1
9.740280743E2,-1.812276840E-1,1.817186475E-1,-3.188325167E-1
9.745280743E2,-8.177452087E-1,-4.176388383E-1,-3.418718576E-1
9.750280743E2,1.167609215E0,2.377874255E-1,3.548332453E-1
9.755280743E2,3.177938461E-1,3.650754094E-1,-5.570551157E-1
9.760280743E2,1.262562752E0,2.798646092E-1,5.292330980E-1
9.765280743E2,7.175073624E-1,3.739131689E-1,-2.965233326E-1
9.770280743E2,-5.982484818E-1,-4.759041667E-1,3.878883123E-1
9.775280743E2,5.671815872E-1,3.574448228E-1,3.736675978E-1
9.780280743E2,-7.643194199E-1,-2.341721654E-1,6.755279303E-1
9.785280743E2,-2.314662933E-1,-2.476285994E-1,1.517558098E-2
9.790280743E2,-2.769660950E-1,-7.596731186E-2,-2.852462530E-1
9.795280743E2,7.500724792E-1,1.736824512E-1,-9.059429169E-3
9.800280743E2,-1.356029510E-1,4.507309198E-2,1.109541893E0
9.805280743E2,5.119857788E-1,2.689825892E-1,-5.413304567E-1
9.810280743E2,-5.272674561E-1,-3.862894177E-1,1.044203401E0
9.815280743E2,6.167221069E-2,1.537191868E-2,1.823629141E-1
9.820280743E2,1.324462891E-1,1.913748384E-1,-1.496969461E-1
9.825280743E2,1.708965302E-1,-5.686664581E-2,-4.451251030E-2
9.830280743E2,4.998216629E-1,2.024108171E-1,1.133810282E-1
9.835280743E2,-8.077039719E-1,-3.024876714E-1,-1.520447731E-1
9.840280743E2,-5.643081665E-2,-3.403330445E-1,-4.138631821E-1
9.845280743E2,3.253479004E-1,-3.909409046E-2,1.584256887E-1
9.850280743E2,-1.428187370E0,-3.472324610E-1,6.029688120E-1
9.855280743E2,4.922466278E-1,4.766735435E-1,-4.461014271E-2
9.860280743E2,-5.180940628E-1,9.909731150E-2,1.858983040E-1
9.865280743E2,-7.441396713E-1,-1.346495450E-1,-2.388833761E-1
9.870280743E2,-1.459999084E-1,4.049968123E-1,-3.121993542E-1
9.875280743E2,5.604028702E-1,4.952022433E-1,3.373260498E-1
9.880280743E2,8.148469925E-1,4.882922173E-1,5.355445147E-1
9.885280743E2,4.950761795E-1,1.808840036E-1,1.082051992E-1
9.890280743E2,1.411602020E0,6.832340956E-1,2.481892109E-1
9.895280743E2,7.184476852E-1,4.408007860E-2,5.807379484E-1
9.900280743E2,1.561517715E-1,-1.513202786E-1,-9.430062771E-2
9.905280743E2,-7.132120132E-1,-4.202082753E-1,4.239153862E-2
9.910280743E2,3.511238098E-1,-5.386948586E-2,-1.641112566E-1
9.915280743E2,1.202306747E-1,1.416053176E-1,6.244335175E-1
9.920280743E2,3.869638443E-1,-1.033279598E-1,8.109104633E-1
9.925280743E2,5.630207062E-1,2.181540132E-1,4.664202929E-1
9.930280743E2,1.070976257E-1,-3.148225546E-1,-2.872292995E-1
9.935280743E2,-1.850433350E-1,-7.792699337E-2,8.369386196E-2
9.940280743E2,-1.527223587E-1,-3.351581097E-2,-1.851696968E-1
9.945280743E2,1.148977280E-1,5.409175158E-2,-6.412035227E-1
